"trial_type","trial_index","time_elapsed","internal_node_id","subject_id","condition","task_version","interactions","blur_events","focus_events","fullscreenenter_events","fullscreenexit_events","success","timeout","failed_images","failed_audio","failed_video","rt","stimulus","response","button_pressed","task_part","left_choice","middle_choice","right_choice","choice_positions","correct_response","correct_position","key_press","option_selected","points","task_block","correct","stim_cat","block_condition","block_number"
"pavlovia","0","7","0.0-0.0","1424","1","2","""event"",""trial"",""time""
""focus"",""0"",""1""
""fullscreenenter"",""1"",""1891""
","
","""event"",""trial"",""time""
""focus"",""0"",""1""
","""event"",""trial"",""time""
""fullscreenenter"",""1"",""1891""
","
","","","","","","","","","","","","","","","","","","","","","","","",""
"fullscreen","1","2689","0.0-1.0","1424","1","2","""event"",""trial"",""time""
""focus"",""0"",""1""
""fullscreenenter"",""1"",""1891""
","
","""event"",""trial"",""time""
""focus"",""0"",""1""
","""event"",""trial"",""time""
""fullscreenenter"",""1"",""1891""
","
","true","","","","","","","","","","","","","","","","","","","","","","",""
"preload","2","6028","0.0-2.0","1424","1","2","""event"",""trial"",""time""
""focus"",""0"",""1""
""fullscreenenter"",""1"",""1891""
","
","""event"",""trial"",""time""
""focus"",""0"",""1""
","""event"",""trial"",""time""
""fullscreenenter"",""1"",""1891""
","
","true","false","[]","[]","[]","","","","","","","","","","","","","","","","","","",""
"audio-keyboard-response","3","8000","0.0-3.0","1424","1","2","""event"",""trial"",""time""
""focus"",""0"",""1""
""fullscreenenter"",""1"",""1891""
","
","""event"",""trial"",""time""
""focus"",""0"",""1""
","""event"",""trial"",""time""
""fullscreenenter"",""1"",""1891""
","
","","","","","","1970.6666666666672","audio/beep_loop.wav"," ","","","","","","","","","","","","","","","",""
"audio-button-response","4","9693","0.0-4.0","1424","1","2","""event"",""trial"",""time""
""focus"",""0"",""1""
""fullscreenenter"",""1"",""1891""
","
","""event"",""trial"",""time""
""focus"",""0"",""1""
","""event"",""trial"",""time""
""fullscreenenter"",""1"",""1891""
","
","","","","","","1688","audio/shark.wav","4","","","","","","","","","","","","","","","",""
"audio-button-response","5","11709","0.0-5.0","1424","1","2","""event"",""trial"",""time""
""focus"",""0"",""1""
""fullscreenenter"",""1"",""1891""
","
","""event"",""trial"",""time""
""focus"",""0"",""1""
","""event"",""trial"",""time""
""fullscreenenter"",""1"",""1891""
","
","","","","","","1021","audio/turtle.wav","1","","","","","","","","","","","","","","","",""
"preload","6","15304","0.0-6.0","1424","1","2","""event"",""trial"",""time""
""focus"",""0"",""1""
""fullscreenenter"",""1"",""1891""
","
","""event"",""trial"",""time""
""focus"",""0"",""1""
","""event"",""trial"",""time""
""fullscreenenter"",""1"",""1891""
","
","true","false","[]","[]","[]","","","","","","","","","","","","","","","","","","",""
"html-keyboard-response","7","16625","0.0-7.0","1424","1","2","""event"",""trial"",""time""
""focus"",""0"",""1""
""fullscreenenter"",""1"",""1891""
","
","""event"",""trial"",""time""
""focus"",""0"",""1""
","""event"",""trial"",""time""
""fullscreenenter"",""1"",""1891""
","
","","","","","","1319","Welcome to the experiment. Press any key to begin and to advance the instructions.","h","","","","","","","","","","","","","","","",""
"learning-instructions","8","25679","0.0-8.0-0.0-0.0","1424","1","2","""event"",""trial"",""time""
""focus"",""0"",""1""
""fullscreenenter"",""1"",""1891""
","
","""event"",""trial"",""time""
""focus"",""0"",""1""
","""event"",""trial"",""time""
""fullscreenenter"",""1"",""1891""
","
","","","","","","1297","<p> Welcome! Today you are going to play 6 different rounds of a decision-making game. </p><p> Use the mouse to click next to continue. </p>","","0","instructions","","","","","","","","","","","","","",""
"learning-instructions","9","29151","0.0-8.0-0.0-0.1","1424","1","2","""event"",""trial"",""time""
""focus"",""0"",""1""
""fullscreenenter"",""1"",""1891""
","
","""event"",""trial"",""time""
""focus"",""0"",""1""
","""event"",""trial"",""time""
""fullscreenenter"",""1"",""1891""
","
","","","","","","460","<p> You will start with a practice round to learn the rules. </p>","","0","instructions","","","","","","","","","","","","","",""
"learning-instructions","10","37338","0.0-8.0-0.0-0.2","1424","1","2","""event"",""trial"",""time""
""focus"",""0"",""1""
""fullscreenenter"",""1"",""1891""
","
","""event"",""trial"",""time""
""focus"",""0"",""1""
","""event"",""trial"",""time""
""fullscreenenter"",""1"",""1891""
","
","","","","","","426","<p> Your goal in this round is to deliver sports equipment to three different parks. </p><p> You will need to deliver many types of equipment. </p></div>","","0","instructions","","","","","","","","","","","","","",""
"learning-instructions","11","47047","0.0-8.0-0.0-0.3","1424","1","2","""event"",""trial"",""time""
""focus"",""0"",""1""
""fullscreenenter"",""1"",""1891""
","
","""event"",""trial"",""time""
""focus"",""0"",""1""
","""event"",""trial"",""time""
""fullscreenenter"",""1"",""1891""
","
","","","","","","1212","<p> On each turn, you will see one piece of sports equipment and three different parks.  </p><p> You need to select which park to deliver the equipment to.  </p>","","0","instructions","","","","","","","","","","","","","",""
"learning-instructions","12","62182","0.0-8.0-0.0-0.4","1424","1","2","""event"",""trial"",""time""
""focus"",""0"",""1""
""fullscreenenter"",""1"",""1891""
","
","""event"",""trial"",""time""
""focus"",""0"",""1""
","""event"",""trial"",""time""
""fullscreenenter"",""1"",""1891""
","
","","","","","","1845","<p> You can select the park on the left by pressing the '1' key on your keyboard. <br>You can select the park in the middle by pressing the '2' key on your keyboard. <br>You can select the park on the right by pressing the '3' key on your keyboard.  </p><br><div class=""choice-instructions-grid""> <div class=""choice-option""><img src=""images/park1.png"" class=""choice-option-img"" stage=""instructions"" position=""0"" ><div class=""choice-option-text""> Press ""1."" </div></div><div class=""choice-option""><img src=""images/park2.png"" class=""choice-option-img"" stage=""instructions"" position=""1"" ><div class=""choice-option-text""> Press ""2."" </div></div><div class=""choice-option""><img src=""images/park3.png"" class=""choice-option-img"" stage=""instructions"" position=""2"" ><div class=""choice-option-text""> Press ""3."" </div></div></div>","","0","instructions","","","","","","","","","","","","","",""
"learning-instructions","13","68349","0.0-8.0-0.0-0.5","1424","1","2","""event"",""trial"",""time""
""focus"",""0"",""1""
""fullscreenenter"",""1"",""1891""
","
","""event"",""trial"",""time""
""focus"",""0"",""1""
","""event"",""trial"",""time""
""fullscreenenter"",""1"",""1891""
","
","","","","","","761","<p> If the kids in the park you chose like the equipment, they will be very happy! </p><div style='float: center;'><img src='images/check.png' width = '200' height = '200'></img>","","0","instructions","","","","","","","","","","","","","",""
"learning-instructions","14","74299","0.0-8.0-0.0-0.6","1424","1","2","""event"",""trial"",""time""
""focus"",""0"",""1""
""fullscreenenter"",""1"",""1891""
","
","""event"",""trial"",""time""
""focus"",""0"",""1""
","""event"",""trial"",""time""
""fullscreenenter"",""1"",""1891""
","
","","","","","","340","<p> But, if the kids in the park you chose do not like the equipment, they will be sad. </p><div style='float: center;'><img src='images/x.png' width = '200' height = '200'></img>","","0","instructions","","","","","","","","","","","","","",""
"learning-instructions","15","145083","0.0-8.0-0.0-0.7","1424","1","2","""event"",""trial"",""time""
""focus"",""0"",""1""
""fullscreenenter"",""1"",""1891""
","
","""event"",""trial"",""time""
""focus"",""0"",""1""
","""event"",""trial"",""time""
""fullscreenenter"",""1"",""1891""
","
","","","","","","64332","<p> Importantly, the kids in each park like some pieces of sports equipment more than others. </p>","","0","instructions","","","","","","","","","","","","","",""
"learning-instructions","16","151604","0.0-8.0-0.0-0.8","1424","1","2","""event"",""trial"",""time""
""focus"",""0"",""1""
""fullscreenenter"",""1"",""1891""
","
","""event"",""trial"",""time""
""focus"",""0"",""1""
","""event"",""trial"",""time""
""fullscreenenter"",""1"",""1891""
","
","","","","","","462","<p> If you choose the best park for each piece of equipment, the kids there will usually be happy. </p>","","0","instructions","","","","","","","","","","","","","",""
"learning-instructions","17","159735","0.0-8.0-0.0-0.9","1424","1","2","""event"",""trial"",""time""
""focus"",""0"",""1""
""fullscreenenter"",""1"",""1891""
","
","""event"",""trial"",""time""
""focus"",""0"",""1""
","""event"",""trial"",""time""
""fullscreenenter"",""1"",""1891""
","
","","","","","","1471","<p> However, even if you choose the best park for the equipment, the kids may sometimes be sad. </p>","","0","instructions","","","","","","","","","","","","","",""
"learning-instructions","18","168895","0.0-8.0-0.0-0.10","1424","1","2","""event"",""trial"",""time""
""focus"",""0"",""1""
""fullscreenenter"",""1"",""1891""
","
","""event"",""trial"",""time""
""focus"",""0"",""1""
","""event"",""trial"",""time""
""fullscreenenter"",""1"",""1891""
","
","","","","","","1911","<p> Similarly, even if you choose the <i>wrong</i> park for the equipment, the kids may still be happy sometimes.","","0","instructions","","","","","","","","","","","","","",""
"learning-instructions","19","174492","0.0-8.0-0.0-0.11","1424","1","2","""event"",""trial"",""time""
""focus"",""0"",""1""
""fullscreenenter"",""1"",""1891""
","
","""event"",""trial"",""time""
""focus"",""0"",""1""
","""event"",""trial"",""time""
""fullscreenenter"",""1"",""1891""
","
","","","","","","526","<p> For example, the best park for this soccer ball is this one.<div style='float: center;'><img src='images/i1.png' width = '500' height = '268'></img>","","0","instructions","","","","","","","","","","","","","",""
"learning-instructions","20","180521","0.0-8.0-0.0-0.12","1424","1","2","""event"",""trial"",""time""
""focus"",""0"",""1""
""fullscreenenter"",""1"",""1891""
","
","""event"",""trial"",""time""
""focus"",""0"",""1""
","""event"",""trial"",""time""
""fullscreenenter"",""1"",""1891""
","
","","","","","","725","<p> Let's see what happens if you choose this park for the soccer ball five times.","","0","instructions","","","","","","","","","","","","","",""
"learning-instructions","21","184019","0.0-8.0-0.0-0.13","1424","1","2","""event"",""trial"",""time""
""focus"",""0"",""1""
""fullscreenenter"",""1"",""1891""
","
","""event"",""trial"",""time""
""focus"",""0"",""1""
","""event"",""trial"",""time""
""fullscreenenter"",""1"",""1891""
","
","","","","","","1322","<p> The kids are happy.<div style='float: left;'><img src='images/i2.png' width = '640' height = '360'></img>","","0","instructions","","","","","","","","","","","","","",""
"learning-instructions","22","186616","0.0-8.0-0.0-0.14","1424","1","2","""event"",""trial"",""time""
""focus"",""0"",""1""
""fullscreenenter"",""1"",""1891""
","
","""event"",""trial"",""time""
""focus"",""0"",""1""
","""event"",""trial"",""time""
""fullscreenenter"",""1"",""1891""
","
","","","","","","428","<p> The kids are happy.<div style='float: left;'><img src='images/i3.png' width = '640' height = '360'></img>","","0","instructions","","","","","","","","","","","","","",""
"learning-instructions","23","189092","0.0-8.0-0.0-0.15","1424","1","2","""event"",""trial"",""time""
""focus"",""0"",""1""
""fullscreenenter"",""1"",""1891""
","
","""event"",""trial"",""time""
""focus"",""0"",""1""
","""event"",""trial"",""time""
""fullscreenenter"",""1"",""1891""
","
","","","","","","284","<p> The kids are happy.<div style='float: left;'><img src='images/i4.png' width = '640' height = '360'></img>","","0","instructions","","","","","","","","","","","","","",""
"learning-instructions","24","191599","0.0-8.0-0.0-0.16","1424","1","2","""event"",""trial"",""time""
""focus"",""0"",""1""
""fullscreenenter"",""1"",""1891""
","
","""event"",""trial"",""time""
""focus"",""0"",""1""
","""event"",""trial"",""time""
""fullscreenenter"",""1"",""1891""
","
","","","","","","291","<p> The kids are sad.<div style='float: left;'><img src='images/i5.png' width = '640' height = '360'></img>","","0","instructions","","","","","","","","","","","","","",""
"learning-instructions","25","194073","0.0-8.0-0.0-0.17","1424","1","2","""event"",""trial"",""time""
""focus"",""0"",""1""
""fullscreenenter"",""1"",""1891""
","
","""event"",""trial"",""time""
""focus"",""0"",""1""
","""event"",""trial"",""time""
""fullscreenenter"",""1"",""1891""
","
","","","","","","292","<p> The kids are happy.<div style='float: left;'><img src='images/i6.png' width = '640' height = '360'></img>","","0","instructions","","","","","","","","","","","","","",""
"learning-instructions","26","201935","0.0-8.0-0.0-0.18","1424","1","2","""event"",""trial"",""time""
""focus"",""0"",""1""
""fullscreenenter"",""1"",""1891""
","
","""event"",""trial"",""time""
""focus"",""0"",""1""
","""event"",""trial"",""time""
""fullscreenenter"",""1"",""1891""
","
","","","","","","585","<p> As you can see, selecting that park for the soccer ball made the kids happy most of the time, but not all the time.","","0","instructions","","","","","","","","","","","","","",""
"learning-instructions","27","208611","0.0-8.0-0.0-0.19","1424","1","2","""event"",""trial"",""time""
""focus"",""0"",""1""
""fullscreenenter"",""1"",""1891""
","
","""event"",""trial"",""time""
""focus"",""0"",""1""
","""event"",""trial"",""time""
""fullscreenenter"",""1"",""1891""
","
","","","","","","650","<p> Now let's see what happens if you choose a DIFFERENT park for the soccer ball 5 times.","","0","instructions","","","","","","","","","","","","","",""
"learning-instructions","28","211103","0.0-8.0-0.0-0.20","1424","1","2","""event"",""trial"",""time""
""focus"",""0"",""1""
""fullscreenenter"",""1"",""1891""
","
","""event"",""trial"",""time""
""focus"",""0"",""1""
","""event"",""trial"",""time""
""fullscreenenter"",""1"",""1891""
","
","","","","","","281","<p> The kids are sad.<div style='float: left;'><img src='images/i7.png' width = '640' height = '360'></img>","","0","instructions","","","","","","","","","","","","","",""
"learning-instructions","29","213623","0.0-8.0-0.0-0.21","1424","1","2","""event"",""trial"",""time""
""focus"",""0"",""1""
""fullscreenenter"",""1"",""1891""
","
","""event"",""trial"",""time""
""focus"",""0"",""1""
","""event"",""trial"",""time""
""fullscreenenter"",""1"",""1891""
","
","","","","","","290","<p> The kids are sad.<div style='float: left;'><img src='images/i8.png' width = '640' height = '360'></img>","","0","instructions","","","","","","","","","","","","","",""
"learning-instructions","30","216047","0.0-8.0-0.0-0.22","1424","1","2","""event"",""trial"",""time""
""focus"",""0"",""1""
""fullscreenenter"",""1"",""1891""
","
","""event"",""trial"",""time""
""focus"",""0"",""1""
","""event"",""trial"",""time""
""fullscreenenter"",""1"",""1891""
","
","","","","","","254","<p> The kids are happy.<div style='float: left;'><img src='images/i9.png' width = '640' height = '360'></img>","","0","instructions","","","","","","","","","","","","","",""
"learning-instructions","31","218568","0.0-8.0-0.0-0.23","1424","1","2","""event"",""trial"",""time""
""focus"",""0"",""1""
""fullscreenenter"",""1"",""1891""
","
","""event"",""trial"",""time""
""focus"",""0"",""1""
","""event"",""trial"",""time""
""fullscreenenter"",""1"",""1891""
","
","","","","","","305","<p> The kids are sad.<div style='float: left;'><img src='images/i10.png' width = '640' height = '360'></img>","","0","instructions","","","","","","","","","","","","","",""
"learning-instructions","32","221062","0.0-8.0-0.0-0.24","1424","1","2","""event"",""trial"",""time""
""focus"",""0"",""1""
""fullscreenenter"",""1"",""1891""
","
","""event"",""trial"",""time""
""focus"",""0"",""1""
","""event"",""trial"",""time""
""fullscreenenter"",""1"",""1891""
","
","","","","","","279","<p> The kids are sad.<div style='float: left;'><img src='images/i11.png' width = '640' height = '360'></img>","","0","instructions","","","","","","","","","","","","","",""
"learning-instructions","33","229575","0.0-8.0-0.0-0.25","1424","1","2","""event"",""trial"",""time""
""focus"",""0"",""1""
""fullscreenenter"",""1"",""1891""
","
","""event"",""trial"",""time""
""focus"",""0"",""1""
","""event"",""trial"",""time""
""fullscreenenter"",""1"",""1891""
","
","","","","","","390","<p> As you can see, selecting the wrong park for the soccer ball made the kids sad most of the time, but not all the time.","","0","instructions","","","","","","","","","","","","","",""
"learning-instructions","34","240951","0.0-8.0-0.0-0.26","1424","1","2","""event"",""trial"",""time""
""focus"",""0"",""1""
""fullscreenenter"",""1"",""1891""
","
","""event"",""trial"",""time""
""focus"",""0"",""1""
","""event"",""trial"",""time""
""fullscreenenter"",""1"",""1891""
","
","","","","","","2255","<p> The different pieces of equipment belong in different parks. You need to try to learn which is the best park for each piece of equipment.","","0","instructions","","","","","","","","","","","","","",""
"learning-instructions","35","258188","0.0-8.0-0.0-0.27","1424","1","2","""event"",""trial"",""time""
""focus"",""0"",""1""
""fullscreenenter"",""1"",""1891""
","
","""event"",""trial"",""time""
""focus"",""0"",""1""
","""event"",""trial"",""time""
""fullscreenenter"",""1"",""1891""
","
","","","","","","847","<p> Try to choose the best park for each piece of equipment, because you will <b> WIN </b> 1 point for each time you make the kids happy and <b>LOSE</b> 1 point for each time you make them sad. </p><p> Remember, if you make the best choice, you will win 1 point most of the time, but not all the time. </p>","","0","instructions","","","","","","","","","","","","","",""
"learning-instructions","36","263942","0.0-8.0-0.0-0.28","1424","1","2","""event"",""trial"",""time""
""focus"",""0"",""1""
""fullscreenenter"",""1"",""1891""
","
","""event"",""trial"",""time""
""focus"",""0"",""1""
","""event"",""trial"",""time""
""fullscreenenter"",""1"",""1891""
","
","","","","","","261","<p> This is just a practice round, but in the real game, your bonus payment will depend on your total number of points.","","0","instructions","","","","","","","","","","","","","",""
"learning-instructions","37","279898","0.0-8.0-0.0-0.29","1424","1","2","""event"",""trial"",""time""
""focus"",""0"",""1""
""fullscreenenter"",""1"",""1891""
","
","""event"",""trial"",""time""
""focus"",""0"",""1""
","""event"",""trial"",""time""
""fullscreenenter"",""1"",""1891""
","
","","","","","","5616","<p> The position where each park appears will change throughout the game. </p><p> The position where the park appears <i> does not </i> influence how likely the kids are to be happy or sad. </p>","","0","instructions","","","","","","","","","","","","","",""
"learning-instructions","38","294640","0.0-8.0-0.0-0.30","1424","1","2","""event"",""trial"",""time""
""focus"",""0"",""1""
""fullscreenenter"",""1"",""1891""
","
","""event"",""trial"",""time""
""focus"",""0"",""1""
","""event"",""trial"",""time""
""fullscreenenter"",""1"",""1891""
","
","","","","","","4124","<p> You will have 4 seconds to make each choice. Try to respond before time runs out! </p><p> You will lose 1 point each time you do not make a response. </p>","","0","instructions","","","","","","","","","","","","","",""
"learning-instructions","39","303057","0.0-8.0-0.0-0.31","1424","1","2","""event"",""trial"",""time""
""focus"",""0"",""1""
""fullscreenenter"",""1"",""1891""
","
","""event"",""trial"",""time""
""focus"",""0"",""1""
","""event"",""trial"",""time""
""fullscreenenter"",""1"",""1891""
","
","","","","","","1619","<p> Remember, you should use the 1, 2, and 3 keys to select the park for each piece of equipment. </p><br><div class=""choice-instructions-grid""> <div class=""choice-option""><img src=""images/park1.png"" class=""choice-option-img"" stage=""instructions"" position=""0"" ><div class=""choice-option-text""> Press ""1."" </div></div><div class=""choice-option""><img src=""images/park2.png"" class=""choice-option-img"" stage=""instructions"" position=""1"" ><div class=""choice-option-text""> Press ""2."" </div></div><div class=""choice-option""><img src=""images/park3.png"" class=""choice-option-img"" stage=""instructions"" position=""2"" ><div class=""choice-option-text""> Press ""3."" </div></div></div>","","0","instructions","","","","","","","","","","","","","",""
"html-button-response","40","304320","0.0-8.0-1.0","1424","1","2","""event"",""trial"",""time""
""focus"",""0"",""1""
""fullscreenenter"",""1"",""1891""
","
","""event"",""trial"",""time""
""focus"",""0"",""1""
","""event"",""trial"",""time""
""fullscreenenter"",""1"",""1891""
","
","","","","","","1152","<p> Ready to practice? </p>","0","","","","","","","","","","","","","","","",""
"html-keyboard-response","41","304936","0.0-8.0-2.0-0.0","1424","1","2","""event"",""trial"",""time""
""focus"",""0"",""1""
""fullscreenenter"",""1"",""1891""
","
","""event"",""trial"",""time""
""focus"",""0"",""1""
","""event"",""trial"",""time""
""fullscreenenter"",""1"",""1891""
","
","","","","","","null","<div style=""font-size:60px;"">+</div>","null","","fixation","","","","","","","","","","","","","",""
"learning-trial","42","308947","0.0-8.0-2.0-1.0","1424","1","2","""event"",""trial"",""time""
""focus"",""0"",""1""
""fullscreenenter"",""1"",""1891""
","
","""event"",""trial"",""time""
""focus"",""0"",""1""
","""event"",""trial"",""time""
""fullscreenenter"",""1"",""1891""
","
","","","","","","602","images/ball3.png","","","practice","images/park3.png","images/park2.png","images/park1.png","[2,1,0]","1","1","1","images/park3.png","-1","practice","","","",""
"html-keyboard-response","43","309460","0.0-8.0-2.0-0.1","1424","1","2","""event"",""trial"",""time""
""focus"",""0"",""1""
""fullscreenenter"",""1"",""1891""
","
","""event"",""trial"",""time""
""focus"",""0"",""1""
","""event"",""trial"",""time""
""fullscreenenter"",""1"",""1891""
","
","","","","","","null","<div style=""font-size:60px;"">+</div>","null","","fixation","","","","","","","","","","","","","",""
"learning-trial","44","313463","0.0-8.0-2.0-1.1","1424","1","2","""event"",""trial"",""time""
""focus"",""0"",""1""
""fullscreenenter"",""1"",""1891""
","
","""event"",""trial"",""time""
""focus"",""0"",""1""
","""event"",""trial"",""time""
""fullscreenenter"",""1"",""1891""
","
","","","","","","1340","images/racket1.png","","","practice","images/park2.png","images/park1.png","images/park3.png","[1,0,2]","0","1","2","images/park1.png","1","practice","","","",""
"html-keyboard-response","45","313970","0.0-8.0-2.0-0.2","1424","1","2","""event"",""trial"",""time""
""focus"",""0"",""1""
""fullscreenenter"",""1"",""1891""
","
","""event"",""trial"",""time""
""focus"",""0"",""1""
","""event"",""trial"",""time""
""fullscreenenter"",""1"",""1891""
","
","","","","","","null","<div style=""font-size:60px;"">+</div>","null","","fixation","","","","","","","","","","","","","",""
"learning-trial","46","317981","0.0-8.0-2.0-1.2","1424","1","2","""event"",""trial"",""time""
""focus"",""0"",""1""
""fullscreenenter"",""1"",""1891""
","
","""event"",""trial"",""time""
""focus"",""0"",""1""
","""event"",""trial"",""time""
""fullscreenenter"",""1"",""1891""
","
","","","","","","1899","images/ball1.png","","","practice","images/park2.png","images/park3.png","images/park1.png","[1,2,0]","1","0","1","images/park2.png","1","practice","","","",""
"html-keyboard-response","47","318494","0.0-8.0-2.0-0.3","1424","1","2","""event"",""trial"",""time""
""focus"",""0"",""1""
""fullscreenenter"",""1"",""1891""
","
","""event"",""trial"",""time""
""focus"",""0"",""1""
","""event"",""trial"",""time""
""fullscreenenter"",""1"",""1891""
","
","","","","","","null","<div style=""font-size:60px;"">+</div>","null","","fixation","","","","","","","","","","","","","",""
"learning-trial","48","322507","0.0-8.0-2.0-1.3","1424","1","2","""event"",""trial"",""time""
""focus"",""0"",""1""
""fullscreenenter"",""1"",""1891""
","
","""event"",""trial"",""time""
""focus"",""0"",""1""
","""event"",""trial"",""time""
""fullscreenenter"",""1"",""1891""
","
","","","","","","1575","images/racket4.png","","","practice","images/park3.png","images/park1.png","images/park2.png","[2,0,1]","2","0","3","images/park2.png","-1","practice","","","",""
"html-keyboard-response","49","323015","0.0-8.0-2.0-0.4","1424","1","2","""event"",""trial"",""time""
""focus"",""0"",""1""
""fullscreenenter"",""1"",""1891""
","
","""event"",""trial"",""time""
""focus"",""0"",""1""
","""event"",""trial"",""time""
""fullscreenenter"",""1"",""1891""
","
","","","","","","null","<div style=""font-size:60px;"">+</div>","null","","fixation","","","","","","","","","","","","","",""
"learning-trial","50","327022","0.0-8.0-2.0-1.4","1424","1","2","""event"",""trial"",""time""
""focus"",""0"",""1""
""fullscreenenter"",""1"",""1891""
","
","""event"",""trial"",""time""
""focus"",""0"",""1""
","""event"",""trial"",""time""
""fullscreenenter"",""1"",""1891""
","
","","","","","","1327","images/racket2.png","","","practice","images/park3.png","images/park1.png","images/park2.png","[2,0,1]","2","0","2","images/park1.png","-1","practice","","","",""
"html-keyboard-response","51","327525","0.0-8.0-2.0-0.5","1424","1","2","""event"",""trial"",""time""
""focus"",""0"",""1""
""fullscreenenter"",""1"",""1891""
","
","""event"",""trial"",""time""
""focus"",""0"",""1""
","""event"",""trial"",""time""
""fullscreenenter"",""1"",""1891""
","
","","","","","","null","<div style=""font-size:60px;"">+</div>","null","","fixation","","","","","","","","","","","","","",""
"learning-trial","52","331526","0.0-8.0-2.0-1.5","1424","1","2","""event"",""trial"",""time""
""focus"",""0"",""1""
""fullscreenenter"",""1"",""1891""
","
","""event"",""trial"",""time""
""focus"",""0"",""1""
","""event"",""trial"",""time""
""fullscreenenter"",""1"",""1891""
","
","","","","","","1272","images/ball1.png","","","practice","images/park1.png","images/park3.png","images/park2.png","[0,2,1]","1","2","3","images/park2.png","1","practice","","","",""
"html-keyboard-response","53","332034","0.0-8.0-2.0-0.6","1424","1","2","""event"",""trial"",""time""
""focus"",""0"",""1""
""fullscreenenter"",""1"",""1891""
","
","""event"",""trial"",""time""
""focus"",""0"",""1""
","""event"",""trial"",""time""
""fullscreenenter"",""1"",""1891""
","
","","","","","","null","<div style=""font-size:60px;"">+</div>","null","","fixation","","","","","","","","","","","","","",""
"learning-trial","54","336042","0.0-8.0-2.0-1.6","1424","1","2","""event"",""trial"",""time""
""focus"",""0"",""1""
""fullscreenenter"",""1"",""1891""
","
","""event"",""trial"",""time""
""focus"",""0"",""1""
","""event"",""trial"",""time""
""fullscreenenter"",""1"",""1891""
","
","","","","","","1128","images/racket2.png","","","practice","images/park1.png","images/park3.png","images/park2.png","[0,2,1]","2","1","1","images/park1.png","-1","practice","","","",""
"html-keyboard-response","55","336556","0.0-8.0-2.0-0.7","1424","1","2","""event"",""trial"",""time""
""focus"",""0"",""1""
""fullscreenenter"",""1"",""1891""
","
","""event"",""trial"",""time""
""focus"",""0"",""1""
","""event"",""trial"",""time""
""fullscreenenter"",""1"",""1891""
","
","","","","","","null","<div style=""font-size:60px;"">+</div>","null","","fixation","","","","","","","","","","","","","",""
"learning-trial","56","340563","0.0-8.0-2.0-1.7","1424","1","2","""event"",""trial"",""time""
""focus"",""0"",""1""
""fullscreenenter"",""1"",""1891""
","
","""event"",""trial"",""time""
""focus"",""0"",""1""
","""event"",""trial"",""time""
""fullscreenenter"",""1"",""1891""
","
","","","","","","1851","images/racket4.png","","","practice","images/park3.png","images/park2.png","images/park1.png","[2,1,0]","2","0","1","images/park3.png","1","practice","","","",""
"html-keyboard-response","57","341078","0.0-8.0-2.0-0.8","1424","1","2","""event"",""trial"",""time""
""focus"",""0"",""1""
""fullscreenenter"",""1"",""1891""
","
","""event"",""trial"",""time""
""focus"",""0"",""1""
","""event"",""trial"",""time""
""fullscreenenter"",""1"",""1891""
","
","","","","","","null","<div style=""font-size:60px;"">+</div>","null","","fixation","","","","","","","","","","","","","",""
"learning-trial","58","345082","0.0-8.0-2.0-1.8","1424","1","2","""event"",""trial"",""time""
""focus"",""0"",""1""
""fullscreenenter"",""1"",""1891""
","
","""event"",""trial"",""time""
""focus"",""0"",""1""
","""event"",""trial"",""time""
""fullscreenenter"",""1"",""1891""
","
","","","","","","1295","images/ball4.png","","","practice","images/park1.png","images/park2.png","images/park3.png","[0,1,2]","0","0","3","images/park3.png","-1","practice","","","",""
"html-keyboard-response","59","345597","0.0-8.0-2.0-0.9","1424","1","2","""event"",""trial"",""time""
""focus"",""0"",""1""
""fullscreenenter"",""1"",""1891""
","
","""event"",""trial"",""time""
""focus"",""0"",""1""
","""event"",""trial"",""time""
""fullscreenenter"",""1"",""1891""
","
","","","","","","null","<div style=""font-size:60px;"">+</div>","null","","fixation","","","","","","","","","","","","","",""
"learning-trial","60","349606","0.0-8.0-2.0-1.9","1424","1","2","""event"",""trial"",""time""
""focus"",""0"",""1""
""fullscreenenter"",""1"",""1891""
","
","""event"",""trial"",""time""
""focus"",""0"",""1""
","""event"",""trial"",""time""
""fullscreenenter"",""1"",""1891""
","
","","","","","","1817","images/ball3.png","","","practice","images/park2.png","images/park3.png","images/park1.png","[1,2,0]","1","0","1","images/park2.png","1","practice","","","",""
"html-keyboard-response","61","350114","0.0-8.0-2.0-0.10","1424","1","2","""event"",""trial"",""time""
""focus"",""0"",""1""
""fullscreenenter"",""1"",""1891""
","
","""event"",""trial"",""time""
""focus"",""0"",""1""
","""event"",""trial"",""time""
""fullscreenenter"",""1"",""1891""
","
","","","","","","null","<div style=""font-size:60px;"">+</div>","null","","fixation","","","","","","","","","","","","","",""
"learning-trial","62","354120","0.0-8.0-2.0-1.10","1424","1","2","""event"",""trial"",""time""
""focus"",""0"",""1""
""fullscreenenter"",""1"",""1891""
","
","""event"",""trial"",""time""
""focus"",""0"",""1""
","""event"",""trial"",""time""
""fullscreenenter"",""1"",""1891""
","
","","","","","","2286","images/ball4.png","","","practice","images/park2.png","images/park1.png","images/park3.png","[1,0,2]","0","1","1","images/park2.png","-1","practice","","","",""
"html-keyboard-response","63","354626","0.0-8.0-2.0-0.11","1424","1","2","""event"",""trial"",""time""
""focus"",""0"",""1""
""fullscreenenter"",""1"",""1891""
","
","""event"",""trial"",""time""
""focus"",""0"",""1""
","""event"",""trial"",""time""
""fullscreenenter"",""1"",""1891""
","
","","","","","","null","<div style=""font-size:60px;"">+</div>","null","","fixation","","","","","","","","","","","","","",""
"learning-trial","64","358642","0.0-8.0-2.0-1.11","1424","1","2","""event"",""trial"",""time""
""focus"",""0"",""1""
""fullscreenenter"",""1"",""1891""
","
","""event"",""trial"",""time""
""focus"",""0"",""1""
","""event"",""trial"",""time""
""fullscreenenter"",""1"",""1891""
","
","","","","","","2200","images/racket1.png","","","practice","images/park2.png","images/park1.png","images/park3.png","[1,0,2]","0","1","3","images/park3.png","-1","practice","","","",""
"html-button-response","65","360362","0.0-8.0-3.0","1424","1","2","""event"",""trial"",""time""
""focus"",""0"",""1""
""fullscreenenter"",""1"",""1891""
","
","""event"",""trial"",""time""
""focus"",""0"",""1""
","""event"",""trial"",""time""
""fullscreenenter"",""1"",""1891""
","
","","","","","","1719","<p> You earned -2 points in the practice round! </p>","0","","break","","","","","","","","","","","","","",""
"learning-instructions","66","368879","0.0-8.0-4.0-0.0","1424","1","2","""event"",""trial"",""time""
""focus"",""0"",""1""
""fullscreenenter"",""1"",""1891""
","
","""event"",""trial"",""time""
""focus"",""0"",""1""
","""event"",""trial"",""time""
""fullscreenenter"",""1"",""1891""
","
","","","","","","840","<p> It's almost time to start the real game. </p><p> Before you start, we're going to ask you a few questions about how the game works. </p>","","0","instructions","","","","","","","","","","","","","",""
"preload","67","370211","0.0-8.0-5.0","1424","1","2","""event"",""trial"",""time""
""focus"",""0"",""1""
""fullscreenenter"",""1"",""1891""
","
","""event"",""trial"",""time""
""focus"",""0"",""1""
","""event"",""trial"",""time""
""fullscreenenter"",""1"",""1891""
","
","true","false","[]","[]","[]","","","","","","","","","","","","","","","","","","",""
"comp-q","68","377174","0.0-8.0-6.0-0.0","1424","1","2","""event"",""trial"",""time""
""focus"",""0"",""1""
""fullscreenenter"",""1"",""1891""
","
","""event"",""trial"",""time""
""focus"",""0"",""1""
","""event"",""trial"",""time""
""fullscreenenter"",""1"",""1891""
","
","","","","","","1494","<p> <b> True or False? </b> </p><p> If you choose the best option, you will always earn 1 point. </p>","","1","comp_question","","","","","","","","","","","true","","",""
"comp-q","69","383474","0.0-8.0-6.0-1.0","1424","1","2","""event"",""trial"",""time""
""focus"",""0"",""1""
""fullscreenenter"",""1"",""1891""
","
","""event"",""trial"",""time""
""focus"",""0"",""1""
","""event"",""trial"",""time""
""fullscreenenter"",""1"",""1891""
","
","","","","","","624","<p><b> That's right! </b> Sometimes you will lose 1 point, even if you choose the best option. </p>","","0","comp_answer","","","","","","","","","","","","","",""
"comp-q","70","388864","0.0-8.0-6.0-0.1","1424","1","2","""event"",""trial"",""time""
""focus"",""0"",""1""
""fullscreenenter"",""1"",""1891""
","
","""event"",""trial"",""time""
""focus"",""0"",""1""
","""event"",""trial"",""time""
""fullscreenenter"",""1"",""1891""
","
","","","","","","742","<p> <b> True or False? </b> </p><p> You will have as much time as you want to make each choice. </p>","","0","comp_question","","","","","","","","","","","false","","",""
"comp-q","71","394395","0.0-8.0-6.0-1.1","1424","1","2","""event"",""trial"",""time""
""focus"",""0"",""1""
""fullscreenenter"",""1"",""1891""
","
","""event"",""trial"",""time""
""focus"",""0"",""1""
","""event"",""trial"",""time""
""fullscreenenter"",""1"",""1891""
","
","","","","","","423","<p> <b>Incorrect.</b> You will only have 4 seconds to make each choice.</p>","","0","comp_answer","","","","","","","","","","","","","",""
"comp-q","72","400909","0.0-8.0-6.0-0.2","1424","1","2","""event"",""trial"",""time""
""focus"",""0"",""1""
""fullscreenenter"",""1"",""1891""
","
","""event"",""trial"",""time""
""focus"",""0"",""1""
","""event"",""trial"",""time""
""fullscreenenter"",""1"",""1891""
","
","","","","","","345","<p> <b> True or False? </b> </p><p> You should use the '1', '2', and '3' keys to make your choices. </p>","","0","comp_question","","","","","","","","","","","true","","",""
"comp-q","73","406682","0.0-8.0-6.0-1.2","1424","1","2","""event"",""trial"",""time""
""focus"",""0"",""1""
""fullscreenenter"",""1"",""1891""
","
","""event"",""trial"",""time""
""focus"",""0"",""1""
","""event"",""trial"",""time""
""fullscreenenter"",""1"",""1891""
","
","","","","","","928","<p> <b> That's right! </b> You should use the '1', '2', and '3' keys to make each choice. </p>","","0","comp_answer","","","","","","","","","","","","","",""
"learning-instructions","74","423292","0.0-8.0-7.0-0.0","1424","1","2","""event"",""trial"",""time""
""focus"",""0"",""1""
""fullscreenenter"",""1"",""1891""
","
","""event"",""trial"",""time""
""focus"",""0"",""1""
","""event"",""trial"",""time""
""fullscreenenter"",""1"",""1891""
","
","","","","","","8105","<p> It's now time to start the real game. </p>Do your best, because the points you earn in the next rounds will influence your bonus payment. </p>","","0","instructions","","","","","","","","","","","","","",""
"preload","75","424994","0.0-9.0-0.0","1424","1","2","""event"",""trial"",""time""
""focus"",""0"",""1""
""fullscreenenter"",""1"",""1891""
","
","""event"",""trial"",""time""
""focus"",""0"",""1""
","""event"",""trial"",""time""
""fullscreenenter"",""1"",""1891""
","
","true","false","[]","[]","[]","","","","","","","","","","","","","","","","","","",""
"learning-instructions","76","435776","0.0-9.0-1.0-0.0","1424","1","2","""event"",""trial"",""time""
""focus"",""0"",""1""
""fullscreenenter"",""1"",""1891""
","
","""event"",""trial"",""time""
""focus"",""0"",""1""
","""event"",""trial"",""time""
""fullscreenenter"",""1"",""1891""
","
","","","","","","2988","<p> Your goal in this round is to deliver furniture to three different buildings. </p><p> You will need to deliver many pieces of furniture. </p></div>","","0","instructions","","","","","","","","","","","","","",""
"learning-instructions","77","443560","0.0-9.0-1.0-0.1","1424","1","2","""event"",""trial"",""time""
""focus"",""0"",""1""
""fullscreenenter"",""1"",""1891""
","
","""event"",""trial"",""time""
""focus"",""0"",""1""
","""event"",""trial"",""time""
""fullscreenenter"",""1"",""1891""
","
","","","","","","339","<p> On each turn, you will see a picture of a furniture item and three different buildings.  </p><p> You need to select the building that you want to deliver the furniture to.  </p>","","0","instructions","","","","","","","","","","","","","",""
"learning-instructions","78","452149","0.0-9.0-1.0-0.2","1424","1","2","""event"",""trial"",""time""
""focus"",""0"",""1""
""fullscreenenter"",""1"",""1891""
","
","""event"",""trial"",""time""
""focus"",""0"",""1""
","""event"",""trial"",""time""
""fullscreenenter"",""1"",""1891""
","
","","","","","","286","<p> You can select the building on the left by pressing 1, the building in the middle by pressing 2, and the building on the right by pressing 3.  </p><br><div class=""choice-instructions-grid""> <div class=""choice-option""><img src=""images/furniture_choice1.png"" class=""choice-option-img"" stage=""instructions"" position=""0"" ><div class=""choice-option-text""> Press ""1."" </div></div><div class=""choice-option""><img src=""images/furniture_choice2.png"" class=""choice-option-img"" stage=""instructions"" position=""1"" ><div class=""choice-option-text""> Press ""2."" </div></div><div class=""choice-option""><img src=""images/furniture_choice3.png"" class=""choice-option-img"" stage=""instructions"" position=""2"" ><div class=""choice-option-text""> Press ""3."" </div></div></div>","","0","instructions","","","","","","","","","","","","","",""
"learning-instructions","79","458464","0.0-9.0-1.0-0.3","1424","1","2","""event"",""trial"",""time""
""focus"",""0"",""1""
""fullscreenenter"",""1"",""1891""
","
","""event"",""trial"",""time""
""focus"",""0"",""1""
","""event"",""trial"",""time""
""fullscreenenter"",""1"",""1891""
","
","","","","","","281","<p> If the furniture belongs in the building you chose, the building owner will likely be very happy! </p><div style='float: center;'><img src='images/check.png' width = '200' height = '200'></img>","","0","instructions","","","","","","","","","","","","","",""
"learning-instructions","80","465269","0.0-9.0-1.0-0.4","1424","1","2","""event"",""trial"",""time""
""focus"",""0"",""1""
""fullscreenenter"",""1"",""1891""
","
","""event"",""trial"",""time""
""focus"",""0"",""1""
","""event"",""trial"",""time""
""fullscreenenter"",""1"",""1891""
","
","","","","","","804","<p> But, if the furniture does not belong in the building you chose, the owner will likely be mad. </p><div style='float: center;'><img src='images/x.png' width = '200' height = '200'></img>","","0","instructions","","","","","","","","","","","","","",""
"learning-instructions","81","476794","0.0-9.0-1.0-0.5","1424","1","2","""event"",""trial"",""time""
""focus"",""0"",""1""
""fullscreenenter"",""1"",""1891""
","
","""event"",""trial"",""time""
""focus"",""0"",""1""
","""event"",""trial"",""time""
""fullscreenenter"",""1"",""1891""
","
","","","","","","308","<p> Importantly, each piece of furniture belongs in one of the three buildings. </p><p> If you choose the correct building for the piece of furniture, you will be more likely to make the building owner happy! </p>","","0","instructions","","","","","","","","","","","","","",""
"learning-instructions","82","488673","0.0-9.0-1.0-0.6","1424","1","2","""event"",""trial"",""time""
""focus"",""0"",""1""
""fullscreenenter"",""1"",""1891""
","
","""event"",""trial"",""time""
""focus"",""0"",""1""
","""event"",""trial"",""time""
""fullscreenenter"",""1"",""1891""
","
","","","","","","365","<p> However, even if you choose the best building for the furniture, the owner may still be mad sometimes. </p><p> Similarly, even if you choose the <i>wrong</i> building, the owner may still be happy.","","0","instructions","","","","","","","","","","","","","",""
"learning-instructions","83","502228","0.0-9.0-1.0-0.7","1424","1","2","""event"",""trial"",""time""
""focus"",""0"",""1""
""fullscreenenter"",""1"",""1891""
","
","""event"",""trial"",""time""
""focus"",""0"",""1""
","""event"",""trial"",""time""
""fullscreenenter"",""1"",""1891""
","
","","","","","","298","<p> Try to choose the best building for each piece of furniture, because you will <b> WIN </b> 1 point each time a building owner is happy and <b>LOSE</b>  1 point each time a building owner is mad. </p><p> Your bonus payment will depend on your total number of points.","","0","instructions","","","","","","","","","","","","","",""
"learning-instructions","84","511569","0.0-9.0-1.0-0.8","1424","1","2","""event"",""trial"",""time""
""focus"",""0"",""1""
""fullscreenenter"",""1"",""1891""
","
","""event"",""trial"",""time""
""focus"",""0"",""1""
","""event"",""trial"",""time""
""fullscreenenter"",""1"",""1891""
","
","","","","","","367","<p> The position of each building will change throughout the round. </p><p> The building's position <i> does not </i> influence how likely the owner is to be happy or mad. </p>","","0","instructions","","","","","","","","","","","","","",""
"learning-instructions","85","521201","0.0-9.0-1.0-0.9","1424","1","2","""event"",""trial"",""time""
""focus"",""0"",""1""
""fullscreenenter"",""1"",""1891""
","
","""event"",""trial"",""time""
""focus"",""0"",""1""
","""event"",""trial"",""time""
""fullscreenenter"",""1"",""1891""
","
","","","","","","327","<p> You will have 4 seconds to make each choice. Try to respond before time runs out! </p><p> You will lose 1 point each time you do not make a response. </p>","","0","instructions","","","","","","","","","","","","","",""
"html-keyboard-response","86","521812","0.0-9.0-2.0-0.0","1424","1","2","""event"",""trial"",""time""
""focus"",""0"",""1""
""fullscreenenter"",""1"",""1891""
","
","""event"",""trial"",""time""
""focus"",""0"",""1""
","""event"",""trial"",""time""
""fullscreenenter"",""1"",""1891""
","
","","","","","","null","<div style=""font-size:60px;"">+</div>","null","","fixation","","","","","","","","","","","","","",""
"learning-trial","87","525818","0.0-9.0-2.0-1.0","1424","1","2","""event"",""trial"",""time""
""focus"",""0"",""1""
""fullscreenenter"",""1"",""1891""
","
","""event"",""trial"",""time""
""focus"",""0"",""1""
","""event"",""trial"",""time""
""fullscreenenter"",""1"",""1891""
","
","","","","","","959","images/table4.png","","","learning","images/furniture_choice3.png","images/furniture_choice1.png","images/furniture_choice2.png","[2,0,1]","1","2","1","images/furniture_choice3.png","-1","furniture","","table","1","0"
"html-keyboard-response","88","526319","0.0-9.0-2.0-0.1","1424","1","2","""event"",""trial"",""time""
""focus"",""0"",""1""
""fullscreenenter"",""1"",""1891""
","
","""event"",""trial"",""time""
""focus"",""0"",""1""
","""event"",""trial"",""time""
""fullscreenenter"",""1"",""1891""
","
","","","","","","null","<div style=""font-size:60px;"">+</div>","null","","fixation","","","","","","","","","","","","","",""
"learning-trial","89","530322","0.0-9.0-2.0-1.1","1424","1","2","""event"",""trial"",""time""
""focus"",""0"",""1""
""fullscreenenter"",""1"",""1891""
","
","""event"",""trial"",""time""
""focus"",""0"",""1""
","""event"",""trial"",""time""
""fullscreenenter"",""1"",""1891""
","
","","","","","","719","images/sofa2.png","","","learning","images/furniture_choice2.png","images/furniture_choice1.png","images/furniture_choice3.png","[1,0,2]","2","2","3","images/furniture_choice3.png","1","furniture","","sofa","1","0"
"html-keyboard-response","90","530838","0.0-9.0-2.0-0.2","1424","1","2","""event"",""trial"",""time""
""focus"",""0"",""1""
""fullscreenenter"",""1"",""1891""
","
","""event"",""trial"",""time""
""focus"",""0"",""1""
","""event"",""trial"",""time""
""fullscreenenter"",""1"",""1891""
","
","","","","","","null","<div style=""font-size:60px;"">+</div>","null","","fixation","","","","","","","","","","","","","",""
"learning-trial","91","534852","0.0-9.0-2.0-1.2","1424","1","2","""event"",""trial"",""time""
""focus"",""0"",""1""
""fullscreenenter"",""1"",""1891""
","
","""event"",""trial"",""time""
""focus"",""0"",""1""
","""event"",""trial"",""time""
""fullscreenenter"",""1"",""1891""
","
","","","","","","1635","images/table5.png","","","learning","images/furniture_choice2.png","images/furniture_choice3.png","images/furniture_choice1.png","[1,2,0]","1","0","2","images/furniture_choice3.png","-1","furniture","","table","1","0"
"html-keyboard-response","92","535364","0.0-9.0-2.0-0.3","1424","1","2","""event"",""trial"",""time""
""focus"",""0"",""1""
""fullscreenenter"",""1"",""1891""
","
","""event"",""trial"",""time""
""focus"",""0"",""1""
","""event"",""trial"",""time""
""fullscreenenter"",""1"",""1891""
","
","","","","","","null","<div style=""font-size:60px;"">+</div>","null","","fixation","","","","","","","","","","","","","",""
"learning-trial","93","539380","0.0-9.0-2.0-1.3","1424","1","2","""event"",""trial"",""time""
""focus"",""0"",""1""
""fullscreenenter"",""1"",""1891""
","
","""event"",""trial"",""time""
""focus"",""0"",""1""
","""event"",""trial"",""time""
""fullscreenenter"",""1"",""1891""
","
","","","","","","1005","images/sofa5.png","","","learning","images/furniture_choice1.png","images/furniture_choice2.png","images/furniture_choice3.png","[0,1,2]","2","2","3","images/furniture_choice3.png","1","furniture","","sofa","1","0"
"html-keyboard-response","94","539888","0.0-9.0-2.0-0.4","1424","1","2","""event"",""trial"",""time""
""focus"",""0"",""1""
""fullscreenenter"",""1"",""1891""
","
","""event"",""trial"",""time""
""focus"",""0"",""1""
","""event"",""trial"",""time""
""fullscreenenter"",""1"",""1891""
","
","","","","","","null","<div style=""font-size:60px;"">+</div>","null","","fixation","","","","","","","","","","","","","",""
"learning-trial","95","543897","0.0-9.0-2.0-1.4","1424","1","2","""event"",""trial"",""time""
""focus"",""0"",""1""
""fullscreenenter"",""1"",""1891""
","
","""event"",""trial"",""time""
""focus"",""0"",""1""
","""event"",""trial"",""time""
""fullscreenenter"",""1"",""1891""
","
","","","","","","1689","images/table1.png","","","learning","images/furniture_choice1.png","images/furniture_choice3.png","images/furniture_choice2.png","[0,2,1]","1","2","3","images/furniture_choice2.png","1","furniture","","table","1","0"
"html-keyboard-response","96","544412","0.0-9.0-2.0-0.5","1424","1","2","""event"",""trial"",""time""
""focus"",""0"",""1""
""fullscreenenter"",""1"",""1891""
","
","""event"",""trial"",""time""
""focus"",""0"",""1""
","""event"",""trial"",""time""
""fullscreenenter"",""1"",""1891""
","
","","","","","","null","<div style=""font-size:60px;"">+</div>","null","","fixation","","","","","","","","","","","","","",""
"learning-trial","97","548424","0.0-9.0-2.0-1.5","1424","1","2","""event"",""trial"",""time""
""focus"",""0"",""1""
""fullscreenenter"",""1"",""1891""
","
","""event"",""trial"",""time""
""focus"",""0"",""1""
","""event"",""trial"",""time""
""fullscreenenter"",""1"",""1891""
","
","","","","","","1536","images/chair5.png","","","learning","images/furniture_choice2.png","images/furniture_choice1.png","images/furniture_choice3.png","[1,0,2]","0","1","2","images/furniture_choice1.png","-1","furniture","","chair","1","0"
"html-keyboard-response","98","548927","0.0-9.0-2.0-0.6","1424","1","2","""event"",""trial"",""time""
""focus"",""0"",""1""
""fullscreenenter"",""1"",""1891""
","
","""event"",""trial"",""time""
""focus"",""0"",""1""
","""event"",""trial"",""time""
""fullscreenenter"",""1"",""1891""
","
","","","","","","null","<div style=""font-size:60px;"">+</div>","null","","fixation","","","","","","","","","","","","","",""
"learning-trial","99","552937","0.0-9.0-2.0-1.6","1424","1","2","""event"",""trial"",""time""
""focus"",""0"",""1""
""fullscreenenter"",""1"",""1891""
","
","""event"",""trial"",""time""
""focus"",""0"",""1""
","""event"",""trial"",""time""
""fullscreenenter"",""1"",""1891""
","
","","","","","","2305","images/sofa5.png","","","learning","images/furniture_choice3.png","images/furniture_choice2.png","images/furniture_choice1.png","[2,1,0]","2","0","2","images/furniture_choice2.png","-1","furniture","","sofa","1","0"
"html-keyboard-response","100","553453","0.0-9.0-2.0-0.7","1424","1","2","""event"",""trial"",""time""
""focus"",""0"",""1""
""fullscreenenter"",""1"",""1891""
","
","""event"",""trial"",""time""
""focus"",""0"",""1""
","""event"",""trial"",""time""
""fullscreenenter"",""1"",""1891""
","
","","","","","","null","<div style=""font-size:60px;"">+</div>","null","","fixation","","","","","","","","","","","","","",""
"learning-trial","101","557457","0.0-9.0-2.0-1.7","1424","1","2","""event"",""trial"",""time""
""focus"",""0"",""1""
""fullscreenenter"",""1"",""1891""
","
","""event"",""trial"",""time""
""focus"",""0"",""1""
","""event"",""trial"",""time""
""fullscreenenter"",""1"",""1891""
","
","","","","","","1495","images/chair4.png","","","learning","images/furniture_choice1.png","images/furniture_choice2.png","images/furniture_choice3.png","[0,1,2]","0","0","1","images/furniture_choice1.png","1","furniture","","chair","1","0"
"html-keyboard-response","102","557963","0.0-9.0-2.0-0.8","1424","1","2","""event"",""trial"",""time""
""focus"",""0"",""1""
""fullscreenenter"",""1"",""1891""
","
","""event"",""trial"",""time""
""focus"",""0"",""1""
","""event"",""trial"",""time""
""fullscreenenter"",""1"",""1891""
","
","","","","","","null","<div style=""font-size:60px;"">+</div>","null","","fixation","","","","","","","","","","","","","",""
"learning-trial","103","561966","0.0-9.0-2.0-1.8","1424","1","2","""event"",""trial"",""time""
""focus"",""0"",""1""
""fullscreenenter"",""1"",""1891""
","
","""event"",""trial"",""time""
""focus"",""0"",""1""
","""event"",""trial"",""time""
""fullscreenenter"",""1"",""1891""
","
","","","","","","2332","images/chair5.png","","","learning","images/furniture_choice3.png","images/furniture_choice1.png","images/furniture_choice2.png","[2,0,1]","0","1","2","images/furniture_choice1.png","1","furniture","","chair","1","0"
"html-keyboard-response","104","562480","0.0-9.0-2.0-0.9","1424","1","2","""event"",""trial"",""time""
""focus"",""0"",""1""
""fullscreenenter"",""1"",""1891""
","
","""event"",""trial"",""time""
""focus"",""0"",""1""
","""event"",""trial"",""time""
""fullscreenenter"",""1"",""1891""
","
","","","","","","null","<div style=""font-size:60px;"">+</div>","null","","fixation","","","","","","","","","","","","","",""
"learning-trial","105","566495","0.0-9.0-2.0-1.9","1424","1","2","""event"",""trial"",""time""
""focus"",""0"",""1""
""fullscreenenter"",""1"",""1891""
","
","""event"",""trial"",""time""
""focus"",""0"",""1""
","""event"",""trial"",""time""
""fullscreenenter"",""1"",""1891""
","
","","","","","","2507","images/chair4.png","","","learning","images/furniture_choice1.png","images/furniture_choice2.png","images/furniture_choice3.png","[0,1,2]","0","0","1","images/furniture_choice1.png","1","furniture","","chair","1","0"
"html-keyboard-response","106","567000","0.0-9.0-2.0-0.10","1424","1","2","""event"",""trial"",""time""
""focus"",""0"",""1""
""fullscreenenter"",""1"",""1891""
","
","""event"",""trial"",""time""
""focus"",""0"",""1""
","""event"",""trial"",""time""
""fullscreenenter"",""1"",""1891""
","
","","","","","","null","<div style=""font-size:60px;"">+</div>","null","","fixation","","","","","","","","","","","","","",""
"learning-trial","107","571009","0.0-9.0-2.0-1.10","1424","1","2","""event"",""trial"",""time""
""focus"",""0"",""1""
""fullscreenenter"",""1"",""1891""
","
","""event"",""trial"",""time""
""focus"",""0"",""1""
","""event"",""trial"",""time""
""fullscreenenter"",""1"",""1891""
","
","","","","","","1111","images/sofa2.png","","","learning","images/furniture_choice2.png","images/furniture_choice3.png","images/furniture_choice1.png","[1,2,0]","2","1","3","images/furniture_choice1.png","-1","furniture","","sofa","1","0"
"html-keyboard-response","108","571510","0.0-9.0-2.0-0.11","1424","1","2","""event"",""trial"",""time""
""focus"",""0"",""1""
""fullscreenenter"",""1"",""1891""
","
","""event"",""trial"",""time""
""focus"",""0"",""1""
","""event"",""trial"",""time""
""fullscreenenter"",""1"",""1891""
","
","","","","","","null","<div style=""font-size:60px;"">+</div>","null","","fixation","","","","","","","","","","","","","",""
"learning-trial","109","575520","0.0-9.0-2.0-1.11","1424","1","2","""event"",""trial"",""time""
""focus"",""0"",""1""
""fullscreenenter"",""1"",""1891""
","
","""event"",""trial"",""time""
""focus"",""0"",""1""
","""event"",""trial"",""time""
""fullscreenenter"",""1"",""1891""
","
","","","","","","1171","images/table1.png","","","learning","images/furniture_choice2.png","images/furniture_choice3.png","images/furniture_choice1.png","[1,2,0]","1","0","2","images/furniture_choice3.png","-1","furniture","","table","1","0"
"html-keyboard-response","110","576025","0.0-9.0-2.0-0.12","1424","1","2","""event"",""trial"",""time""
""focus"",""0"",""1""
""fullscreenenter"",""1"",""1891""
","
","""event"",""trial"",""time""
""focus"",""0"",""1""
","""event"",""trial"",""time""
""fullscreenenter"",""1"",""1891""
","
","","","","","","null","<div style=""font-size:60px;"">+</div>","null","","fixation","","","","","","","","","","","","","",""
"learning-trial","111","580036","0.0-9.0-2.0-1.12","1424","1","2","""event"",""trial"",""time""
""focus"",""0"",""1""
""fullscreenenter"",""1"",""1891""
","
","""event"",""trial"",""time""
""focus"",""0"",""1""
","""event"",""trial"",""time""
""fullscreenenter"",""1"",""1891""
","
","","","","","","2201","images/sofa2.png","","","learning","images/furniture_choice3.png","images/furniture_choice2.png","images/furniture_choice1.png","[2,1,0]","2","0","3","images/furniture_choice1.png","-1","furniture","","sofa","1","0"
"html-keyboard-response","112","580550","0.0-9.0-2.0-0.13","1424","1","2","""event"",""trial"",""time""
""focus"",""0"",""1""
""fullscreenenter"",""1"",""1891""
","
","""event"",""trial"",""time""
""focus"",""0"",""1""
","""event"",""trial"",""time""
""fullscreenenter"",""1"",""1891""
","
","","","","","","null","<div style=""font-size:60px;"">+</div>","null","","fixation","","","","","","","","","","","","","",""
"learning-trial","113","584561","0.0-9.0-2.0-1.13","1424","1","2","""event"",""trial"",""time""
""focus"",""0"",""1""
""fullscreenenter"",""1"",""1891""
","
","""event"",""trial"",""time""
""focus"",""0"",""1""
","""event"",""trial"",""time""
""fullscreenenter"",""1"",""1891""
","
","","","","","","2144","images/table1.png","","","learning","images/furniture_choice2.png","images/furniture_choice3.png","images/furniture_choice1.png","[1,2,0]","1","0","1","images/furniture_choice2.png","1","furniture","","table","1","0"
"html-keyboard-response","114","585063","0.0-9.0-2.0-0.14","1424","1","2","""event"",""trial"",""time""
""focus"",""0"",""1""
""fullscreenenter"",""1"",""1891""
","
","""event"",""trial"",""time""
""focus"",""0"",""1""
","""event"",""trial"",""time""
""fullscreenenter"",""1"",""1891""
","
","","","","","","null","<div style=""font-size:60px;"">+</div>","null","","fixation","","","","","","","","","","","","","",""
"learning-trial","115","589071","0.0-9.0-2.0-1.14","1424","1","2","""event"",""trial"",""time""
""focus"",""0"",""1""
""fullscreenenter"",""1"",""1891""
","
","""event"",""trial"",""time""
""focus"",""0"",""1""
","""event"",""trial"",""time""
""fullscreenenter"",""1"",""1891""
","
","","","","","","1000","images/table4.png","","","learning","images/furniture_choice1.png","images/furniture_choice2.png","images/furniture_choice3.png","[0,1,2]","1","1","2","images/furniture_choice2.png","1","furniture","","table","1","0"
"html-keyboard-response","116","589584","0.0-9.0-2.0-0.15","1424","1","2","""event"",""trial"",""time""
""focus"",""0"",""1""
""fullscreenenter"",""1"",""1891""
","
","""event"",""trial"",""time""
""focus"",""0"",""1""
","""event"",""trial"",""time""
""fullscreenenter"",""1"",""1891""
","
","","","","","","null","<div style=""font-size:60px;"">+</div>","null","","fixation","","","","","","","","","","","","","",""
"learning-trial","117","593585","0.0-9.0-2.0-1.15","1424","1","2","""event"",""trial"",""time""
""focus"",""0"",""1""
""fullscreenenter"",""1"",""1891""
","
","""event"",""trial"",""time""
""focus"",""0"",""1""
","""event"",""trial"",""time""
""fullscreenenter"",""1"",""1891""
","
","","","","","","927","images/table4.png","","","learning","images/furniture_choice3.png","images/furniture_choice1.png","images/furniture_choice2.png","[2,0,1]","1","2","3","images/furniture_choice2.png","1","furniture","","table","1","0"
"html-keyboard-response","118","594087","0.0-9.0-2.0-0.16","1424","1","2","""event"",""trial"",""time""
""focus"",""0"",""1""
""fullscreenenter"",""1"",""1891""
","
","""event"",""trial"",""time""
""focus"",""0"",""1""
","""event"",""trial"",""time""
""fullscreenenter"",""1"",""1891""
","
","","","","","","null","<div style=""font-size:60px;"">+</div>","null","","fixation","","","","","","","","","","","","","",""
"learning-trial","119","598095","0.0-9.0-2.0-1.16","1424","1","2","""event"",""trial"",""time""
""focus"",""0"",""1""
""fullscreenenter"",""1"",""1891""
","
","""event"",""trial"",""time""
""focus"",""0"",""1""
","""event"",""trial"",""time""
""fullscreenenter"",""1"",""1891""
","
","","","","","","792","images/table5.png","","","learning","images/furniture_choice3.png","images/furniture_choice2.png","images/furniture_choice1.png","[2,1,0]","1","1","2","images/furniture_choice2.png","1","furniture","","table","1","0"
"html-keyboard-response","120","598601","0.0-9.0-2.0-0.17","1424","1","2","""event"",""trial"",""time""
""focus"",""0"",""1""
""fullscreenenter"",""1"",""1891""
","
","""event"",""trial"",""time""
""focus"",""0"",""1""
","""event"",""trial"",""time""
""fullscreenenter"",""1"",""1891""
","
","","","","","","null","<div style=""font-size:60px;"">+</div>","null","","fixation","","","","","","","","","","","","","",""
"learning-trial","121","602603","0.0-9.0-2.0-1.17","1424","1","2","""event"",""trial"",""time""
""focus"",""0"",""1""
""fullscreenenter"",""1"",""1891""
","
","""event"",""trial"",""time""
""focus"",""0"",""1""
","""event"",""trial"",""time""
""fullscreenenter"",""1"",""1891""
","
","","","","","","1156","images/sofa3.png","","","learning","images/furniture_choice3.png","images/furniture_choice1.png","images/furniture_choice2.png","[2,0,1]","2","0","1","images/furniture_choice3.png","1","furniture","","sofa","1","0"
"html-keyboard-response","122","603104","0.0-9.0-2.0-0.18","1424","1","2","""event"",""trial"",""time""
""focus"",""0"",""1""
""fullscreenenter"",""1"",""1891""
","
","""event"",""trial"",""time""
""focus"",""0"",""1""
","""event"",""trial"",""time""
""fullscreenenter"",""1"",""1891""
","
","","","","","","null","<div style=""font-size:60px;"">+</div>","null","","fixation","","","","","","","","","","","","","",""
"learning-trial","123","607106","0.0-9.0-2.0-1.18","1424","1","2","""event"",""trial"",""time""
""focus"",""0"",""1""
""fullscreenenter"",""1"",""1891""
","
","""event"",""trial"",""time""
""focus"",""0"",""1""
","""event"",""trial"",""time""
""fullscreenenter"",""1"",""1891""
","
","","","","","","2140","images/chair4.png","","","learning","images/furniture_choice2.png","images/furniture_choice3.png","images/furniture_choice1.png","[1,2,0]","0","2","1","images/furniture_choice2.png","-1","furniture","","chair","1","0"
"html-keyboard-response","124","607620","0.0-9.0-2.0-0.19","1424","1","2","""event"",""trial"",""time""
""focus"",""0"",""1""
""fullscreenenter"",""1"",""1891""
","
","""event"",""trial"",""time""
""focus"",""0"",""1""
","""event"",""trial"",""time""
""fullscreenenter"",""1"",""1891""
","
","","","","","","null","<div style=""font-size:60px;"">+</div>","null","","fixation","","","","","","","","","","","","","",""
"learning-trial","125","611624","0.0-9.0-2.0-1.19","1424","1","2","""event"",""trial"",""time""
""focus"",""0"",""1""
""fullscreenenter"",""1"",""1891""
","
","""event"",""trial"",""time""
""focus"",""0"",""1""
","""event"",""trial"",""time""
""fullscreenenter"",""1"",""1891""
","
","","","","","","2036","images/sofa3.png","","","learning","images/furniture_choice2.png","images/furniture_choice1.png","images/furniture_choice3.png","[1,0,2]","2","2","2","images/furniture_choice1.png","-1","furniture","","sofa","1","0"
"html-keyboard-response","126","612128","0.0-9.0-2.0-0.20","1424","1","2","""event"",""trial"",""time""
""focus"",""0"",""1""
""fullscreenenter"",""1"",""1891""
","
","""event"",""trial"",""time""
""focus"",""0"",""1""
","""event"",""trial"",""time""
""fullscreenenter"",""1"",""1891""
","
","","","","","","null","<div style=""font-size:60px;"">+</div>","null","","fixation","","","","","","","","","","","","","",""
"learning-trial","127","616133","0.0-9.0-2.0-1.20","1424","1","2","""event"",""trial"",""time""
""focus"",""0"",""1""
""fullscreenenter"",""1"",""1891""
","
","""event"",""trial"",""time""
""focus"",""0"",""1""
","""event"",""trial"",""time""
""fullscreenenter"",""1"",""1891""
","
","","","","","","1566","images/sofa3.png","","","learning","images/furniture_choice3.png","images/furniture_choice1.png","images/furniture_choice2.png","[2,0,1]","2","0","3","images/furniture_choice2.png","-1","furniture","","sofa","1","0"
"html-keyboard-response","128","616637","0.0-9.0-2.0-0.21","1424","1","2","""event"",""trial"",""time""
""focus"",""0"",""1""
""fullscreenenter"",""1"",""1891""
","
","""event"",""trial"",""time""
""focus"",""0"",""1""
","""event"",""trial"",""time""
""fullscreenenter"",""1"",""1891""
","
","","","","","","null","<div style=""font-size:60px;"">+</div>","null","","fixation","","","","","","","","","","","","","",""
"learning-trial","129","620651","0.0-9.0-2.0-1.21","1424","1","2","""event"",""trial"",""time""
""focus"",""0"",""1""
""fullscreenenter"",""1"",""1891""
","
","""event"",""trial"",""time""
""focus"",""0"",""1""
","""event"",""trial"",""time""
""fullscreenenter"",""1"",""1891""
","
","","","","","","2143","images/chair4.png","","","learning","images/furniture_choice1.png","images/furniture_choice3.png","images/furniture_choice2.png","[0,2,1]","0","0","1","images/furniture_choice1.png","-1","furniture","","chair","1","0"
"html-keyboard-response","130","621155","0.0-9.0-2.0-0.22","1424","1","2","""event"",""trial"",""time""
""focus"",""0"",""1""
""fullscreenenter"",""1"",""1891""
","
","""event"",""trial"",""time""
""focus"",""0"",""1""
","""event"",""trial"",""time""
""fullscreenenter"",""1"",""1891""
","
","","","","","","null","<div style=""font-size:60px;"">+</div>","null","","fixation","","","","","","","","","","","","","",""
"learning-trial","131","625157","0.0-9.0-2.0-1.22","1424","1","2","""event"",""trial"",""time""
""focus"",""0"",""1""
""fullscreenenter"",""1"",""1891""
","
","""event"",""trial"",""time""
""focus"",""0"",""1""
","""event"",""trial"",""time""
""fullscreenenter"",""1"",""1891""
","
","","","","","","1644","images/sofa3.png","","","learning","images/furniture_choice1.png","images/furniture_choice2.png","images/furniture_choice3.png","[0,1,2]","2","2","2","images/furniture_choice2.png","-1","furniture","","sofa","1","0"
"html-keyboard-response","132","625659","0.0-9.0-2.0-0.23","1424","1","2","""event"",""trial"",""time""
""focus"",""0"",""1""
""fullscreenenter"",""1"",""1891""
","
","""event"",""trial"",""time""
""focus"",""0"",""1""
","""event"",""trial"",""time""
""fullscreenenter"",""1"",""1891""
","
","","","","","","null","<div style=""font-size:60px;"">+</div>","null","","fixation","","","","","","","","","","","","","",""
"learning-trial","133","629674","0.0-9.0-2.0-1.23","1424","1","2","""event"",""trial"",""time""
""focus"",""0"",""1""
""fullscreenenter"",""1"",""1891""
","
","""event"",""trial"",""time""
""focus"",""0"",""1""
","""event"",""trial"",""time""
""fullscreenenter"",""1"",""1891""
","
","","","","","","2158","images/chair4.png","","","learning","images/furniture_choice1.png","images/furniture_choice2.png","images/furniture_choice3.png","[0,1,2]","0","0","1","images/furniture_choice1.png","-1","furniture","","chair","1","0"
"html-keyboard-response","134","630189","0.0-9.0-2.0-0.24","1424","1","2","""event"",""trial"",""time""
""focus"",""0"",""1""
""fullscreenenter"",""1"",""1891""
","
","""event"",""trial"",""time""
""focus"",""0"",""1""
","""event"",""trial"",""time""
""fullscreenenter"",""1"",""1891""
","
","","","","","","null","<div style=""font-size:60px;"">+</div>","null","","fixation","","","","","","","","","","","","","",""
"learning-trial","135","634202","0.0-9.0-2.0-1.24","1424","1","2","""event"",""trial"",""time""
""focus"",""0"",""1""
""fullscreenenter"",""1"",""1891""
","
","""event"",""trial"",""time""
""focus"",""0"",""1""
","""event"",""trial"",""time""
""fullscreenenter"",""1"",""1891""
","
","","","","","","2799","images/chair2.png","","","learning","images/furniture_choice1.png","images/furniture_choice2.png","images/furniture_choice3.png","[0,1,2]","0","0","3","images/furniture_choice3.png","-1","furniture","","chair","1","0"
"html-keyboard-response","136","634706","0.0-9.0-2.0-0.25","1424","1","2","""event"",""trial"",""time""
""focus"",""0"",""1""
""fullscreenenter"",""1"",""1891""
","
","""event"",""trial"",""time""
""focus"",""0"",""1""
","""event"",""trial"",""time""
""fullscreenenter"",""1"",""1891""
","
","","","","","","null","<div style=""font-size:60px;"">+</div>","null","","fixation","","","","","","","","","","","","","",""
"learning-trial","137","638709","0.0-9.0-2.0-1.25","1424","1","2","""event"",""trial"",""time""
""focus"",""0"",""1""
""fullscreenenter"",""1"",""1891""
","
","""event"",""trial"",""time""
""focus"",""0"",""1""
","""event"",""trial"",""time""
""fullscreenenter"",""1"",""1891""
","
","","","","","","1275","images/table4.png","","","learning","images/furniture_choice1.png","images/furniture_choice2.png","images/furniture_choice3.png","[0,1,2]","1","1","2","images/furniture_choice2.png","1","furniture","","table","1","0"
"html-keyboard-response","138","639223","0.0-9.0-2.0-0.26","1424","1","2","""event"",""trial"",""time""
""focus"",""0"",""1""
""fullscreenenter"",""1"",""1891""
","
","""event"",""trial"",""time""
""focus"",""0"",""1""
","""event"",""trial"",""time""
""fullscreenenter"",""1"",""1891""
","
","","","","","","null","<div style=""font-size:60px;"">+</div>","null","","fixation","","","","","","","","","","","","","",""
"learning-trial","139","643223","0.0-9.0-2.0-1.26","1424","1","2","""event"",""trial"",""time""
""focus"",""0"",""1""
""fullscreenenter"",""1"",""1891""
","
","""event"",""trial"",""time""
""focus"",""0"",""1""
","""event"",""trial"",""time""
""fullscreenenter"",""1"",""1891""
","
","","","","","","1263","images/chair5.png","","","learning","images/furniture_choice1.png","images/furniture_choice3.png","images/furniture_choice2.png","[0,2,1]","0","0","3","images/furniture_choice2.png","-1","furniture","","chair","1","0"
"html-keyboard-response","140","643735","0.0-9.0-2.0-0.27","1424","1","2","""event"",""trial"",""time""
""focus"",""0"",""1""
""fullscreenenter"",""1"",""1891""
","
","""event"",""trial"",""time""
""focus"",""0"",""1""
","""event"",""trial"",""time""
""fullscreenenter"",""1"",""1891""
","
","","","","","","null","<div style=""font-size:60px;"">+</div>","null","","fixation","","","","","","","","","","","","","",""
"learning-trial","141","647738","0.0-9.0-2.0-1.27","1424","1","2","""event"",""trial"",""time""
""focus"",""0"",""1""
""fullscreenenter"",""1"",""1891""
","
","""event"",""trial"",""time""
""focus"",""0"",""1""
","""event"",""trial"",""time""
""fullscreenenter"",""1"",""1891""
","
","","","","","","789","images/chair5.png","","","learning","images/furniture_choice3.png","images/furniture_choice1.png","images/furniture_choice2.png","[2,0,1]","0","1","1","images/furniture_choice3.png","-1","furniture","","chair","1","0"
"html-keyboard-response","142","648239","0.0-9.0-2.0-0.28","1424","1","2","""event"",""trial"",""time""
""focus"",""0"",""1""
""fullscreenenter"",""1"",""1891""
","
","""event"",""trial"",""time""
""focus"",""0"",""1""
","""event"",""trial"",""time""
""fullscreenenter"",""1"",""1891""
","
","","","","","","null","<div style=""font-size:60px;"">+</div>","null","","fixation","","","","","","","","","","","","","",""
"learning-trial","143","652247","0.0-9.0-2.0-1.28","1424","1","2","""event"",""trial"",""time""
""focus"",""0"",""1""
""fullscreenenter"",""1"",""1891""
","
","""event"",""trial"",""time""
""focus"",""0"",""1""
","""event"",""trial"",""time""
""fullscreenenter"",""1"",""1891""
","
","","","","","","890","images/table5.png","","","learning","images/furniture_choice1.png","images/furniture_choice2.png","images/furniture_choice3.png","[0,1,2]","1","1","2","images/furniture_choice2.png","1","furniture","","table","1","0"
"html-keyboard-response","144","652753","0.0-9.0-2.0-0.29","1424","1","2","""event"",""trial"",""time""
""focus"",""0"",""1""
""fullscreenenter"",""1"",""1891""
","
","""event"",""trial"",""time""
""focus"",""0"",""1""
","""event"",""trial"",""time""
""fullscreenenter"",""1"",""1891""
","
","","","","","","null","<div style=""font-size:60px;"">+</div>","null","","fixation","","","","","","","","","","","","","",""
"learning-trial","145","656756","0.0-9.0-2.0-1.29","1424","1","2","""event"",""trial"",""time""
""focus"",""0"",""1""
""fullscreenenter"",""1"",""1891""
","
","""event"",""trial"",""time""
""focus"",""0"",""1""
","""event"",""trial"",""time""
""fullscreenenter"",""1"",""1891""
","
","","","","","","1622","images/table5.png","","","learning","images/furniture_choice1.png","images/furniture_choice3.png","images/furniture_choice2.png","[0,2,1]","1","2","3","images/furniture_choice2.png","-1","furniture","","table","1","0"
"html-keyboard-response","146","657258","0.0-9.0-2.0-0.30","1424","1","2","""event"",""trial"",""time""
""focus"",""0"",""1""
""fullscreenenter"",""1"",""1891""
","
","""event"",""trial"",""time""
""focus"",""0"",""1""
","""event"",""trial"",""time""
""fullscreenenter"",""1"",""1891""
","
","","","","","","null","<div style=""font-size:60px;"">+</div>","null","","fixation","","","","","","","","","","","","","",""
"learning-trial","147","661267","0.0-9.0-2.0-1.30","1424","1","2","""event"",""trial"",""time""
""focus"",""0"",""1""
""fullscreenenter"",""1"",""1891""
","
","""event"",""trial"",""time""
""focus"",""0"",""1""
","""event"",""trial"",""time""
""fullscreenenter"",""1"",""1891""
","
","","","","","","873","images/table5.png","","","learning","images/furniture_choice2.png","images/furniture_choice1.png","images/furniture_choice3.png","[1,0,2]","1","0","1","images/furniture_choice2.png","1","furniture","","table","1","0"
"html-keyboard-response","148","661768","0.0-9.0-2.0-0.31","1424","1","2","""event"",""trial"",""time""
""focus"",""0"",""1""
""fullscreenenter"",""1"",""1891""
","
","""event"",""trial"",""time""
""focus"",""0"",""1""
","""event"",""trial"",""time""
""fullscreenenter"",""1"",""1891""
","
","","","","","","null","<div style=""font-size:60px;"">+</div>","null","","fixation","","","","","","","","","","","","","",""
"learning-trial","149","665769","0.0-9.0-2.0-1.31","1424","1","2","""event"",""trial"",""time""
""focus"",""0"",""1""
""fullscreenenter"",""1"",""1891""
","
","""event"",""trial"",""time""
""focus"",""0"",""1""
","""event"",""trial"",""time""
""fullscreenenter"",""1"",""1891""
","
","","","","","","738","images/table4.png","","","learning","images/furniture_choice2.png","images/furniture_choice1.png","images/furniture_choice3.png","[1,0,2]","1","0","1","images/furniture_choice2.png","1","furniture","","table","1","0"
"html-keyboard-response","150","666270","0.0-9.0-2.0-0.32","1424","1","2","""event"",""trial"",""time""
""focus"",""0"",""1""
""fullscreenenter"",""1"",""1891""
","
","""event"",""trial"",""time""
""focus"",""0"",""1""
","""event"",""trial"",""time""
""fullscreenenter"",""1"",""1891""
","
","","","","","","null","<div style=""font-size:60px;"">+</div>","null","","fixation","","","","","","","","","","","","","",""
"learning-trial","151","670282","0.0-9.0-2.0-1.32","1424","1","2","""event"",""trial"",""time""
""focus"",""0"",""1""
""fullscreenenter"",""1"",""1891""
","
","""event"",""trial"",""time""
""focus"",""0"",""1""
","""event"",""trial"",""time""
""fullscreenenter"",""1"",""1891""
","
","","","","","","1210","images/chair4.png","","","learning","images/furniture_choice3.png","images/furniture_choice1.png","images/furniture_choice2.png","[2,0,1]","0","1","2","images/furniture_choice1.png","1","furniture","","chair","1","0"
"html-keyboard-response","152","670785","0.0-9.0-2.0-0.33","1424","1","2","""event"",""trial"",""time""
""focus"",""0"",""1""
""fullscreenenter"",""1"",""1891""
","
","""event"",""trial"",""time""
""focus"",""0"",""1""
","""event"",""trial"",""time""
""fullscreenenter"",""1"",""1891""
","
","","","","","","null","<div style=""font-size:60px;"">+</div>","null","","fixation","","","","","","","","","","","","","",""
"learning-trial","153","674800","0.0-9.0-2.0-1.33","1424","1","2","""event"",""trial"",""time""
""focus"",""0"",""1""
""fullscreenenter"",""1"",""1891""
","
","""event"",""trial"",""time""
""focus"",""0"",""1""
","""event"",""trial"",""time""
""fullscreenenter"",""1"",""1891""
","
","","","","","","1407","images/table4.png","","","learning","images/furniture_choice3.png","images/furniture_choice1.png","images/furniture_choice2.png","[2,0,1]","1","2","3","images/furniture_choice2.png","1","furniture","","table","1","0"
"html-keyboard-response","154","675303","0.0-9.0-2.0-0.34","1424","1","2","""event"",""trial"",""time""
""focus"",""0"",""1""
""fullscreenenter"",""1"",""1891""
","
","""event"",""trial"",""time""
""focus"",""0"",""1""
","""event"",""trial"",""time""
""fullscreenenter"",""1"",""1891""
","
","","","","","","null","<div style=""font-size:60px;"">+</div>","null","","fixation","","","","","","","","","","","","","",""
"learning-trial","155","679311","0.0-9.0-2.0-1.34","1424","1","2","""event"",""trial"",""time""
""focus"",""0"",""1""
""fullscreenenter"",""1"",""1891""
","
","""event"",""trial"",""time""
""focus"",""0"",""1""
","""event"",""trial"",""time""
""fullscreenenter"",""1"",""1891""
","
","","","","","","931","images/chair5.png","","","learning","images/furniture_choice2.png","images/furniture_choice1.png","images/furniture_choice3.png","[1,0,2]","0","1","2","images/furniture_choice1.png","1","furniture","","chair","1","0"
"html-keyboard-response","156","679819","0.0-9.0-2.0-0.35","1424","1","2","""event"",""trial"",""time""
""focus"",""0"",""1""
""fullscreenenter"",""1"",""1891""
","
","""event"",""trial"",""time""
""focus"",""0"",""1""
","""event"",""trial"",""time""
""fullscreenenter"",""1"",""1891""
","
","","","","","","null","<div style=""font-size:60px;"">+</div>","null","","fixation","","","","","","","","","","","","","",""
"learning-trial","157","683827","0.0-9.0-2.0-1.35","1424","1","2","""event"",""trial"",""time""
""focus"",""0"",""1""
""fullscreenenter"",""1"",""1891""
","
","""event"",""trial"",""time""
""focus"",""0"",""1""
","""event"",""trial"",""time""
""fullscreenenter"",""1"",""1891""
","
","","","","","","1138","images/table1.png","","","learning","images/furniture_choice3.png","images/furniture_choice2.png","images/furniture_choice1.png","[2,1,0]","1","1","2","images/furniture_choice2.png","1","furniture","","table","1","0"
"html-keyboard-response","158","684333","0.0-9.0-2.0-0.36","1424","1","2","""event"",""trial"",""time""
""focus"",""0"",""1""
""fullscreenenter"",""1"",""1891""
","
","""event"",""trial"",""time""
""focus"",""0"",""1""
","""event"",""trial"",""time""
""fullscreenenter"",""1"",""1891""
","
","","","","","","null","<div style=""font-size:60px;"">+</div>","null","","fixation","","","","","","","","","","","","","",""
"learning-trial","159","688344","0.0-9.0-2.0-1.36","1424","1","2","""event"",""trial"",""time""
""focus"",""0"",""1""
""fullscreenenter"",""1"",""1891""
","
","""event"",""trial"",""time""
""focus"",""0"",""1""
","""event"",""trial"",""time""
""fullscreenenter"",""1"",""1891""
","
","","","","","","1127","images/chair2.png","","","learning","images/furniture_choice3.png","images/furniture_choice2.png","images/furniture_choice1.png","[2,1,0]","0","2","1","images/furniture_choice3.png","-1","furniture","","chair","1","0"
"html-keyboard-response","160","688858","0.0-9.0-2.0-0.37","1424","1","2","""event"",""trial"",""time""
""focus"",""0"",""1""
""fullscreenenter"",""1"",""1891""
","
","""event"",""trial"",""time""
""focus"",""0"",""1""
","""event"",""trial"",""time""
""fullscreenenter"",""1"",""1891""
","
","","","","","","null","<div style=""font-size:60px;"">+</div>","null","","fixation","","","","","","","","","","","","","",""
"learning-trial","161","692868","0.0-9.0-2.0-1.37","1424","1","2","""event"",""trial"",""time""
""focus"",""0"",""1""
""fullscreenenter"",""1"",""1891""
","
","""event"",""trial"",""time""
""focus"",""0"",""1""
","""event"",""trial"",""time""
""fullscreenenter"",""1"",""1891""
","
","","","","","","3184","images/chair2.png","","","learning","images/furniture_choice1.png","images/furniture_choice2.png","images/furniture_choice3.png","[0,1,2]","0","0","1","images/furniture_choice1.png","-1","furniture","","chair","1","0"
"html-keyboard-response","162","693370","0.0-9.0-2.0-0.38","1424","1","2","""event"",""trial"",""time""
""focus"",""0"",""1""
""fullscreenenter"",""1"",""1891""
","
","""event"",""trial"",""time""
""focus"",""0"",""1""
","""event"",""trial"",""time""
""fullscreenenter"",""1"",""1891""
","
","","","","","","null","<div style=""font-size:60px;"">+</div>","null","","fixation","","","","","","","","","","","","","",""
"learning-trial","163","697382","0.0-9.0-2.0-1.38","1424","1","2","""event"",""trial"",""time""
""focus"",""0"",""1""
""fullscreenenter"",""1"",""1891""
","
","""event"",""trial"",""time""
""focus"",""0"",""1""
","""event"",""trial"",""time""
""fullscreenenter"",""1"",""1891""
","
","","","","","","2218","images/chair2.png","","","learning","images/furniture_choice3.png","images/furniture_choice1.png","images/furniture_choice2.png","[2,0,1]","0","1","2","images/furniture_choice1.png","1","furniture","","chair","1","0"
"html-keyboard-response","164","697883","0.0-9.0-2.0-0.39","1424","1","2","""event"",""trial"",""time""
""focus"",""0"",""1""
""fullscreenenter"",""1"",""1891""
","
","""event"",""trial"",""time""
""focus"",""0"",""1""
","""event"",""trial"",""time""
""fullscreenenter"",""1"",""1891""
","
","","","","","","null","<div style=""font-size:60px;"">+</div>","null","","fixation","","","","","","","","","","","","","",""
"learning-trial","165","701888","0.0-9.0-2.0-1.39","1424","1","2","""event"",""trial"",""time""
""focus"",""0"",""1""
""fullscreenenter"",""1"",""1891""
","
","""event"",""trial"",""time""
""focus"",""0"",""1""
","""event"",""trial"",""time""
""fullscreenenter"",""1"",""1891""
","
","","","","","","2034","images/chair4.png","","","learning","images/furniture_choice3.png","images/furniture_choice2.png","images/furniture_choice1.png","[2,1,0]","0","2","3","images/furniture_choice1.png","1","furniture","","chair","1","0"
"html-keyboard-response","166","702402","0.0-9.0-2.0-0.40","1424","1","2","""event"",""trial"",""time""
""focus"",""0"",""1""
""fullscreenenter"",""1"",""1891""
","
","""event"",""trial"",""time""
""focus"",""0"",""1""
","""event"",""trial"",""time""
""fullscreenenter"",""1"",""1891""
","
","","","","","","null","<div style=""font-size:60px;"">+</div>","null","","fixation","","","","","","","","","","","","","",""
"learning-trial","167","706412","0.0-9.0-2.0-1.40","1424","1","2","""event"",""trial"",""time""
""focus"",""0"",""1""
""fullscreenenter"",""1"",""1891""
","
","""event"",""trial"",""time""
""focus"",""0"",""1""
","""event"",""trial"",""time""
""fullscreenenter"",""1"",""1891""
","
","","","","","","1722","images/table1.png","","","learning","images/furniture_choice2.png","images/furniture_choice1.png","images/furniture_choice3.png","[1,0,2]","1","0","1","images/furniture_choice2.png","-1","furniture","","table","1","0"
"html-keyboard-response","168","706927","0.0-9.0-2.0-0.41","1424","1","2","""event"",""trial"",""time""
""focus"",""0"",""1""
""fullscreenenter"",""1"",""1891""
","
","""event"",""trial"",""time""
""focus"",""0"",""1""
","""event"",""trial"",""time""
""fullscreenenter"",""1"",""1891""
","
","","","","","","null","<div style=""font-size:60px;"">+</div>","null","","fixation","","","","","","","","","","","","","",""
"learning-trial","169","710928","0.0-9.0-2.0-1.41","1424","1","2","""event"",""trial"",""time""
""focus"",""0"",""1""
""fullscreenenter"",""1"",""1891""
","
","""event"",""trial"",""time""
""focus"",""0"",""1""
","""event"",""trial"",""time""
""fullscreenenter"",""1"",""1891""
","
","","","","","","1664","images/chair5.png","","","learning","images/furniture_choice3.png","images/furniture_choice2.png","images/furniture_choice1.png","[2,1,0]","0","2","3","images/furniture_choice1.png","1","furniture","","chair","1","0"
"html-keyboard-response","170","711435","0.0-9.0-2.0-0.42","1424","1","2","""event"",""trial"",""time""
""focus"",""0"",""1""
""fullscreenenter"",""1"",""1891""
","
","""event"",""trial"",""time""
""focus"",""0"",""1""
","""event"",""trial"",""time""
""fullscreenenter"",""1"",""1891""
","
","","","","","","null","<div style=""font-size:60px;"">+</div>","null","","fixation","","","","","","","","","","","","","",""
"learning-trial","171","715440","0.0-9.0-2.0-1.42","1424","1","2","""event"",""trial"",""time""
""focus"",""0"",""1""
""fullscreenenter"",""1"",""1891""
","
","""event"",""trial"",""time""
""focus"",""0"",""1""
","""event"",""trial"",""time""
""fullscreenenter"",""1"",""1891""
","
","","","","","","2107","images/chair2.png","","","learning","images/furniture_choice2.png","images/furniture_choice1.png","images/furniture_choice3.png","[1,0,2]","0","1","2","images/furniture_choice1.png","1","furniture","","chair","1","0"
"html-keyboard-response","172","715942","0.0-9.0-2.0-0.43","1424","1","2","""event"",""trial"",""time""
""focus"",""0"",""1""
""fullscreenenter"",""1"",""1891""
","
","""event"",""trial"",""time""
""focus"",""0"",""1""
","""event"",""trial"",""time""
""fullscreenenter"",""1"",""1891""
","
","","","","","","null","<div style=""font-size:60px;"">+</div>","null","","fixation","","","","","","","","","","","","","",""
"learning-trial","173","719958","0.0-9.0-2.0-1.43","1424","1","2","""event"",""trial"",""time""
""focus"",""0"",""1""
""fullscreenenter"",""1"",""1891""
","
","""event"",""trial"",""time""
""focus"",""0"",""1""
","""event"",""trial"",""time""
""fullscreenenter"",""1"",""1891""
","
","","","","","","635","images/chair5.png","","","learning","images/furniture_choice2.png","images/furniture_choice1.png","images/furniture_choice3.png","[1,0,2]","0","1","2","images/furniture_choice1.png","1","furniture","","chair","1","0"
"html-keyboard-response","174","720473","0.0-9.0-2.0-0.44","1424","1","2","""event"",""trial"",""time""
""focus"",""0"",""1""
""fullscreenenter"",""1"",""1891""
","
","""event"",""trial"",""time""
""focus"",""0"",""1""
","""event"",""trial"",""time""
""fullscreenenter"",""1"",""1891""
","
","","","","","","null","<div style=""font-size:60px;"">+</div>","null","","fixation","","","","","","","","","","","","","",""
"learning-trial","175","724489","0.0-9.0-2.0-1.44","1424","1","2","""event"",""trial"",""time""
""focus"",""0"",""1""
""fullscreenenter"",""1"",""1891""
","
","""event"",""trial"",""time""
""focus"",""0"",""1""
","""event"",""trial"",""time""
""fullscreenenter"",""1"",""1891""
","
","","","","","","741","images/table1.png","","","learning","images/furniture_choice3.png","images/furniture_choice1.png","images/furniture_choice2.png","[2,0,1]","1","2","3","images/furniture_choice2.png","1","furniture","","table","1","0"
"html-keyboard-response","176","725001","0.0-9.0-2.0-0.45","1424","1","2","""event"",""trial"",""time""
""focus"",""0"",""1""
""fullscreenenter"",""1"",""1891""
","
","""event"",""trial"",""time""
""focus"",""0"",""1""
","""event"",""trial"",""time""
""fullscreenenter"",""1"",""1891""
","
","","","","","","null","<div style=""font-size:60px;"">+</div>","null","","fixation","","","","","","","","","","","","","",""
"learning-trial","177","729005","0.0-9.0-2.0-1.45","1424","1","2","""event"",""trial"",""time""
""focus"",""0"",""1""
""fullscreenenter"",""1"",""1891""
","
","""event"",""trial"",""time""
""focus"",""0"",""1""
","""event"",""trial"",""time""
""fullscreenenter"",""1"",""1891""
","
","","","","","","1009","images/sofa2.png","","","learning","images/furniture_choice1.png","images/furniture_choice3.png","images/furniture_choice2.png","[0,2,1]","2","1","2","images/furniture_choice3.png","1","furniture","","sofa","1","0"
"html-keyboard-response","178","729512","0.0-9.0-2.0-0.46","1424","1","2","""event"",""trial"",""time""
""focus"",""0"",""1""
""fullscreenenter"",""1"",""1891""
","
","""event"",""trial"",""time""
""focus"",""0"",""1""
","""event"",""trial"",""time""
""fullscreenenter"",""1"",""1891""
","
","","","","","","null","<div style=""font-size:60px;"">+</div>","null","","fixation","","","","","","","","","","","","","",""
"learning-trial","179","733523","0.0-9.0-2.0-1.46","1424","1","2","""event"",""trial"",""time""
""focus"",""0"",""1""
""fullscreenenter"",""1"",""1891""
","
","""event"",""trial"",""time""
""focus"",""0"",""1""
","""event"",""trial"",""time""
""fullscreenenter"",""1"",""1891""
","
","","","","","","1080","images/table5.png","","","learning","images/furniture_choice3.png","images/furniture_choice2.png","images/furniture_choice1.png","[2,1,0]","1","1","2","images/furniture_choice2.png","1","furniture","","table","1","0"
"html-keyboard-response","180","734038","0.0-9.0-2.0-0.47","1424","1","2","""event"",""trial"",""time""
""focus"",""0"",""1""
""fullscreenenter"",""1"",""1891""
","
","""event"",""trial"",""time""
""focus"",""0"",""1""
","""event"",""trial"",""time""
""fullscreenenter"",""1"",""1891""
","
","","","","","","null","<div style=""font-size:60px;"">+</div>","null","","fixation","","","","","","","","","","","","","",""
"learning-trial","181","738041","0.0-9.0-2.0-1.47","1424","1","2","""event"",""trial"",""time""
""focus"",""0"",""1""
""fullscreenenter"",""1"",""1891""
","
","""event"",""trial"",""time""
""focus"",""0"",""1""
","""event"",""trial"",""time""
""fullscreenenter"",""1"",""1891""
","
","","","","","","1633","images/sofa3.png","","","learning","images/furniture_choice2.png","images/furniture_choice1.png","images/furniture_choice3.png","[1,0,2]","2","2","3","images/furniture_choice3.png","-1","furniture","","sofa","1","0"
"html-keyboard-response","182","738545","0.0-9.0-2.0-0.48","1424","1","2","""event"",""trial"",""time""
""focus"",""0"",""1""
""fullscreenenter"",""1"",""1891""
","
","""event"",""trial"",""time""
""focus"",""0"",""1""
","""event"",""trial"",""time""
""fullscreenenter"",""1"",""1891""
","
","","","","","","null","<div style=""font-size:60px;"">+</div>","null","","fixation","","","","","","","","","","","","","",""
"learning-trial","183","742557","0.0-9.0-2.0-1.48","1424","1","2","""event"",""trial"",""time""
""focus"",""0"",""1""
""fullscreenenter"",""1"",""1891""
","
","""event"",""trial"",""time""
""focus"",""0"",""1""
","""event"",""trial"",""time""
""fullscreenenter"",""1"",""1891""
","
","","","","","","803","images/table5.png","","","learning","images/furniture_choice2.png","images/furniture_choice3.png","images/furniture_choice1.png","[1,2,0]","1","0","1","images/furniture_choice2.png","1","furniture","","table","1","0"
"html-keyboard-response","184","743070","0.0-9.0-2.0-0.49","1424","1","2","""event"",""trial"",""time""
""focus"",""0"",""1""
""fullscreenenter"",""1"",""1891""
","
","""event"",""trial"",""time""
""focus"",""0"",""1""
","""event"",""trial"",""time""
""fullscreenenter"",""1"",""1891""
","
","","","","","","null","<div style=""font-size:60px;"">+</div>","null","","fixation","","","","","","","","","","","","","",""
"learning-trial","185","747073","0.0-9.0-2.0-1.49","1424","1","2","""event"",""trial"",""time""
""focus"",""0"",""1""
""fullscreenenter"",""1"",""1891""
","
","""event"",""trial"",""time""
""focus"",""0"",""1""
","""event"",""trial"",""time""
""fullscreenenter"",""1"",""1891""
","
","","","","","","764","images/sofa2.png","","","learning","images/furniture_choice2.png","images/furniture_choice1.png","images/furniture_choice3.png","[1,0,2]","2","2","3","images/furniture_choice3.png","1","furniture","","sofa","1","0"
"html-keyboard-response","186","747575","0.0-9.0-2.0-0.50","1424","1","2","""event"",""trial"",""time""
""focus"",""0"",""1""
""fullscreenenter"",""1"",""1891""
","
","""event"",""trial"",""time""
""focus"",""0"",""1""
","""event"",""trial"",""time""
""fullscreenenter"",""1"",""1891""
","
","","","","","","null","<div style=""font-size:60px;"">+</div>","null","","fixation","","","","","","","","","","","","","",""
"learning-trial","187","751588","0.0-9.0-2.0-1.50","1424","1","2","""event"",""trial"",""time""
""focus"",""0"",""1""
""fullscreenenter"",""1"",""1891""
","
","""event"",""trial"",""time""
""focus"",""0"",""1""
","""event"",""trial"",""time""
""fullscreenenter"",""1"",""1891""
","
","","","","","","2226","images/sofa5.png","","","learning","images/furniture_choice3.png","images/furniture_choice1.png","images/furniture_choice2.png","[2,0,1]","2","0","1","images/furniture_choice3.png","1","furniture","","sofa","1","0"
"html-keyboard-response","188","752101","0.0-9.0-2.0-0.51","1424","1","2","""event"",""trial"",""time""
""focus"",""0"",""1""
""fullscreenenter"",""1"",""1891""
","
","""event"",""trial"",""time""
""focus"",""0"",""1""
","""event"",""trial"",""time""
""fullscreenenter"",""1"",""1891""
","
","","","","","","null","<div style=""font-size:60px;"">+</div>","null","","fixation","","","","","","","","","","","","","",""
"learning-trial","189","756103","0.0-9.0-2.0-1.51","1424","1","2","""event"",""trial"",""time""
""focus"",""0"",""1""
""fullscreenenter"",""1"",""1891""
","
","""event"",""trial"",""time""
""focus"",""0"",""1""
","""event"",""trial"",""time""
""fullscreenenter"",""1"",""1891""
","
","","","","","","2171","images/table4.png","","","learning","images/furniture_choice2.png","images/furniture_choice1.png","images/furniture_choice3.png","[1,0,2]","1","0","1","images/furniture_choice2.png","1","furniture","","table","1","0"
"html-keyboard-response","190","756618","0.0-9.0-2.0-0.52","1424","1","2","""event"",""trial"",""time""
""focus"",""0"",""1""
""fullscreenenter"",""1"",""1891""
","
","""event"",""trial"",""time""
""focus"",""0"",""1""
","""event"",""trial"",""time""
""fullscreenenter"",""1"",""1891""
","
","","","","","","null","<div style=""font-size:60px;"">+</div>","null","","fixation","","","","","","","","","","","","","",""
"learning-trial","191","760622","0.0-9.0-2.0-1.52","1424","1","2","""event"",""trial"",""time""
""focus"",""0"",""1""
""fullscreenenter"",""1"",""1891""
","
","""event"",""trial"",""time""
""focus"",""0"",""1""
","""event"",""trial"",""time""
""fullscreenenter"",""1"",""1891""
","
","","","","","","1015","images/sofa5.png","","","learning","images/furniture_choice1.png","images/furniture_choice3.png","images/furniture_choice2.png","[0,2,1]","2","1","2","images/furniture_choice3.png","1","furniture","","sofa","1","0"
"html-keyboard-response","192","761137","0.0-9.0-2.0-0.53","1424","1","2","""event"",""trial"",""time""
""focus"",""0"",""1""
""fullscreenenter"",""1"",""1891""
","
","""event"",""trial"",""time""
""focus"",""0"",""1""
","""event"",""trial"",""time""
""fullscreenenter"",""1"",""1891""
","
","","","","","","null","<div style=""font-size:60px;"">+</div>","null","","fixation","","","","","","","","","","","","","",""
"learning-trial","193","765151","0.0-9.0-2.0-1.53","1424","1","2","""event"",""trial"",""time""
""focus"",""0"",""1""
""fullscreenenter"",""1"",""1891""
","
","""event"",""trial"",""time""
""focus"",""0"",""1""
","""event"",""trial"",""time""
""fullscreenenter"",""1"",""1891""
","
","","","","","","1161","images/table1.png","","","learning","images/furniture_choice1.png","images/furniture_choice2.png","images/furniture_choice3.png","[0,1,2]","1","1","2","images/furniture_choice2.png","1","furniture","","table","1","0"
"html-keyboard-response","194","765656","0.0-9.0-2.0-0.54","1424","1","2","""event"",""trial"",""time""
""focus"",""0"",""1""
""fullscreenenter"",""1"",""1891""
","
","""event"",""trial"",""time""
""focus"",""0"",""1""
","""event"",""trial"",""time""
""fullscreenenter"",""1"",""1891""
","
","","","","","","null","<div style=""font-size:60px;"">+</div>","null","","fixation","","","","","","","","","","","","","",""
"learning-trial","195","769668","0.0-9.0-2.0-1.54","1424","1","2","""event"",""trial"",""time""
""focus"",""0"",""1""
""fullscreenenter"",""1"",""1891""
","
","""event"",""trial"",""time""
""focus"",""0"",""1""
","""event"",""trial"",""time""
""fullscreenenter"",""1"",""1891""
","
","","","","","","985","images/sofa3.png","","","learning","images/furniture_choice3.png","images/furniture_choice1.png","images/furniture_choice2.png","[2,0,1]","2","0","1","images/furniture_choice3.png","1","furniture","","sofa","1","0"
"html-keyboard-response","196","770183","0.0-9.0-2.0-0.55","1424","1","2","""event"",""trial"",""time""
""focus"",""0"",""1""
""fullscreenenter"",""1"",""1891""
","
","""event"",""trial"",""time""
""focus"",""0"",""1""
","""event"",""trial"",""time""
""fullscreenenter"",""1"",""1891""
","
","","","","","","null","<div style=""font-size:60px;"">+</div>","null","","fixation","","","","","","","","","","","","","",""
"learning-trial","197","774188","0.0-9.0-2.0-1.55","1424","1","2","""event"",""trial"",""time""
""focus"",""0"",""1""
""fullscreenenter"",""1"",""1891""
","
","""event"",""trial"",""time""
""focus"",""0"",""1""
","""event"",""trial"",""time""
""fullscreenenter"",""1"",""1891""
","
","","","","","","1046","images/chair2.png","","","learning","images/furniture_choice2.png","images/furniture_choice3.png","images/furniture_choice1.png","[1,2,0]","0","2","3","images/furniture_choice1.png","1","furniture","","chair","1","0"
"html-keyboard-response","198","774688","0.0-9.0-2.0-0.56","1424","1","2","""event"",""trial"",""time""
""focus"",""0"",""1""
""fullscreenenter"",""1"",""1891""
","
","""event"",""trial"",""time""
""focus"",""0"",""1""
","""event"",""trial"",""time""
""fullscreenenter"",""1"",""1891""
","
","","","","","","null","<div style=""font-size:60px;"">+</div>","null","","fixation","","","","","","","","","","","","","",""
"learning-trial","199","778691","0.0-9.0-2.0-1.56","1424","1","2","""event"",""trial"",""time""
""focus"",""0"",""1""
""fullscreenenter"",""1"",""1891""
","
","""event"",""trial"",""time""
""focus"",""0"",""1""
","""event"",""trial"",""time""
""fullscreenenter"",""1"",""1891""
","
","","","","","","975","images/sofa5.png","","","learning","images/furniture_choice3.png","images/furniture_choice1.png","images/furniture_choice2.png","[2,0,1]","2","0","1","images/furniture_choice3.png","1","furniture","","sofa","1","0"
"html-keyboard-response","200","779196","0.0-9.0-2.0-0.57","1424","1","2","""event"",""trial"",""time""
""focus"",""0"",""1""
""fullscreenenter"",""1"",""1891""
","
","""event"",""trial"",""time""
""focus"",""0"",""1""
","""event"",""trial"",""time""
""fullscreenenter"",""1"",""1891""
","
","","","","","","null","<div style=""font-size:60px;"">+</div>","null","","fixation","","","","","","","","","","","","","",""
"learning-trial","201","783209","0.0-9.0-2.0-1.57","1424","1","2","""event"",""trial"",""time""
""focus"",""0"",""1""
""fullscreenenter"",""1"",""1891""
","
","""event"",""trial"",""time""
""focus"",""0"",""1""
","""event"",""trial"",""time""
""fullscreenenter"",""1"",""1891""
","
","","","","","","910","images/sofa3.png","","","learning","images/furniture_choice1.png","images/furniture_choice3.png","images/furniture_choice2.png","[0,2,1]","2","1","2","images/furniture_choice3.png","1","furniture","","sofa","1","0"
"html-keyboard-response","202","783714","0.0-9.0-2.0-0.58","1424","1","2","""event"",""trial"",""time""
""focus"",""0"",""1""
""fullscreenenter"",""1"",""1891""
","
