"trial_type","trial_index","time_elapsed","internal_node_id","subject_id","condition","task_version","interactions","blur_events","focus_events","fullscreenenter_events","fullscreenexit_events","success","timeout","failed_images","failed_audio","failed_video","rt","stimulus","response","button_pressed","task_part","left_choice","middle_choice","right_choice","choice_positions","correct_response","correct_position","key_press","option_selected","points","task_block","correct","stim_cat","block_condition","block_number"
"pavlovia","0","3","0.0-0.0","1521","1","2","""event"",""trial"",""time""
""fullscreenenter"",""1"",""3496""
","
","
","""event"",""trial"",""time""
""fullscreenenter"",""1"",""3496""
","
","","","","","","","","","","","","","","","","","","","","","","","",""
"fullscreen","1","4409","0.0-1.0","1521","1","2","""event"",""trial"",""time""
""fullscreenenter"",""1"",""3496""
","
","
","""event"",""trial"",""time""
""fullscreenenter"",""1"",""3496""
","
","true","","","","","","","","","","","","","","","","","","","","","","",""
"preload","2","11980","0.0-2.0","1521","1","2","""event"",""trial"",""time""
""fullscreenenter"",""1"",""3496""
","
","
","""event"",""trial"",""time""
""fullscreenenter"",""1"",""3496""
","
","true","false","[]","[]","[]","","","","","","","","","","","","","","","","","","",""
"audio-keyboard-response","3","20557","0.0-3.0","1521","1","2","""event"",""trial"",""time""
""fullscreenenter"",""1"",""3496""
","
","
","""event"",""trial"",""time""
""fullscreenenter"",""1"",""3496""
","
","","","","","","0","audio/beep_loop.wav"," ","","","","","","","","","","","","","","","",""
"audio-button-response","4","24760","0.0-4.0","1521","1","2","""event"",""trial"",""time""
""fullscreenenter"",""1"",""3496""
","
","
","""event"",""trial"",""time""
""fullscreenenter"",""1"",""3496""
","
","","","","","","4152","audio/shark.wav","0","","","","","","","","","","","","","","","",""
"audio-button-response","5","27759","0.0-5.0","1521","1","2","""event"",""trial"",""time""
""fullscreenenter"",""1"",""3496""
","
","
","""event"",""trial"",""time""
""fullscreenenter"",""1"",""3496""
","
","","","","","","1997","audio/turtle.wav","1","","","","","","","","","","","","","","","",""
"preload","6","34539","0.0-6.0","1521","1","2","""event"",""trial"",""time""
""fullscreenenter"",""1"",""3496""
","
","
","""event"",""trial"",""time""
""fullscreenenter"",""1"",""3496""
","
","true","false","[]","[]","[]","","","","","","","","","","","","","","","","","","",""
"html-keyboard-response","7","36938","0.0-7.0","1521","1","2","""event"",""trial"",""time""
""fullscreenenter"",""1"",""3496""
","
","
","""event"",""trial"",""time""
""fullscreenenter"",""1"",""3496""
","
","","","","","","2396","Welcome to the experiment. Press any key to begin and to advance the instructions."," ","","","","","","","","","","","","","","","",""
"learning-instructions","8","46142","0.0-8.0-0.0-0.0","1521","1","2","""event"",""trial"",""time""
""fullscreenenter"",""1"",""3496""
","
","
","""event"",""trial"",""time""
""fullscreenenter"",""1"",""3496""
","
","","","","","","1458","<p> Welcome! Today you are going to play 6 different rounds of a decision-making game. </p><p> Use the mouse to click next to continue. </p>","","0","instructions","","","","","","","","","","","","","",""
"learning-instructions","9","52718","0.0-8.0-0.0-0.1","1521","1","2","""event"",""trial"",""time""
""fullscreenenter"",""1"",""3496""
","
","
","""event"",""trial"",""time""
""fullscreenenter"",""1"",""3496""
","
","","","","","","3576","<p> You will start with a practice round to learn the rules. </p>","","0","instructions","","","","","","","","","","","","","",""
"learning-instructions","10","62110","0.0-8.0-0.0-0.2","1521","1","2","""event"",""trial"",""time""
""fullscreenenter"",""1"",""3496""
","
","
","""event"",""trial"",""time""
""fullscreenenter"",""1"",""3496""
","
","","","","","","1656","<p> Your goal in this round is to deliver sports equipment to three different parks. </p><p> You will need to deliver many types of equipment. </p></div>","","0","instructions","","","","","","","","","","","","","",""
"learning-instructions","11","72341","0.0-8.0-0.0-0.3","1521","1","2","""event"",""trial"",""time""
""fullscreenenter"",""1"",""3496""
","
","
","""event"",""trial"",""time""
""fullscreenenter"",""1"",""3496""
","
","","","","","","1752","<p> On each turn, you will see one piece of sports equipment and three different parks.  </p><p> You need to select which park to deliver the equipment to.  </p>","","0","instructions","","","","","","","","","","","","","",""
"learning-instructions","12","86949","0.0-8.0-0.0-0.4","1521","1","2","""event"",""trial"",""time""
""fullscreenenter"",""1"",""3496""
","
","
","""event"",""trial"",""time""
""fullscreenenter"",""1"",""3496""
","
","","","","","","1326.9999999999854","<p> You can select the park on the left by pressing the '1' key on your keyboard. <br>You can select the park in the middle by pressing the '2' key on your keyboard. <br>You can select the park on the right by pressing the '3' key on your keyboard.  </p><br><div class=""choice-instructions-grid""> <div class=""choice-option""><img src=""images/park1.png"" class=""choice-option-img"" stage=""instructions"" position=""0"" ><div class=""choice-option-text""> Press ""1."" </div></div><div class=""choice-option""><img src=""images/park2.png"" class=""choice-option-img"" stage=""instructions"" position=""1"" ><div class=""choice-option-text""> Press ""2."" </div></div><div class=""choice-option""><img src=""images/park3.png"" class=""choice-option-img"" stage=""instructions"" position=""2"" ><div class=""choice-option-text""> Press ""3."" </div></div></div>","","0","instructions","","","","","","","","","","","","","",""
"learning-instructions","13","94341","0.0-8.0-0.0-0.5","1521","1","2","""event"",""trial"",""time""
""fullscreenenter"",""1"",""3496""
","
","
","""event"",""trial"",""time""
""fullscreenenter"",""1"",""3496""
","
","","","","","","2014","<p> If the kids in the park you chose like the equipment, they will be very happy! </p><div style='float: center;'><img src='images/check.png' width = '200' height = '200'></img>","","0","instructions","","","","","","","","","","","","","",""
"learning-instructions","14","107644","0.0-8.0-0.0-0.6","1521","1","2","""event"",""trial"",""time""
""fullscreenenter"",""1"",""3496""
","
","
","""event"",""trial"",""time""
""fullscreenenter"",""1"",""3496""
","
","","","","","","7721","<p> But, if the kids in the park you chose do not like the equipment, they will be sad. </p><div style='float: center;'><img src='images/x.png' width = '200' height = '200'></img>","","0","instructions","","","","","","","","","","","","","",""
"learning-instructions","15","115836","0.0-8.0-0.0-0.7","1521","1","2","""event"",""trial"",""time""
""fullscreenenter"",""1"",""3496""
","
","
","""event"",""trial"",""time""
""fullscreenenter"",""1"",""3496""
","
","","","","","","1765","<p> Importantly, the kids in each park like some pieces of sports equipment more than others. </p>","","0","instructions","","","","","","","","","","","","","",""
"learning-instructions","16","124307","0.0-8.0-0.0-0.8","1521","1","2","""event"",""trial"",""time""
""fullscreenenter"",""1"",""3496""
","
","
","""event"",""trial"",""time""
""fullscreenenter"",""1"",""3496""
","
","","","","","","2426","<p> If you choose the best park for each piece of equipment, the kids there will usually be happy. </p>","","0","instructions","","","","","","","","","","","","","",""
"learning-instructions","17","132235","0.0-8.0-0.0-0.9","1521","1","2","""event"",""trial"",""time""
""fullscreenenter"",""1"",""3496""
","
","
","""event"",""trial"",""time""
""fullscreenenter"",""1"",""3496""
","
","","","","","","1288","<p> However, even if you choose the best park for the equipment, the kids may sometimes be sad. </p>","","0","instructions","","","","","","","","","","","","","",""
"learning-instructions","18","140844","0.0-8.0-0.0-0.10","1521","1","2","""event"",""trial"",""time""
""fullscreenenter"",""1"",""3496""
","
","
","""event"",""trial"",""time""
""fullscreenenter"",""1"",""3496""
","
","","","","","","1387","<p> Similarly, even if you choose the <i>wrong</i> park for the equipment, the kids may still be happy sometimes.","","0","instructions","","","","","","","","","","","","","",""
"learning-instructions","19","148555","0.0-8.0-0.0-0.11","1521","1","2","""event"",""trial"",""time""
""fullscreenenter"",""1"",""3496""
","
","
","""event"",""trial"",""time""
""fullscreenenter"",""1"",""3496""
","
","","","","","","2662","<p> For example, the best park for this soccer ball is this one.<div style='float: center;'><img src='images/i1.png' width = '500' height = '268'></img>","","0","instructions","","","","","","","","","","","","","",""
"learning-instructions","20","155851","0.0-8.0-0.0-0.12","1521","1","2","""event"",""trial"",""time""
""fullscreenenter"",""1"",""3496""
","
","
","""event"",""trial"",""time""
""fullscreenenter"",""1"",""3496""
","
","","","","","","2011","<p> Let's see what happens if you choose this park for the soccer ball five times.","","0","instructions","","","","","","","","","","","","","",""
"learning-instructions","21","159186","0.0-8.0-0.0-0.13","1521","1","2","""event"",""trial"",""time""
""fullscreenenter"",""1"",""3496""
","
","
","""event"",""trial"",""time""
""fullscreenenter"",""1"",""3496""
","
","","","","","","1173","<p> The kids are happy.<div style='float: left;'><img src='images/i2.png' width = '640' height = '360'></img>","","0","instructions","","","","","","","","","","","","","",""
"learning-instructions","22","161970","0.0-8.0-0.0-0.14","1521","1","2","""event"",""trial"",""time""
""fullscreenenter"",""1"",""3496""
","
","
","""event"",""trial"",""time""
""fullscreenenter"",""1"",""3496""
","
","","","","","","621","<p> The kids are happy.<div style='float: left;'><img src='images/i3.png' width = '640' height = '360'></img>","","0","instructions","","","","","","","","","","","","","",""
"learning-instructions","23","164314","0.0-8.0-0.0-0.15","1521","1","2","""event"",""trial"",""time""
""fullscreenenter"",""1"",""3496""
","
","
","""event"",""trial"",""time""
""fullscreenenter"",""1"",""3496""
","
","","","","","","181","<p> The kids are happy.<div style='float: left;'><img src='images/i4.png' width = '640' height = '360'></img>","","0","instructions","","","","","","","","","","","","","",""
"learning-instructions","24","166842","0.0-8.0-0.0-0.16","1521","1","2","""event"",""trial"",""time""
""fullscreenenter"",""1"",""3496""
","
","
","""event"",""trial"",""time""
""fullscreenenter"",""1"",""3496""
","
","","","","","","325.0000000000291","<p> The kids are sad.<div style='float: left;'><img src='images/i5.png' width = '640' height = '360'></img>","","0","instructions","","","","","","","","","","","","","",""
"learning-instructions","25","171593","0.0-8.0-0.0-0.17","1521","1","2","""event"",""trial"",""time""
""fullscreenenter"",""1"",""3496""
","
","
","""event"",""trial"",""time""
""fullscreenenter"",""1"",""3496""
","
","","","","","","2589","<p> The kids are happy.<div style='float: left;'><img src='images/i6.png' width = '640' height = '360'></img>","","0","instructions","","","","","","","","","","","","","",""
"learning-instructions","26","180810","0.0-8.0-0.0-0.18","1521","1","2","""event"",""trial"",""time""
""fullscreenenter"",""1"",""3496""
","
","
","""event"",""trial"",""time""
""fullscreenenter"",""1"",""3496""
","
","","","","","","1952","<p> As you can see, selecting that park for the soccer ball made the kids happy most of the time, but not all the time.","","0","instructions","","","","","","","","","","","","","",""
"learning-instructions","27","189650","0.0-8.0-0.0-0.19","1521","1","2","""event"",""trial"",""time""
""fullscreenenter"",""1"",""3496""
","
","
","""event"",""trial"",""time""
""fullscreenenter"",""1"",""3496""
","
","","","","","","2843","<p> Now let's see what happens if you choose a DIFFERENT park for the soccer ball 5 times.","","0","instructions","","","","","","","","","","","","","",""
"learning-instructions","28","193121","0.0-8.0-0.0-0.20","1521","1","2","""event"",""trial"",""time""
""fullscreenenter"",""1"",""3496""
","
","
","""event"",""trial"",""time""
""fullscreenenter"",""1"",""3496""
","
","","","","","","1269.000000000029","<p> The kids are sad.<div style='float: left;'><img src='images/i7.png' width = '640' height = '360'></img>","","0","instructions","","","","","","","","","","","","","",""
"learning-instructions","29","195938","0.0-8.0-0.0-0.21","1521","1","2","""event"",""trial"",""time""
""fullscreenenter"",""1"",""3496""
","
","
","""event"",""trial"",""time""
""fullscreenenter"",""1"",""3496""
","
","","","","","","616","<p> The kids are sad.<div style='float: left;'><img src='images/i8.png' width = '640' height = '360'></img>","","0","instructions","","","","","","","","","","","","","",""
"learning-instructions","30","198617","0.0-8.0-0.0-0.22","1521","1","2","""event"",""trial"",""time""
""fullscreenenter"",""1"",""3496""
","
","
","""event"",""trial"",""time""
""fullscreenenter"",""1"",""3496""
","
","","","","","","517","<p> The kids are happy.<div style='float: left;'><img src='images/i9.png' width = '640' height = '360'></img>","","0","instructions","","","","","","","","","","","","","",""
"learning-instructions","31","201745","0.0-8.0-0.0-0.23","1521","1","2","""event"",""trial"",""time""
""fullscreenenter"",""1"",""3496""
","
","
","""event"",""trial"",""time""
""fullscreenenter"",""1"",""3496""
","
","","","","","","925","<p> The kids are sad.<div style='float: left;'><img src='images/i10.png' width = '640' height = '360'></img>","","0","instructions","","","","","","","","","","","","","",""
"learning-instructions","32","204977","0.0-8.0-0.0-0.24","1521","1","2","""event"",""trial"",""time""
""fullscreenenter"",""1"",""3496""
","
","
","""event"",""trial"",""time""
""fullscreenenter"",""1"",""3496""
","
","","","","","","1028","<p> The kids are sad.<div style='float: left;'><img src='images/i11.png' width = '640' height = '360'></img>","","0","instructions","","","","","","","","","","","","","",""
"learning-instructions","33","216225","0.0-8.0-0.0-0.25","1521","1","2","""event"",""trial"",""time""
""fullscreenenter"",""1"",""3496""
","
","
","""event"",""trial"",""time""
""fullscreenenter"",""1"",""3496""
","
","","","","","","3131","<p> As you can see, selecting the wrong park for the soccer ball made the kids sad most of the time, but not all the time.","","0","instructions","","","","","","","","","","","","","",""
"learning-instructions","34","226719","0.0-8.0-0.0-0.26","1521","1","2","""event"",""trial"",""time""
""fullscreenenter"",""1"",""3496""
","
","
","""event"",""trial"",""time""
""fullscreenenter"",""1"",""3496""
","
","","","","","","1385.999999999971","<p> The different pieces of equipment belong in different parks. You need to try to learn which is the best park for each piece of equipment.","","0","instructions","","","","","","","","","","","","","",""
"learning-instructions","35","244528","0.0-8.0-0.0-0.27","1521","1","2","""event"",""trial"",""time""
""fullscreenenter"",""1"",""3496""
","
","
","""event"",""trial"",""time""
""fullscreenenter"",""1"",""3496""
","
","","","","","","1430","<p> Try to choose the best park for each piece of equipment, because you will <b> WIN </b> 1 point for each time you make the kids happy and <b>LOSE</b> 1 point for each time you make them sad. </p><p> Remember, if you make the best choice, you will win 1 point most of the time, but not all the time. </p>","","0","instructions","","","","","","","","","","","","","",""
"learning-instructions","36","251783","0.0-8.0-0.0-0.28","1521","1","2","""event"",""trial"",""time""
""fullscreenenter"",""1"",""3496""
","
","
","""event"",""trial"",""time""
""fullscreenenter"",""1"",""3496""
","
","","","","","","1782.999999999971","<p> This is just a practice round, but in the real game, your bonus payment will depend on your total number of points.","","0","instructions","","","","","","","","","","","","","",""
"learning-instructions","37","263391","0.0-8.0-0.0-0.29","1521","1","2","""event"",""trial"",""time""
""fullscreenenter"",""1"",""3496""
","
","
","""event"",""trial"",""time""
""fullscreenenter"",""1"",""3496""
","
","","","","","","1287","<p> The position where each park appears will change throughout the game. </p><p> The position where the park appears <i> does not </i> influence how likely the kids are to be happy or sad. </p>","","0","instructions","","","","","","","","","","","","","",""
"learning-instructions","38","275686","0.0-8.0-0.0-0.30","1521","1","2","""event"",""trial"",""time""
""fullscreenenter"",""1"",""3496""
","
","
","""event"",""trial"",""time""
""fullscreenenter"",""1"",""3496""
","
","","","","","","1571.0000000000582","<p> You will have 4 seconds to make each choice. Try to respond before time runs out! </p><p> You will lose 1 point each time you do not make a response. </p>","","0","instructions","","","","","","","","","","","","","",""
"learning-instructions","39","283774","0.0-8.0-0.0-0.31","1521","1","2","""event"",""trial"",""time""
""fullscreenenter"",""1"",""3496""
","
","
","""event"",""trial"",""time""
""fullscreenenter"",""1"",""3496""
","
","","","","","","1303","<p> Remember, you should use the 1, 2, and 3 keys to select the park for each piece of equipment. </p><br><div class=""choice-instructions-grid""> <div class=""choice-option""><img src=""images/park1.png"" class=""choice-option-img"" stage=""instructions"" position=""0"" ><div class=""choice-option-text""> Press ""1."" </div></div><div class=""choice-option""><img src=""images/park2.png"" class=""choice-option-img"" stage=""instructions"" position=""1"" ><div class=""choice-option-text""> Press ""2."" </div></div><div class=""choice-option""><img src=""images/park3.png"" class=""choice-option-img"" stage=""instructions"" position=""2"" ><div class=""choice-option-text""> Press ""3."" </div></div></div>","","0","instructions","","","","","","","","","","","","","",""
"html-button-response","40","285518","0.0-8.0-1.0","1521","1","2","""event"",""trial"",""time""
""fullscreenenter"",""1"",""3496""
","
","
","""event"",""trial"",""time""
""fullscreenenter"",""1"",""3496""
","
","","","","","","1642","<p> Ready to practice? </p>","0","","","","","","","","","","","","","","","",""
"html-keyboard-response","41","286120","0.0-8.0-2.0-0.0","1521","1","2","""event"",""trial"",""time""
""fullscreenenter"",""1"",""3496""
","
","
","""event"",""trial"",""time""
""fullscreenenter"",""1"",""3496""
","
","","","","","","null","<div style=""font-size:60px;"">+</div>","null","","fixation","","","","","","","","","","","","","",""
"learning-trial","42","290123","0.0-8.0-2.0-1.0","1521","1","2","""event"",""trial"",""time""
""fullscreenenter"",""1"",""3496""
","
","
","""event"",""trial"",""time""
""fullscreenenter"",""1"",""3496""
","
","","","","","","3228","images/racket1.png","","","practice","images/park1.png","images/park2.png","images/park3.png","[0,1,2]","1","1","3","images/park3.png","1","practice","","","",""
"html-keyboard-response","43","290624","0.0-8.0-2.0-0.1","1521","1","2","""event"",""trial"",""time""
""fullscreenenter"",""1"",""3496""
","
","
","""event"",""trial"",""time""
""fullscreenenter"",""1"",""3496""
","
","","","","","","null","<div style=""font-size:60px;"">+</div>","null","","fixation","","","","","","","","","","","","","",""
"learning-trial","44","294627","0.0-8.0-2.0-1.1","1521","1","2","""event"",""trial"",""time""
""fullscreenenter"",""1"",""3496""
","
","
","""event"",""trial"",""time""
""fullscreenenter"",""1"",""3496""
","
","","","","","","2624","images/racket2.png","","","practice","images/park2.png","images/park1.png","images/park3.png","[1,0,2]","1","0","3","images/park3.png","-1","practice","","","",""
"html-keyboard-response","45","295128","0.0-8.0-2.0-0.2","1521","1","2","""event"",""trial"",""time""
""fullscreenenter"",""1"",""3496""
","
","
","""event"",""trial"",""time""
""fullscreenenter"",""1"",""3496""
","
","","","","","","null","<div style=""font-size:60px;"">+</div>","null","","fixation","","","","","","","","","","","","","",""
"learning-trial","46","299131","0.0-8.0-2.0-1.2","1521","1","2","""event"",""trial"",""time""
""fullscreenenter"",""1"",""3496""
","
","
","""event"",""trial"",""time""
""fullscreenenter"",""1"",""3496""
","
","","","","","","2350","images/ball4.png","","","practice","images/park1.png","images/park2.png","images/park3.png","[0,1,2]","2","2","1","images/park1.png","1","practice","","","",""
"html-keyboard-response","47","299631","0.0-8.0-2.0-0.3","1521","1","2","""event"",""trial"",""time""
""fullscreenenter"",""1"",""3496""
","
","
","""event"",""trial"",""time""
""fullscreenenter"",""1"",""3496""
","
","","","","","","null","<div style=""font-size:60px;"">+</div>","null","","fixation","","","","","","","","","","","","","",""
"learning-trial","48","303633","0.0-8.0-2.0-1.3","1521","1","2","""event"",""trial"",""time""
""fullscreenenter"",""1"",""3496""
","
","
","""event"",""trial"",""time""
""fullscreenenter"",""1"",""3496""
","
","","","","","","2286","images/ball4.png","","","practice","images/park3.png","images/park2.png","images/park1.png","[2,1,0]","2","0","1","images/park3.png","1","practice","","","",""
"html-keyboard-response","49","304134","0.0-8.0-2.0-0.4","1521","1","2","""event"",""trial"",""time""
""fullscreenenter"",""1"",""3496""
","
","
","""event"",""trial"",""time""
""fullscreenenter"",""1"",""3496""
","
","","","","","","null","<div style=""font-size:60px;"">+</div>","null","","fixation","","","","","","","","","","","","","",""
"learning-trial","50","308135","0.0-8.0-2.0-1.4","1521","1","2","""event"",""trial"",""time""
""fullscreenenter"",""1"",""3496""
","
","
","""event"",""trial"",""time""
""fullscreenenter"",""1"",""3496""
","
","","","","","","2434","images/ball1.png","","","practice","images/park1.png","images/park3.png","images/park2.png","[0,2,1]","2","1","2","images/park3.png","1","practice","","","",""
"html-keyboard-response","51","308637","0.0-8.0-2.0-0.5","1521","1","2","""event"",""trial"",""time""
""fullscreenenter"",""1"",""3496""
","
","
","""event"",""trial"",""time""
""fullscreenenter"",""1"",""3496""
","
","","","","","","null","<div style=""font-size:60px;"">+</div>","null","","fixation","","","","","","","","","","","","","",""
"learning-trial","52","312639","0.0-8.0-2.0-1.5","1521","1","2","""event"",""trial"",""time""
""fullscreenenter"",""1"",""3496""
","
","
","""event"",""trial"",""time""
""fullscreenenter"",""1"",""3496""
","
","","","","","","1845","images/ball1.png","","","practice","images/park2.png","images/park1.png","images/park3.png","[1,0,2]","2","2","3","images/park3.png","1","practice","","","",""
"html-keyboard-response","53","313140","0.0-8.0-2.0-0.6","1521","1","2","""event"",""trial"",""time""
""fullscreenenter"",""1"",""3496""
","
","
","""event"",""trial"",""time""
""fullscreenenter"",""1"",""3496""
","
","","","","","","null","<div style=""font-size:60px;"">+</div>","null","","fixation","","","","","","","","","","","","","",""
"learning-trial","54","317142","0.0-8.0-2.0-1.6","1521","1","2","""event"",""trial"",""time""
""fullscreenenter"",""1"",""3496""
","
","
","""event"",""trial"",""time""
""fullscreenenter"",""1"",""3496""
","
","","","","","","1948","images/ball3.png","","","practice","images/park1.png","images/park2.png","images/park3.png","[0,1,2]","0","0","3","images/park3.png","-1","practice","","","",""
"html-keyboard-response","55","317642","0.0-8.0-2.0-0.7","1521","1","2","""event"",""trial"",""time""
""fullscreenenter"",""1"",""3496""
","
","
","""event"",""trial"",""time""
""fullscreenenter"",""1"",""3496""
","
","","","","","","null","<div style=""font-size:60px;"">+</div>","null","","fixation","","","","","","","","","","","","","",""
"learning-trial","56","321647","0.0-8.0-2.0-1.7","1521","1","2","""event"",""trial"",""time""
""fullscreenenter"",""1"",""3496""
","
","
","""event"",""trial"",""time""
""fullscreenenter"",""1"",""3496""
","
","","","","","","2124","images/racket2.png","","","practice","images/park1.png","images/park3.png","images/park2.png","[0,2,1]","1","2","2","images/park3.png","-1","practice","","","",""
"html-keyboard-response","57","322148","0.0-8.0-2.0-0.8","1521","1","2","""event"",""trial"",""time""
""fullscreenenter"",""1"",""3496""
","
","
","""event"",""trial"",""time""
""fullscreenenter"",""1"",""3496""
","
","","","","","","null","<div style=""font-size:60px;"">+</div>","null","","fixation","","","","","","","","","","","","","",""
"learning-trial","58","326150","0.0-8.0-2.0-1.8","1521","1","2","""event"",""trial"",""time""
""fullscreenenter"",""1"",""3496""
","
","
","""event"",""trial"",""time""
""fullscreenenter"",""1"",""3496""
","
","","","","","","1849","images/ball2.png","","","practice","images/park2.png","images/park1.png","images/park3.png","[1,0,2]","0","1","1","images/park2.png","-1","practice","","","",""
"html-keyboard-response","59","326652","0.0-8.0-2.0-0.9","1521","1","2","""event"",""trial"",""time""
""fullscreenenter"",""1"",""3496""
","
","
","""event"",""trial"",""time""
""fullscreenenter"",""1"",""3496""
","
","","","","","","null","<div style=""font-size:60px;"">+</div>","null","","fixation","","","","","","","","","","","","","",""
"learning-trial","60","330654","0.0-8.0-2.0-1.9","1521","1","2","""event"",""trial"",""time""
""fullscreenenter"",""1"",""3496""
","
","
","""event"",""trial"",""time""
""fullscreenenter"",""1"",""3496""
","
","","","","","","1980","images/racket1.png","","","practice","images/park1.png","images/park3.png","images/park2.png","[0,2,1]","1","2","2","images/park3.png","1","practice","","","",""
"html-keyboard-response","61","331156","0.0-8.0-2.0-0.10","1521","1","2","""event"",""trial"",""time""
""fullscreenenter"",""1"",""3496""
","
","
","""event"",""trial"",""time""
""fullscreenenter"",""1"",""3496""
","
","","","","","","null","<div style=""font-size:60px;"">+</div>","null","","fixation","","","","","","","","","","","","","",""
"learning-trial","62","335158","0.0-8.0-2.0-1.10","1521","1","2","""event"",""trial"",""time""
""fullscreenenter"",""1"",""3496""
","
","
","""event"",""trial"",""time""
""fullscreenenter"",""1"",""3496""
","
","","","","","","2577","images/ball3.png","","","practice","images/park2.png","images/park3.png","images/park1.png","[1,2,0]","0","2","1","images/park2.png","-1","practice","","","",""
"html-keyboard-response","63","335658","0.0-8.0-2.0-0.11","1521","1","2","""event"",""trial"",""time""
""fullscreenenter"",""1"",""3496""
","
","
","""event"",""trial"",""time""
""fullscreenenter"",""1"",""3496""
","
","","","","","","null","<div style=""font-size:60px;"">+</div>","null","","fixation","","","","","","","","","","","","","",""
"learning-trial","64","339661","0.0-8.0-2.0-1.11","1521","1","2","""event"",""trial"",""time""
""fullscreenenter"",""1"",""3496""
","
","
","""event"",""trial"",""time""
""fullscreenenter"",""1"",""3496""
","
","","","","","","2394.000000000058","images/ball2.png","","","practice","images/park2.png","images/park3.png","images/park1.png","[1,2,0]","0","2","1","images/park2.png","-1","practice","","","",""
"html-button-response","65","344012","0.0-8.0-3.0","1521","1","2","""event"",""trial"",""time""
""fullscreenenter"",""1"",""3496""
","
","
","""event"",""trial"",""time""
""fullscreenenter"",""1"",""3496""
","
","","","","","","4350","<p> You earned 0 points in the practice round! </p>","0","","break","","","","","","","","","","","","","",""
"learning-instructions","66","353492","0.0-8.0-4.0-0.0","1521","1","2","""event"",""trial"",""time""
""fullscreenenter"",""1"",""3496""
","
","
","""event"",""trial"",""time""
""fullscreenenter"",""1"",""3496""
","
","","","","","","1810","<p> It's almost time to start the real game. </p><p> Before you start, we're going to ask you a few questions about how the game works. </p>","","0","instructions","","","","","","","","","","","","","",""
"preload","67","392610","0.0-8.0-5.0","1521","1","2","""event"",""trial"",""time""
""fullscreenenter"",""1"",""3496""
","
","
","""event"",""trial"",""time""
""fullscreenenter"",""1"",""3496""
","
","true","false","[]","[]","[]","","","","","","","","","","","","","","","","","","",""
"comp-q","68","402010","0.0-8.0-6.0-0.0","1521","1","2","""event"",""trial"",""time""
""fullscreenenter"",""1"",""3496""
","
","
","""event"",""trial"",""time""
""fullscreenenter"",""1"",""3496""
","
","","","","","","3948","<p> <b> True or False? </b> </p><p> If you choose the best option, you will always earn 1 point. </p>","","1","comp_question","","","","","","","","","","","true","","",""
"comp-q","69","408787","0.0-8.0-6.0-1.0","1521","1","2","""event"",""trial"",""time""
""fullscreenenter"",""1"",""3496""
","
","
","""event"",""trial"",""time""
""fullscreenenter"",""1"",""3496""
","
","","","","","","1121","<p><b> That's right! </b> Sometimes you will lose 1 point, even if you choose the best option. </p>","","0","comp_answer","","","","","","","","","","","","","",""
"comp-q","70","414266","0.0-8.0-6.0-0.1","1521","1","2","""event"",""trial"",""time""
""fullscreenenter"",""1"",""3496""
","
","
","""event"",""trial"",""time""
""fullscreenenter"",""1"",""3496""
","
","","","","","","852.0000000000582","<p> <b> True or False? </b> </p><p> You will have as much time as you want to make each choice. </p>","","1","comp_question","","","","","","","","","","","true","","",""
"comp-q","71","421491","0.0-8.0-6.0-1.1","1521","1","2","""event"",""trial"",""time""
""fullscreenenter"",""1"",""3496""
","
","
","""event"",""trial"",""time""
""fullscreenenter"",""1"",""3496""
","
","","","","","","2414.000000000058","<p> <b> That's right! </b> You will only have 4 seconds to make each choice. </p>","","0","comp_answer","","","","","","","","","","","","","",""
"comp-q","72","428569","0.0-8.0-6.0-0.2","1521","1","2","""event"",""trial"",""time""
""fullscreenenter"",""1"",""3496""
","
","
","""event"",""trial"",""time""
""fullscreenenter"",""1"",""3496""
","
","","","","","","932","<p> <b> True or False? </b> </p><p> You should use the '1', '2', and '3' keys to make your choices. </p>","","0","comp_question","","","","","","","","","","","true","","",""
"comp-q","73","435097","0.0-8.0-6.0-1.2","1521","1","2","""event"",""trial"",""time""
""fullscreenenter"",""1"",""3496""
","
","
","""event"",""trial"",""time""
""fullscreenenter"",""1"",""3496""
","
","","","","","","1689","<p> <b> That's right! </b> You should use the '1', '2', and '3' keys to make each choice. </p>","","0","comp_answer","","","","","","","","","","","","","",""
"learning-instructions","74","448241","0.0-8.0-7.0-0.0","1521","1","2","""event"",""trial"",""time""
""fullscreenenter"",""1"",""3496""
","
","
","""event"",""trial"",""time""
""fullscreenenter"",""1"",""3496""
","
","","","","","","4660","<p> It's now time to start the real game. </p>Do your best, because the points you earn in the next rounds will influence your bonus payment. </p>","","0","instructions","","","","","","","","","","","","","",""
"preload","75","506128","0.0-9.0-0.0","1521","1","2","""event"",""trial"",""time""
""fullscreenenter"",""1"",""3496""
","
","
","""event"",""trial"",""time""
""fullscreenenter"",""1"",""3496""
","
","true","false","[]","[]","[]","","","","","","","","","","","","","","","","","","",""
"learning-instructions","76","516406","0.0-9.0-1.0-0.0","1521","1","2","""event"",""trial"",""time""
""fullscreenenter"",""1"",""3496""
","
","
","""event"",""trial"",""time""
""fullscreenenter"",""1"",""3496""
","
","","","","","","3445.000000000058","<p> Your goal in this round is to grow a beautiful garden by watering plants. </p><p> You will need to water many different plants. </p></div>","","0","instructions","","","","","","","","","","","","","",""
"learning-instructions","77","531981","0.0-9.0-1.0-0.1","1521","1","2","""event"",""trial"",""time""
""fullscreenenter"",""1"",""3496""
","
","
","""event"",""trial"",""time""
""fullscreenenter"",""1"",""3496""
","
","","","","","","2302.0000000001164","<p> On each turn, you will see a picture of one of your plants and three different watering cans.  </p><p> Each watering can has a different mixture of water and fertilizer.  </p><p> You need to select which watering can to use for each plant. </p>","","0","instructions","","","","","","","","","","","","","",""
"learning-instructions","78","542157","0.0-9.0-1.0-0.2","1521","1","2","""event"",""trial"",""time""
""fullscreenenter"",""1"",""3496""
","
","
","""event"",""trial"",""time""
""fullscreenenter"",""1"",""3496""
","
","","","","","","2443","<p> You can select the watering can on the left by pressing 1, the watering can in the middle by pressing 2, and the watering can on the right by pressing 3. </p><br><div class=""choice-instructions-grid""> <div class=""choice-option""><img src=""images/plants_choice1.png"" class=""choice-option-img"" stage=""instructions"" position=""0"" ><div class=""choice-option-text""> Press ""1."" </div></div><div class=""choice-option""><img src=""images/plants_choice2.png"" class=""choice-option-img"" stage=""instructions"" position=""1"" ><div class=""choice-option-text""> Press ""2."" </div></div><div class=""choice-option""><img src=""images/plants_choice3.png"" class=""choice-option-img"" stage=""instructions"" position=""2"" ><div class=""choice-option-text""> Press ""3."" </div></div></div>","","0","instructions","","","","","","","","","","","","","",""
"learning-instructions","79","548510","0.0-9.0-1.0-0.3","1521","1","2","""event"",""trial"",""time""
""fullscreenenter"",""1"",""3496""
","
","
","""event"",""trial"",""time""
""fullscreenenter"",""1"",""3496""
","
","","","","","","2188.9999999998836","<p> If the watering can you chose works for the plant, it will grow! </p><div style='float: center;'><img src='images/check.png' width = '200' height = '200'></img>","","0","instructions","","","","","","","","","","","","","",""
"learning-instructions","80","556437","0.0-9.0-1.0-0.4","1521","1","2","""event"",""trial"",""time""
""fullscreenenter"",""1"",""3496""
","
","
","""event"",""trial"",""time""
""fullscreenenter"",""1"",""3496""
","
","","","","","","3125","<p> But, if the watering can you chose does not work, your plant will droop. </p><div style='float: center;'><img src='images/x.png' width = '200' height = '200'></img>","","0","instructions","","","","","","","","","","","","","",""
"learning-instructions","81","568676","0.0-9.0-1.0-0.5","1521","1","2","""event"",""trial"",""time""
""fullscreenenter"",""1"",""3496""
","
","
","""event"",""trial"",""time""
""fullscreenenter"",""1"",""3496""
","
","","","","","","2168","<p> Importantly, each plant has one fertilizer mixture that works best for it. </p><p> If you choose the watering can with the right fertilizer, the plant will be more likely to grow. </p>","","0","instructions","","","","","","","","","","","","","",""
"learning-instructions","82","581324","0.0-9.0-1.0-0.6","1521","1","2","""event"",""trial"",""time""
""fullscreenenter"",""1"",""3496""
","
","
","""event"",""trial"",""time""
""fullscreenenter"",""1"",""3496""
","
","","","","","","2319.9999999998836","<p> However, even if you choose the best watering can for the plant, the plant may still droop. </p><p> Similarly, even if you choose the <i>wrong</i> watering can, the plant may still grow.","","0","instructions","","","","","","","","","","","","","",""
"learning-instructions","83","595748","0.0-9.0-1.0-0.7","1521","1","2","""event"",""trial"",""time""
""fullscreenenter"",""1"",""3496""
","
","
","""event"",""trial"",""time""
""fullscreenenter"",""1"",""3496""
","
","","","","","","2572","<p> Try to choose the best watering can for each plant, because you will <b> WIN </b> 1 point each time a plant grows and <b>LOSE</b>  1 point each time a plant droops. </p><p> Your bonus payment will depend on your total number of points.","","0","instructions","","","","","","","","","","","","","",""
"learning-instructions","84","610931","0.0-9.0-1.0-0.8","1521","1","2","""event"",""trial"",""time""
""fullscreenenter"",""1"",""3496""
","
","
","""event"",""trial"",""time""
""fullscreenenter"",""1"",""3496""
","
","","","","","","7185","<p> The position of each watering can will change throughout the round. </p><p> The watering can's position <i> does not </i> influence how likely each plant is to droop or grow. </p>","","0","instructions","","","","","","","","","","","","","",""
"learning-instructions","85","621931","0.0-9.0-1.0-0.9","1521","1","2","""event"",""trial"",""time""
""fullscreenenter"",""1"",""3496""
","
","
","""event"",""trial"",""time""
""fullscreenenter"",""1"",""3496""
","
","","","","","","1712.9999999998836","<p> You will have 4 seconds to make each choice. Try to respond before time runs out! </p><p> You will lose 1 point each time you do not make a response. </p>","","0","instructions","","","","","","","","","","","","","",""
"html-keyboard-response","86","622532","0.0-9.0-2.0-0.0","1521","1","2","""event"",""trial"",""time""
""fullscreenenter"",""1"",""3496""
","
","
","""event"",""trial"",""time""
""fullscreenenter"",""1"",""3496""
","
","","","","","","null","<div style=""font-size:60px;"">+</div>","null","","fixation","","","","","","","","","","","","","",""
"learning-trial","87","626535","0.0-9.0-2.0-1.0","1521","1","2","""event"",""trial"",""time""
""fullscreenenter"",""1"",""3496""
","
","
","""event"",""trial"",""time""
""fullscreenenter"",""1"",""3496""
","
","","","","","","3677","images/bush1.png","","","learning","images/plants_choice2.png","images/plants_choice1.png","images/plants_choice3.png","[1,0,2]","2","2","2","images/plants_choice1.png","-1","plants","","bush","1","0"
"html-keyboard-response","88","627036","0.0-9.0-2.0-0.1","1521","1","2","""event"",""trial"",""time""
""fullscreenenter"",""1"",""3496""
","
","
","""event"",""trial"",""time""
""fullscreenenter"",""1"",""3496""
","
","","","","","","null","<div style=""font-size:60px;"">+</div>","null","","fixation","","","","","","","","","","","","","",""
"learning-trial","89","631038","0.0-9.0-2.0-1.1","1521","1","2","""event"",""trial"",""time""
""fullscreenenter"",""1"",""3496""
","
","
","""event"",""trial"",""time""
""fullscreenenter"",""1"",""3496""
","
","","","","","","3569","images/tree4.png","","","learning","images/plants_choice1.png","images/plants_choice3.png","images/plants_choice2.png","[0,2,1]","1","2","2","images/plants_choice3.png","-1","plants","","tree","1","0"
"html-keyboard-response","90","631539","0.0-9.0-2.0-0.2","1521","1","2","""event"",""trial"",""time""
""fullscreenenter"",""1"",""3496""
","
","
","""event"",""trial"",""time""
""fullscreenenter"",""1"",""3496""
","
","","","","","","null","<div style=""font-size:60px;"">+</div>","null","","fixation","","","","","","","","","","","","","",""
"learning-trial","91","635541","0.0-9.0-2.0-1.2","1521","1","2","""event"",""trial"",""time""
""fullscreenenter"",""1"",""3496""
","
","
","""event"",""trial"",""time""
""fullscreenenter"",""1"",""3496""
","
","","","","","","3115","images/bush1.png","","","learning","images/plants_choice2.png","images/plants_choice1.png","images/plants_choice3.png","[1,0,2]","2","2","1","images/plants_choice2.png","-1","plants","","bush","1","0"
"html-keyboard-response","92","636042","0.0-9.0-2.0-0.3","1521","1","2","""event"",""trial"",""time""
""fullscreenenter"",""1"",""3496""
","
","
","""event"",""trial"",""time""
""fullscreenenter"",""1"",""3496""
","
","","","","","","null","<div style=""font-size:60px;"">+</div>","null","","fixation","","","","","","","","","","","","","",""
"learning-trial","93","640044","0.0-9.0-2.0-1.3","1521","1","2","""event"",""trial"",""time""
""fullscreenenter"",""1"",""3496""
","
","
","""event"",""trial"",""time""
""fullscreenenter"",""1"",""3496""
","
","","","","","","2062","images/tree5.png","","","learning","images/plants_choice3.png","images/plants_choice2.png","images/plants_choice1.png","[2,1,0]","1","1","3","images/plants_choice1.png","-1","plants","","tree","1","0"
"html-keyboard-response","94","640545","0.0-9.0-2.0-0.4","1521","1","2","""event"",""trial"",""time""
""fullscreenenter"",""1"",""3496""
","
","
","""event"",""trial"",""time""
""fullscreenenter"",""1"",""3496""
","
","","","","","","null","<div style=""font-size:60px;"">+</div>","null","","fixation","","","","","","","","","","","","","",""
"learning-trial","95","644547","0.0-9.0-2.0-1.4","1521","1","2","""event"",""trial"",""time""
""fullscreenenter"",""1"",""3496""
","
","
","""event"",""trial"",""time""
""fullscreenenter"",""1"",""3496""
","
","","","","","","2600","images/cactus2.png","","","learning","images/plants_choice2.png","images/plants_choice3.png","images/plants_choice1.png","[1,2,0]","0","2","1","images/plants_choice2.png","-1","plants","","cactus","1","0"
"html-keyboard-response","96","645048","0.0-9.0-2.0-0.5","1521","1","2","""event"",""trial"",""time""
""fullscreenenter"",""1"",""3496""
","
","
","""event"",""trial"",""time""
""fullscreenenter"",""1"",""3496""
","
","","","","","","null","<div style=""font-size:60px;"">+</div>","null","","fixation","","","","","","","","","","","","","",""
"learning-trial","97","649051","0.0-9.0-2.0-1.5","1521","1","2","""event"",""trial"",""time""
""fullscreenenter"",""1"",""3496""
","
","
","""event"",""trial"",""time""
""fullscreenenter"",""1"",""3496""
","
","","","","","","2295.9999999998836","images/bush5.png","","","learning","images/plants_choice2.png","images/plants_choice3.png","images/plants_choice1.png","[1,2,0]","2","1","3","images/plants_choice1.png","-1","plants","","bush","1","0"
"html-keyboard-response","98","649553","0.0-9.0-2.0-0.6","1521","1","2","""event"",""trial"",""time""
""fullscreenenter"",""1"",""3496""
","
","
","""event"",""trial"",""time""
""fullscreenenter"",""1"",""3496""
","
","","","","","","null","<div style=""font-size:60px;"">+</div>","null","","fixation","","","","","","","","","","","","","",""
"learning-trial","99","653555","0.0-9.0-2.0-1.6","1521","1","2","""event"",""trial"",""time""
""fullscreenenter"",""1"",""3496""
","
","
","""event"",""trial"",""time""
""fullscreenenter"",""1"",""3496""
","
","","","","","","2276","images/cactus2.png","","","learning","images/plants_choice2.png","images/plants_choice1.png","images/plants_choice3.png","[1,0,2]","0","1","1","images/plants_choice2.png","-1","plants","","cactus","1","0"
"html-keyboard-response","100","654057","0.0-9.0-2.0-0.7","1521","1","2","""event"",""trial"",""time""
""fullscreenenter"",""1"",""3496""
","
","
","""event"",""trial"",""time""
""fullscreenenter"",""1"",""3496""
","
","","","","","","null","<div style=""font-size:60px;"">+</div>","null","","fixation","","","","","","","","","","","","","",""
"learning-trial","101","658059","0.0-9.0-2.0-1.7","1521","1","2","""event"",""trial"",""time""
""fullscreenenter"",""1"",""3496""
","
","
","""event"",""trial"",""time""
""fullscreenenter"",""1"",""3496""
","
","","","","","","1672","images/cactus1.png","","","learning","images/plants_choice2.png","images/plants_choice3.png","images/plants_choice1.png","[1,2,0]","0","2","3","images/plants_choice1.png","1","plants","","cactus","1","0"
"html-keyboard-response","102","658560","0.0-9.0-2.0-0.8","1521","1","2","""event"",""trial"",""time""
""fullscreenenter"",""1"",""3496""
","
","
","""event"",""trial"",""time""
""fullscreenenter"",""1"",""3496""
","
","","","","","","null","<div style=""font-size:60px;"">+</div>","null","","fixation","","","","","","","","","","","","","",""
"learning-trial","103","662562","0.0-9.0-2.0-1.8","1521","1","2","""event"",""trial"",""time""
""fullscreenenter"",""1"",""3496""
","
","
","""event"",""trial"",""time""
""fullscreenenter"",""1"",""3496""
","
","","","","","","2014","images/bush5.png","","","learning","images/plants_choice2.png","images/plants_choice1.png","images/plants_choice3.png","[1,0,2]","2","2","1","images/plants_choice2.png","-1","plants","","bush","1","0"
"html-keyboard-response","104","663064","0.0-9.0-2.0-0.9","1521","1","2","""event"",""trial"",""time""
""fullscreenenter"",""1"",""3496""
","
","
","""event"",""trial"",""time""
""fullscreenenter"",""1"",""3496""
","
","","","","","","null","<div style=""font-size:60px;"">+</div>","null","","fixation","","","","","","","","","","","","","",""
"learning-trial","105","667068","0.0-9.0-2.0-1.9","1521","1","2","""event"",""trial"",""time""
""fullscreenenter"",""1"",""3496""
","
","
","""event"",""trial"",""time""
""fullscreenenter"",""1"",""3496""
","
","","","","","","2218","images/bush1.png","","","learning","images/plants_choice3.png","images/plants_choice1.png","images/plants_choice2.png","[2,0,1]","2","0","1","images/plants_choice3.png","1","plants","","bush","1","0"
"html-keyboard-response","106","667569","0.0-9.0-2.0-0.10","1521","1","2","""event"",""trial"",""time""
""fullscreenenter"",""1"",""3496""
","
","
","""event"",""trial"",""time""
""fullscreenenter"",""1"",""3496""
","
","","","","","","null","<div style=""font-size:60px;"">+</div>","null","","fixation","","","","","","","","","","","","","",""
"learning-trial","107","671571","0.0-9.0-2.0-1.10","1521","1","2","""event"",""trial"",""time""
""fullscreenenter"",""1"",""3496""
","
","
","""event"",""trial"",""time""
""fullscreenenter"",""1"",""3496""
","
","","","","","","940","images/bush5.png","","","learning","images/plants_choice1.png","images/plants_choice3.png","images/plants_choice2.png","[0,2,1]","2","1","3","images/plants_choice2.png","-1","plants","","bush","1","0"
"html-keyboard-response","108","672072","0.0-9.0-2.0-0.11","1521","1","2","""event"",""trial"",""time""
""fullscreenenter"",""1"",""3496""
","
","
","""event"",""trial"",""time""
""fullscreenenter"",""1"",""3496""
","
","","","","","","null","<div style=""font-size:60px;"">+</div>","null","","fixation","","","","","","","","","","","","","",""
"learning-trial","109","676074","0.0-9.0-2.0-1.11","1521","1","2","""event"",""trial"",""time""
""fullscreenenter"",""1"",""3496""
","
","
","""event"",""trial"",""time""
""fullscreenenter"",""1"",""3496""
","
","","","","","","1102","images/cactus2.png","","","learning","images/plants_choice3.png","images/plants_choice1.png","images/plants_choice2.png","[2,0,1]","0","1","2","images/plants_choice1.png","1","plants","","cactus","1","0"
"html-keyboard-response","110","676575","0.0-9.0-2.0-0.12","1521","1","2","""event"",""trial"",""time""
""fullscreenenter"",""1"",""3496""
","
","
","""event"",""trial"",""time""
""fullscreenenter"",""1"",""3496""
","
","","","","","","null","<div style=""font-size:60px;"">+</div>","null","","fixation","","","","","","","","","","","","","",""
"learning-trial","111","680578","0.0-9.0-2.0-1.12","1521","1","2","""event"",""trial"",""time""
""fullscreenenter"",""1"",""3496""
","
","
","""event"",""trial"",""time""
""fullscreenenter"",""1"",""3496""
","
","","","","","","2103","images/tree3.png","","","learning","images/plants_choice2.png","images/plants_choice3.png","images/plants_choice1.png","[1,2,0]","1","0","3","images/plants_choice1.png","-1","plants","","tree","1","0"
"html-keyboard-response","112","681080","0.0-9.0-2.0-0.13","1521","1","2","""event"",""trial"",""time""
""fullscreenenter"",""1"",""3496""
","
","
","""event"",""trial"",""time""
""fullscreenenter"",""1"",""3496""
","
","","","","","","null","<div style=""font-size:60px;"">+</div>","null","","fixation","","","","","","","","","","","","","",""
"learning-trial","113","685082","0.0-9.0-2.0-1.13","1521","1","2","""event"",""trial"",""time""
""fullscreenenter"",""1"",""3496""
","
","
","""event"",""trial"",""time""
""fullscreenenter"",""1"",""3496""
","
","","","","","","1138","images/tree5.png","","","learning","images/plants_choice3.png","images/plants_choice1.png","images/plants_choice2.png","[2,0,1]","1","2","1","images/plants_choice3.png","-1","plants","","tree","1","0"
"html-keyboard-response","114","685583","0.0-9.0-2.0-0.14","1521","1","2","""event"",""trial"",""time""
""fullscreenenter"",""1"",""3496""
","
","
","""event"",""trial"",""time""
""fullscreenenter"",""1"",""3496""
","
","","","","","","null","<div style=""font-size:60px;"">+</div>","null","","fixation","","","","","","","","","","","","","",""
"learning-trial","115","689584","0.0-9.0-2.0-1.14","1521","1","2","""event"",""trial"",""time""
""fullscreenenter"",""1"",""3496""
","
","
","""event"",""trial"",""time""
""fullscreenenter"",""1"",""3496""
","
","","","","","","865","images/tree4.png","","","learning","images/plants_choice2.png","images/plants_choice1.png","images/plants_choice3.png","[1,0,2]","1","0","2","images/plants_choice1.png","-1","plants","","tree","1","0"
"html-keyboard-response","116","690085","0.0-9.0-2.0-0.15","1521","1","2","""event"",""trial"",""time""
""fullscreenenter"",""1"",""3496""
","
","
","""event"",""trial"",""time""
""fullscreenenter"",""1"",""3496""
","
","","","","","","null","<div style=""font-size:60px;"">+</div>","null","","fixation","","","","","","","","","","","","","",""
"learning-trial","117","694087","0.0-9.0-2.0-1.15","1521","1","2","""event"",""trial"",""time""
""fullscreenenter"",""1"",""3496""
","
","
","""event"",""trial"",""time""
""fullscreenenter"",""1"",""3496""
","
","","","","","","847","images/bush5.png","","","learning","images/plants_choice1.png","images/plants_choice2.png","images/plants_choice3.png","[0,1,2]","2","2","3","images/plants_choice3.png","-1","plants","","bush","1","0"
"html-keyboard-response","118","694589","0.0-9.0-2.0-0.16","1521","1","2","""event"",""trial"",""time""
""fullscreenenter"",""1"",""3496""
","
","
","""event"",""trial"",""time""
""fullscreenenter"",""1"",""3496""
","
","","","","","","null","<div style=""font-size:60px;"">+</div>","null","","fixation","","","","","","","","","","","","","",""
"learning-trial","119","698591","0.0-9.0-2.0-1.16","1521","1","2","""event"",""trial"",""time""
""fullscreenenter"",""1"",""3496""
","
","
","""event"",""trial"",""time""
""fullscreenenter"",""1"",""3496""
","
","","","","","","363","images/tree4.png","","","learning","images/plants_choice1.png","images/plants_choice2.png","images/plants_choice3.png","[0,1,2]","1","1","1","images/plants_choice1.png","-1","plants","","tree","1","0"
"html-keyboard-response","120","699093","0.0-9.0-2.0-0.17","1521","1","2","""event"",""trial"",""time""
""fullscreenenter"",""1"",""3496""
","
","
","""event"",""trial"",""time""
""fullscreenenter"",""1"",""3496""
","
","","","","","","null","<div style=""font-size:60px;"">+</div>","null","","fixation","","","","","","","","","","","","","",""
"learning-trial","121","703095","0.0-9.0-2.0-1.17","1521","1","2","""event"",""trial"",""time""
""fullscreenenter"",""1"",""3496""
","
","
","""event"",""trial"",""time""
""fullscreenenter"",""1"",""3496""
","
","","","","","","795","images/bush2.png","","","learning","images/plants_choice1.png","images/plants_choice3.png","images/plants_choice2.png","[0,2,1]","2","1","2","images/plants_choice3.png","1","plants","","bush","1","0"
"html-keyboard-response","122","703596","0.0-9.0-2.0-0.18","1521","1","2","""event"",""trial"",""time""
""fullscreenenter"",""1"",""3496""
","
","
","""event"",""trial"",""time""
""fullscreenenter"",""1"",""3496""
","
","","","","","","null","<div style=""font-size:60px;"">+</div>","null","","fixation","","","","","","","","","","","","","",""
"learning-trial","123","707599","0.0-9.0-2.0-1.18","1521","1","2","""event"",""trial"",""time""
""fullscreenenter"",""1"",""3496""
","
","
","""event"",""trial"",""time""
""fullscreenenter"",""1"",""3496""
","
","","","","","","955","images/tree3.png","","","learning","images/plants_choice3.png","images/plants_choice1.png","images/plants_choice2.png","[2,0,1]","1","2","3","images/plants_choice2.png","1","plants","","tree","1","0"
"html-keyboard-response","124","708101","0.0-9.0-2.0-0.19","1521","1","2","""event"",""trial"",""time""
""fullscreenenter"",""1"",""3496""
","
","
","""event"",""trial"",""time""
""fullscreenenter"",""1"",""3496""
","
","","","","","","null","<div style=""font-size:60px;"">+</div>","null","","fixation","","","","","","","","","","","","","",""
"learning-trial","125","712103","0.0-9.0-2.0-1.19","1521","1","2","""event"",""trial"",""time""
""fullscreenenter"",""1"",""3496""
","
","
","""event"",""trial"",""time""
""fullscreenenter"",""1"",""3496""
","
","","","","","","517.0000000001164","images/tree4.png","","","learning","images/plants_choice3.png","images/plants_choice2.png","images/plants_choice1.png","[2,1,0]","1","1","1","images/plants_choice3.png","-1","plants","","tree","1","0"
"html-keyboard-response","126","712604","0.0-9.0-2.0-0.20","1521","1","2","""event"",""trial"",""time""
""fullscreenenter"",""1"",""3496""
","
","
","""event"",""trial"",""time""
""fullscreenenter"",""1"",""3496""
","
","","","","","","null","<div style=""font-size:60px;"">+</div>","null","","fixation","","","","","","","","","","","","","",""
"learning-trial","127","716605","0.0-9.0-2.0-1.20","1521","1","2","""event"",""trial"",""time""
""fullscreenenter"",""1"",""3496""
","
","
","""event"",""trial"",""time""
""fullscreenenter"",""1"",""3496""
","
","","","","","","153","images/tree3.png","","","learning","images/plants_choice1.png","images/plants_choice2.png","images/plants_choice3.png","[0,1,2]","1","1","2","images/plants_choice2.png","-1","plants","","tree","1","0"
"html-keyboard-response","128","717106","0.0-9.0-2.0-0.21","1521","1","2","""event"",""trial"",""time""
""fullscreenenter"",""1"",""3496""
","
","
","""event"",""trial"",""time""
""fullscreenenter"",""1"",""3496""
","
","","","","","","null","<div style=""font-size:60px;"">+</div>","null","","fixation","","","","","","","","","","","","","",""
"learning-trial","129","721109","0.0-9.0-2.0-1.21","1521","1","2","""event"",""trial"",""time""
""fullscreenenter"",""1"",""3496""
","
","
","""event"",""trial"",""time""
""fullscreenenter"",""1"",""3496""
","
","","","","","","1291","images/tree3.png","","","learning","images/plants_choice3.png","images/plants_choice1.png","images/plants_choice2.png","[2,0,1]","1","2","3","images/plants_choice2.png","1","plants","","tree","1","0"
"html-keyboard-response","130","721609","0.0-9.0-2.0-0.22","1521","1","2","""event"",""trial"",""time""
""fullscreenenter"",""1"",""3496""
","
","
","""event"",""trial"",""time""
""fullscreenenter"",""1"",""3496""
","
","","","","","","null","<div style=""font-size:60px;"">+</div>","null","","fixation","","","","","","","","","","","","","",""
"learning-trial","131","725611","0.0-9.0-2.0-1.22","1521","1","2","""event"",""trial"",""time""
""fullscreenenter"",""1"",""3496""
","
","
","""event"",""trial"",""time""
""fullscreenenter"",""1"",""3496""
","
","","","","","","1602","images/cactus1.png","","","learning","images/plants_choice1.png","images/plants_choice2.png","images/plants_choice3.png","[0,1,2]","0","0","2","images/plants_choice2.png","-1","plants","","cactus","1","0"
"html-keyboard-response","132","726112","0.0-9.0-2.0-0.23","1521","1","2","""event"",""trial"",""time""
""fullscreenenter"",""1"",""3496""
","
","
","""event"",""trial"",""time""
""fullscreenenter"",""1"",""3496""
","
","","","","","","null","<div style=""font-size:60px;"">+</div>","null","","fixation","","","","","","","","","","","","","",""
"learning-trial","133","730114","0.0-9.0-2.0-1.23","1521","1","2","""event"",""trial"",""time""
""fullscreenenter"",""1"",""3496""
","
","
","""event"",""trial"",""time""
""fullscreenenter"",""1"",""3496""
","
","","","","","","489.9999999998836","images/bush1.png","","","learning","images/plants_choice2.png","images/plants_choice3.png","images/plants_choice1.png","[1,2,0]","2","1","3","images/plants_choice1.png","-1","plants","","bush","1","0"
"html-keyboard-response","134","730614","0.0-9.0-2.0-0.24","1521","1","2","""event"",""trial"",""time""
""fullscreenenter"",""1"",""3496""
","
","
","""event"",""trial"",""time""
""fullscreenenter"",""1"",""3496""
","
","","","","","","null","<div style=""font-size:60px;"">+</div>","null","","fixation","","","","","","","","","","","","","",""
"learning-trial","135","734616","0.0-9.0-2.0-1.24","1521","1","2","""event"",""trial"",""time""
""fullscreenenter"",""1"",""3496""
","
","
","""event"",""trial"",""time""
""fullscreenenter"",""1"",""3496""
","
","","","","","","682","images/tree4.png","","","learning","images/plants_choice1.png","images/plants_choice3.png","images/plants_choice2.png","[0,2,1]","1","2","3","images/plants_choice2.png","1","plants","","tree","1","0"
"html-keyboard-response","136","735118","0.0-9.0-2.0-0.25","1521","1","2","""event"",""trial"",""time""
""fullscreenenter"",""1"",""3496""
","
","
","""event"",""trial"",""time""
""fullscreenenter"",""1"",""3496""
","
","","","","","","null","<div style=""font-size:60px;"">+</div>","null","","fixation","","","","","","","","","","","","","",""
"learning-trial","137","739120","0.0-9.0-2.0-1.25","1521","1","2","""event"",""trial"",""time""
""fullscreenenter"",""1"",""3496""
","
","
","""event"",""trial"",""time""
""fullscreenenter"",""1"",""3496""
","
","","","","","","1759","images/cactus2.png","","","learning","images/plants_choice3.png","images/plants_choice1.png","images/plants_choice2.png","[2,0,1]","0","1","2","images/plants_choice1.png","1","plants","","cactus","1","0"
"html-keyboard-response","138","739621","0.0-9.0-2.0-0.26","1521","1","2","""event"",""trial"",""time""
""fullscreenenter"",""1"",""3496""
","
","
","""event"",""trial"",""time""
""fullscreenenter"",""1"",""3496""
","
","","","","","","null","<div style=""font-size:60px;"">+</div>","null","","fixation","","","","","","","","","","","","","",""
"learning-trial","139","743622","0.0-9.0-2.0-1.26","1521","1","2","""event"",""trial"",""time""
""fullscreenenter"",""1"",""3496""
","
","
","""event"",""trial"",""time""
""fullscreenenter"",""1"",""3496""
","
","","","","","","991.0000000001164","images/bush2.png","","","learning","images/plants_choice1.png","images/plants_choice3.png","images/plants_choice2.png","[0,2,1]","2","1","1","images/plants_choice1.png","-1","plants","","bush","1","0"
"html-keyboard-response","140","744124","0.0-9.0-2.0-0.27","1521","1","2","""event"",""trial"",""time""
""fullscreenenter"",""1"",""3496""
","
","
","""event"",""trial"",""time""
""fullscreenenter"",""1"",""3496""
","
","","","","","","null","<div style=""font-size:60px;"">+</div>","null","","fixation","","","","","","","","","","","","","",""
"learning-trial","141","748126","0.0-9.0-2.0-1.27","1521","1","2","""event"",""trial"",""time""
""fullscreenenter"",""1"",""3496""
","
","
","""event"",""trial"",""time""
""fullscreenenter"",""1"",""3496""
","
","","","","","","1318","images/tree4.png","","","learning","images/plants_choice1.png","images/plants_choice2.png","images/plants_choice3.png","[0,1,2]","1","1","2","images/plants_choice2.png","-1","plants","","tree","1","0"
"html-keyboard-response","142","748627","0.0-9.0-2.0-0.28","1521","1","2","""event"",""trial"",""time""
""fullscreenenter"",""1"",""3496""
","
","
","""event"",""trial"",""time""
""fullscreenenter"",""1"",""3496""
","
","","","","","","null","<div style=""font-size:60px;"">+</div>","null","","fixation","","","","","","","","","","","","","",""
"learning-trial","143","752628","0.0-9.0-2.0-1.28","1521","1","2","""event"",""trial"",""time""
""fullscreenenter"",""1"",""3496""
","
","
","""event"",""trial"",""time""
""fullscreenenter"",""1"",""3496""
","
","","","","","","550","images/tree3.png","","","learning","images/plants_choice1.png","images/plants_choice3.png","images/plants_choice2.png","[0,2,1]","1","2","3","images/plants_choice2.png","1","plants","","tree","1","0"
"html-keyboard-response","144","753129","0.0-9.0-2.0-0.29","1521","1","2","""event"",""trial"",""time""
""fullscreenenter"",""1"",""3496""
","
","
","""event"",""trial"",""time""
""fullscreenenter"",""1"",""3496""
","
","","","","","","null","<div style=""font-size:60px;"">+</div>","null","","fixation","","","","","","","","","","","","","",""
"learning-trial","145","757131","0.0-9.0-2.0-1.29","1521","1","2","""event"",""trial"",""time""
""fullscreenenter"",""1"",""3496""
","
","
","""event"",""trial"",""time""
""fullscreenenter"",""1"",""3496""
","
","","","","","","444","images/bush2.png","","","learning","images/plants_choice3.png","images/plants_choice1.png","images/plants_choice2.png","[2,0,1]","2","0","1","images/plants_choice3.png","1","plants","","bush","1","0"
"html-keyboard-response","146","757632","0.0-9.0-2.0-0.30","1521","1","2","""event"",""trial"",""time""
""fullscreenenter"",""1"",""3496""
","
","
","""event"",""trial"",""time""
""fullscreenenter"",""1"",""3496""
","
","","","","","","null","<div style=""font-size:60px;"">+</div>","null","","fixation","","","","","","","","","","","","","",""
"learning-trial","147","761635","0.0-9.0-2.0-1.30","1521","1","2","""event"",""trial"",""time""
""fullscreenenter"",""1"",""3496""
","
","
","""event"",""trial"",""time""
""fullscreenenter"",""1"",""3496""
","
","","","","","","362","images/cactus4.png","","","learning","images/plants_choice3.png","images/plants_choice1.png","images/plants_choice2.png","[2,0,1]","0","1","2","images/plants_choice1.png","1","plants","","cactus","1","0"
"html-keyboard-response","148","762136","0.0-9.0-2.0-0.31","1521","1","2","""event"",""trial"",""time""
""fullscreenenter"",""1"",""3496""
","
","
","""event"",""trial"",""time""
""fullscreenenter"",""1"",""3496""
","
","","","","","","null","<div style=""font-size:60px;"">+</div>","null","","fixation","","","","","","","","","","","","","",""
"learning-trial","149","766138","0.0-9.0-2.0-1.31","1521","1","2","""event"",""trial"",""time""
""fullscreenenter"",""1"",""3496""
","
","
","""event"",""trial"",""time""
""fullscreenenter"",""1"",""3496""
","
","","","","","","1215","images/bush1.png","","","learning","images/plants_choice3.png","images/plants_choice1.png","images/plants_choice2.png","[2,0,1]","2","0","1","images/plants_choice3.png","1","plants","","bush","1","0"
"html-keyboard-response","150","766640","0.0-9.0-2.0-0.32","1521","1","2","""event"",""trial"",""time""
""fullscreenenter"",""1"",""3496""
","
","
","""event"",""trial"",""time""
""fullscreenenter"",""1"",""3496""
","
","","","","","","null","<div style=""font-size:60px;"">+</div>","null","","fixation","","","","","","","","","","","","","",""
"learning-trial","151","770642","0.0-9.0-2.0-1.32","1521","1","2","""event"",""trial"",""time""
""fullscreenenter"",""1"",""3496""
","
","
","""event"",""trial"",""time""
""fullscreenenter"",""1"",""3496""
","
","","","","","","551.9999999998836","images/bush5.png","","","learning","images/plants_choice1.png","images/plants_choice3.png","images/plants_choice2.png","[0,2,1]","2","1","2","images/plants_choice3.png","1","plants","","bush","1","0"
"html-keyboard-response","152","771142","0.0-9.0-2.0-0.33","1521","1","2","""event"",""trial"",""time""
""fullscreenenter"",""1"",""3496""
","
","
","""event"",""trial"",""time""
""fullscreenenter"",""1"",""3496""
","
","","","","","","null","<div style=""font-size:60px;"">+</div>","null","","fixation","","","","","","","","","","","","","",""
"learning-trial","153","775144","0.0-9.0-2.0-1.33","1521","1","2","""event"",""trial"",""time""
""fullscreenenter"",""1"",""3496""
","
","
","""event"",""trial"",""time""
""fullscreenenter"",""1"",""3496""
","
","","","","","","489","images/cactus4.png","","","learning","images/plants_choice3.png","images/plants_choice1.png","images/plants_choice2.png","[2,0,1]","0","1","3","images/plants_choice2.png","1","plants","","cactus","1","0"
"html-keyboard-response","154","775645","0.0-9.0-2.0-0.34","1521","1","2","""event"",""trial"",""time""
""fullscreenenter"",""1"",""3496""
","
","
","""event"",""trial"",""time""
""fullscreenenter"",""1"",""3496""
","
","","","","","","null","<div style=""font-size:60px;"">+</div>","null","","fixation","","","","","","","","","","","","","",""
"learning-trial","155","779647","0.0-9.0-2.0-1.34","1521","1","2","""event"",""trial"",""time""
""fullscreenenter"",""1"",""3496""
","
","
","""event"",""trial"",""time""
""fullscreenenter"",""1"",""3496""
","
","","","","","","216","images/tree3.png","","","learning","images/plants_choice1.png","images/plants_choice2.png","images/plants_choice3.png","[0,1,2]","1","1","1","images/plants_choice1.png","-1","plants","","tree","1","0"
"html-keyboard-response","156","780149","0.0-9.0-2.0-0.35","1521","1","2","""event"",""trial"",""time""
""fullscreenenter"",""1"",""3496""
","
","
","""event"",""trial"",""time""
""fullscreenenter"",""1"",""3496""
","
","","","","","","null","<div style=""font-size:60px;"">+</div>","null","","fixation","","","","","","","","","","","","","",""
"learning-trial","157","784151","0.0-9.0-2.0-1.35","1521","1","2","""event"",""trial"",""time""
""fullscreenenter"",""1"",""3496""
","
","
","""event"",""trial"",""time""
""fullscreenenter"",""1"",""3496""
","
","","","","","","392","images/tree4.png","","","learning","images/plants_choice1.png","images/plants_choice2.png","images/plants_choice3.png","[0,1,2]","1","1","2","images/plants_choice2.png","1","plants","","tree","1","0"
"html-keyboard-response","158","784653","0.0-9.0-2.0-0.36","1521","1","2","""event"",""trial"",""time""
""fullscreenenter"",""1"",""3496""
","
","
","""event"",""trial"",""time""
""fullscreenenter"",""1"",""3496""
","
","","","","","","null","<div style=""font-size:60px;"">+</div>","null","","fixation","","","","","","","","","","","","","",""
"learning-trial","159","788654","0.0-9.0-2.0-1.36","1521","1","2","""event"",""trial"",""time""
""fullscreenenter"",""1"",""3496""
","
","
","""event"",""trial"",""time""
""fullscreenenter"",""1"",""3496""
","
","","","","","","538","images/tree5.png","","","learning","images/plants_choice2.png","images/plants_choice1.png","images/plants_choice3.png","[1,0,2]","1","0","3","images/plants_choice3.png","-1","plants","","tree","1","0"
"html-keyboard-response","160","789156","0.0-9.0-2.0-0.37","1521","1","2","""event"",""trial"",""time""
""fullscreenenter"",""1"",""3496""
","
","
","""event"",""trial"",""time""
""fullscreenenter"",""1"",""3496""
","
","","","","","","null","<div style=""font-size:60px;"">+</div>","null","","fixation","","","","","","","","","","","","","",""
"learning-trial","161","793158","0.0-9.0-2.0-1.37","1521","1","2","""event"",""trial"",""time""
""fullscreenenter"",""1"",""3496""
","
","
","""event"",""trial"",""time""
""fullscreenenter"",""1"",""3496""
","
","","","","","","204.00000000011642","images/bush5.png","","","learning","images/plants_choice3.png","images/plants_choice1.png","images/plants_choice2.png","[2,0,1]","2","0","2","images/plants_choice1.png","-1","plants","","bush","1","0"
"html-keyboard-response","162","793659","0.0-9.0-2.0-0.38","1521","1","2","""event"",""trial"",""time""
""fullscreenenter"",""1"",""3496""
","
","
","""event"",""trial"",""time""
""fullscreenenter"",""1"",""3496""
","
","","","","","","null","<div style=""font-size:60px;"">+</div>","null","","fixation","","","","","","","","","","","","","",""
"learning-trial","163","797661","0.0-9.0-2.0-1.38","1521","1","2","""event"",""trial"",""time""
""fullscreenenter"",""1"",""3496""
","
","
","""event"",""trial"",""time""
""fullscreenenter"",""1"",""3496""
","
","","","","","","517","images/cactus4.png","","","learning","images/plants_choice2.png","images/plants_choice1.png","images/plants_choice3.png","[1,0,2]","0","1","1","images/plants_choice2.png","1","plants","","cactus","1","0"
"html-keyboard-response","164","798162","0.0-9.0-2.0-0.39","1521","1","2","""event"",""trial"",""time""
""fullscreenenter"",""1"",""3496""
","
","
","""event"",""trial"",""time""
""fullscreenenter"",""1"",""3496""
","
","","","","","","null","<div style=""font-size:60px;"">+</div>","null","","fixation","","","","","","","","","","","","","",""
"learning-trial","165","802164","0.0-9.0-2.0-1.39","1521","1","2","""event"",""trial"",""time""
""fullscreenenter"",""1"",""3496""
","
","
","""event"",""trial"",""time""
""fullscreenenter"",""1"",""3496""
","
","","","","","","903","images/cactus2.png","","","learning","images/plants_choice2.png","images/plants_choice3.png","images/plants_choice1.png","[1,2,0]","0","2","2","images/plants_choice3.png","-1","plants","","cactus","1","0"
"html-keyboard-response","166","802666","0.0-9.0-2.0-0.40","1521","1","2","""event"",""trial"",""time""
""fullscreenenter"",""1"",""3496""
","
","
","""event"",""trial"",""time""
""fullscreenenter"",""1"",""3496""
","
","","","","","","null","<div style=""font-size:60px;"">+</div>","null","","fixation","","","","","","","","","","","","","",""
"learning-trial","167","806668","0.0-9.0-2.0-1.40","1521","1","2","""event"",""trial"",""time""
""fullscreenenter"",""1"",""3496""
","
","
","""event"",""trial"",""time""
""fullscreenenter"",""1"",""3496""
","
","","","","","","958","images/bush2.png","","","learning","images/plants_choice2.png","images/plants_choice3.png","images/plants_choice1.png","[1,2,0]","2","1","1","images/plants_choice2.png","-1","plants","","bush","1","0"
"html-keyboard-response","168","807169","0.0-9.0-2.0-0.41","1521","1","2","""event"",""trial"",""time""
""fullscreenenter"",""1"",""3496""
","
","
","""event"",""trial"",""time""
""fullscreenenter"",""1"",""3496""
","
","","","","","","null","<div style=""font-size:60px;"">+</div>","null","","fixation","","","","","","","","","","","","","",""
"learning-trial","169","811170","0.0-9.0-2.0-1.41","1521","1","2","""event"",""trial"",""time""
""fullscreenenter"",""1"",""3496""
","
","
","""event"",""trial"",""time""
""fullscreenenter"",""1"",""3496""
","
","","","","","","506","images/bush5.png","","","learning","images/plants_choice3.png","images/plants_choice2.png","images/plants_choice1.png","[2,1,0]","2","0","3","images/plants_choice1.png","-1","plants","","bush","1","0"
"html-keyboard-response","170","811671","0.0-9.0-2.0-0.42","1521","1","2","""event"",""trial"",""time""
""fullscreenenter"",""1"",""3496""
","
","
","""event"",""trial"",""time""
""fullscreenenter"",""1"",""3496""
","
","","","","","","null","<div style=""font-size:60px;"">+</div>","null","","fixation","","","","","","","","","","","","","",""
"learning-trial","171","815672","0.0-9.0-2.0-1.42","1521","1","2","""event"",""trial"",""time""
""fullscreenenter"",""1"",""3496""
","
","
","""event"",""trial"",""time""
""fullscreenenter"",""1"",""3496""
","
","","","","","","280","images/tree3.png","","","learning","images/plants_choice1.png","images/plants_choice3.png","images/plants_choice2.png","[0,2,1]","1","2","2","images/plants_choice3.png","-1","plants","","tree","1","0"
"html-keyboard-response","172","816173","0.0-9.0-2.0-0.43","1521","1","2","""event"",""trial"",""time""
""fullscreenenter"",""1"",""3496""
","
","
","""event"",""trial"",""time""
""fullscreenenter"",""1"",""3496""
","
","","","","","","null","<div style=""font-size:60px;"">+</div>","null","","fixation","","","","","","","","","","","","","",""
"learning-trial","173","820175","0.0-9.0-2.0-1.43","1521","1","2","""event"",""trial"",""time""
""fullscreenenter"",""1"",""3496""
","
","
","""event"",""trial"",""time""
""fullscreenenter"",""1"",""3496""
","
","","","","","","682","images/cactus2.png","","","learning","images/plants_choice2.png","images/plants_choice3.png","images/plants_choice1.png","[1,2,0]","0","2","1","images/plants_choice2.png","-1","plants","","cactus","1","0"
"html-keyboard-response","174","820676","0.0-9.0-2.0-0.44","1521","1","2","""event"",""trial"",""time""
""fullscreenenter"",""1"",""3496""
","
","
","""event"",""trial"",""time""
""fullscreenenter"",""1"",""3496""
","
","","","","","","null","<div style=""font-size:60px;"">+</div>","null","","fixation","","","","","","","","","","","","","",""
"learning-trial","175","824677","0.0-9.0-2.0-1.44","1521","1","2","""event"",""trial"",""time""
""fullscreenenter"",""1"",""3496""
","
","
","""event"",""trial"",""time""
""fullscreenenter"",""1"",""3496""
","
","","","","","","619","images/cactus1.png","","","learning","images/plants_choice1.png","images/plants_choice3.png","images/plants_choice2.png","[0,2,1]","0","0","2","images/plants_choice3.png","-1","plants","","cactus","1","0"
"html-keyboard-response","176","825178","0.0-9.0-2.0-0.45","1521","1","2","""event"",""trial"",""time""
""fullscreenenter"",""1"",""3496""
","
","
","""event"",""trial"",""time""
""fullscreenenter"",""1"",""3496""
","
","","","","","","null","<div style=""font-size:60px;"">+</div>","null","","fixation","","","","","","","","","","","","","",""
"learning-trial","177","829180","0.0-9.0-2.0-1.45","1521","1","2","""event"",""trial"",""time""
""fullscreenenter"",""1"",""3496""
","
","
","""event"",""trial"",""time""
""fullscreenenter"",""1"",""3496""
","
","","","","","","2146","images/bush5.png","","","learning","images/plants_choice2.png","images/plants_choice3.png","images/plants_choice1.png","[1,2,0]","2","1","3","images/plants_choice1.png","-1","plants","","bush","1","0"
"html-keyboard-response","178","829681","0.0-9.0-2.0-0.46","1521","1","2","""event"",""trial"",""time""
""fullscreenenter"",""1"",""3496""
","
","
","""event"",""trial"",""time""
""fullscreenenter"",""1"",""3496""
","
","","","","","","null","<div style=""font-size:60px;"">+</div>","null","","fixation","","","","","","","","","","","","","",""
"learning-trial","179","833683","0.0-9.0-2.0-1.46","1521","1","2","""event"",""trial"",""time""
""fullscreenenter"",""1"",""3496""
","
","
","""event"",""trial"",""time""
""fullscreenenter"",""1"",""3496""
","
","","","","","","642.9999999998836","images/bush1.png","","","learning","images/plants_choice1.png","images/plants_choice3.png","images/plants_choice2.png","[0,2,1]","2","1","2","images/plants_choice3.png","1","plants","","bush","1","0"
"html-keyboard-response","180","834184","0.0-9.0-2.0-0.47","1521","1","2","""event"",""trial"",""time""
""fullscreenenter"",""1"",""3496""
","
","
","""event"",""trial"",""time""
""fullscreenenter"",""1"",""3496""
","
","","","","","","null","<div style=""font-size:60px;"">+</div>","null","","fixation","","","","","","","","","","","","","",""
"learning-trial","181","838186","0.0-9.0-2.0-1.47","1521","1","2","""event"",""trial"",""time""
""fullscreenenter"",""1"",""3496""
","
","
","""event"",""trial"",""time""
""fullscreenenter"",""1"",""3496""
","
","","","","","","354","images/cactus4.png","","","learning","images/plants_choice1.png","images/plants_choice2.png","images/plants_choice3.png","[0,1,2]","0","0","1","images/plants_choice1.png","1","plants","","cactus","1","0"
"html-keyboard-response","182","838687","0.0-9.0-2.0-0.48","1521","1","2","""event"",""trial"",""time""
""fullscreenenter"",""1"",""3496""
","
","
","""event"",""trial"",""time""
""fullscreenenter"",""1"",""3496""
","
","","","","","","null","<div style=""font-size:60px;"">+</div>","null","","fixation","","","","","","","","","","","","","",""
"learning-trial","183","842689","0.0-9.0-2.0-1.48","1521","1","2","""event"",""trial"",""time""
""fullscreenenter"",""1"",""3496""
","
","
","""event"",""trial"",""time""
""fullscreenenter"",""1"",""3496""
","
","","","","","","846","images/tree4.png","","","learning","images/plants_choice2.png","images/plants_choice1.png","images/plants_choice3.png","[1,0,2]","1","0","3","images/plants_choice3.png","-1","plants","","tree","1","0"
"html-keyboard-response","184","843190","0.0-9.0-2.0-0.49","1521","1","2","""event"",""trial"",""time""
""fullscreenenter"",""1"",""3496""
","
","
","""event"",""trial"",""time""
""fullscreenenter"",""1"",""3496""
","
","","","","","","null","<div style=""font-size:60px;"">+</div>","null","","fixation","","","","","","","","","","","","","",""
"learning-trial","185","847192","0.0-9.0-2.0-1.49","1521","1","2","""event"",""trial"",""time""
""fullscreenenter"",""1"",""3496""
","
","
","""event"",""trial"",""time""
""fullscreenenter"",""1"",""3496""
","
","","","","","","183.99999999988358","images/tree5.png","","","learning","images/plants_choice3.png","images/plants_choice2.png","images/plants_choice1.png","[2,1,0]","1","1","1","images/plants_choice3.png","1","plants","","tree","1","0"
"html-keyboard-response","186","847693","0.0-9.0-2.0-0.50","1521","1","2","""event"",""trial"",""time""
""fullscreenenter"",""1"",""3496""
","
","
","""event"",""trial"",""time""
""fullscreenenter"",""1"",""3496""
","
","","","","","","null","<div style=""font-size:60px;"">+</div>","null","","fixation","","","","","","","","","","","","","",""
"learning-trial","187","851695","0.0-9.0-2.0-1.50","1521","1","2","""event"",""trial"",""time""
""fullscreenenter"",""1"",""3496""
","
","
","""event"",""trial"",""time""
""fullscreenenter"",""1"",""3496""
","
","","","","","","691","images/tree3.png","","","learning","images/plants_choice2.png","images/plants_choice1.png","images/plants_choice3.png","[1,0,2]","1","0","2","images/plants_choice1.png","-1","plants","","tree","1","0"
"html-keyboard-response","188","852197","0.0-9.0-2.0-0.51","1521","1","2","""event"",""trial"",""time""
""fullscreenenter"",""1"",""3496""
","
","
","""event"",""trial"",""time""
""fullscreenenter"",""1"",""3496""
","
","","","","","","null","<div style=""font-size:60px;"">+</div>","null","","fixation","","","","","","","","","","","","","",""
"learning-trial","189","856199","0.0-9.0-2.0-1.51","1521","1","2","""event"",""trial"",""time""
""fullscreenenter"",""1"",""3496""
","
","
","""event"",""trial"",""time""
""fullscreenenter"",""1"",""3496""
","
","","","","","","446","images/cactus2.png","","","learning","images/plants_choice1.png","images/plants_choice3.png","images/plants_choice2.png","[0,2,1]","0","0","3","images/plants_choice2.png","-1","plants","","cactus","1","0"
"html-keyboard-response","190","856700","0.0-9.0-2.0-0.52","1521","1","2","""event"",""trial"",""time""
""fullscreenenter"",""1"",""3496""
","
","
","""event"",""trial"",""time""
""fullscreenenter"",""1"",""3496""
","
","","","","","","null","<div style=""font-size:60px;"">+</div>","null","","fixation","","","","","","","","","","","","","",""
"learning-trial","191","860702","0.0-9.0-2.0-1.52","1521","1","2","""event"",""trial"",""time""
""fullscreenenter"",""1"",""3496""
","
","
","""event"",""trial"",""time""
""fullscreenenter"",""1"",""3496""
","
","","","","","","548","images/bush2.png","","","learning","images/plants_choice2.png","images/plants_choice1.png","images/plants_choice3.png","[1,0,2]","2","2","2","images/plants_choice1.png","-1","plants","","bush","1","0"
"html-keyboard-response","192","861203","0.0-9.0-2.0-0.53","1521","1","2","""event"",""trial"",""time""
""fullscreenenter"",""1"",""3496""
","
","
","""event"",""trial"",""time""
""fullscreenenter"",""1"",""3496""
","
","","","","","","null","<div style=""font-size:60px;"">+</div>","null","","fixation","","","","","","","","","","","","","",""
"learning-trial","193","865205","0.0-9.0-2.0-1.53","1521","1","2","""event"",""trial"",""time""
""fullscreenenter"",""1"",""3496""
","
","
","""event"",""trial"",""time""
""fullscreenenter"",""1"",""3496""
","
","","","","","","1836","images/cactus1.png","","","learning","images/plants_choice2.png","images/plants_choice3.png","images/plants_choice1.png","[1,2,0]","0","2","1","images/plants_choice2.png","-1","plants","","cactus","1","0"
"html-keyboard-response","194","865707","0.0-9.0-2.0-0.54","1521","1","2","""event"",""trial"",""time""
""fullscreenenter"",""1"",""3496""
","
","
","""event"",""trial"",""time""
""fullscreenenter"",""1"",""3496""
","
","","","","","","null","<div style=""font-size:60px;"">+</div>","null","","fixation","","","","","","","","","","","","","",""
"learning-trial","195","869709","0.0-9.0-2.0-1.54","1521","1","2","""event"",""trial"",""time""
""fullscreenenter"",""1"",""3496""
","
","
","""event"",""trial"",""time""
""fullscreenenter"",""1"",""3496""
","
","","","","","","376.0000000001164","images/cactus4.png","","","learning","images/plants_choice3.png","images/plants_choice1.png","images/plants_choice2.png","[2,0,1]","0","1","3","images/plants_choice2.png","-1","plants","","cactus","1","0"
"html-keyboard-response","196","870211","0.0-9.0-2.0-0.55","1521","1","2","""event"",""trial"",""time""
""fullscreenenter"",""1"",""3496""
","
","
","""event"",""trial"",""time""
""fullscreenenter"",""1"",""3496""
","
","","","","","","null","<div style=""font-size:60px;"">+</div>","null","","fixation","","","","","","","","","","","","","",""
"learning-trial","197","874213","0.0-9.0-2.0-1.55","1521","1","2","""event"",""trial"",""time""
""fullscreenenter"",""1"",""3496""
","
","
","""event"",""trial"",""time""
""fullscreenenter"",""1"",""3496""
","
","","","","","","568","images/cactus4.png","","","learning","images/plants_choice2.png","images/plants_choice1.png","images/plants_choice3.png","[1,0,2]","0","1","2","images/plants_choice1.png","1","plants","","cactus","1","0"
"html-keyboard-response","198","874714","0.0-9.0-2.0-0.56","1521","1","2","""event"",""trial"",""time""
""fullscreenenter"",""1"",""3496""
","
","
","""event"",""trial"",""time""
""fullscreenenter"",""1"",""3496""
","
","","","","","","null","<div style=""font-size:60px;"">+</div>","null","","fixation","","","","","","","","","","","","","",""
"learning-trial","199","878716","0.0-9.0-2.0-1.56","1521","1","2","""event"",""trial"",""time""
""fullscreenenter"",""1"",""3496""
","
","
","""event"",""trial"",""time""
""fullscreenenter"",""1"",""3496""
","
","","","","","","1239.0000000001164","images/tree5.png","","","learning","images/plants_choice1.png","images/plants_choice2.png","images/plants_choice3.png","[0,1,2]","1","1","1","images/plants_choice1.png","-1","plants","","tree","1","0"
"html-keyboard-response","200","879218","0.0-9.0-2.0-0.57","1521","1","2","""event"",""trial"",""time""
""fullscreenenter"",""1"",""3496""
","
","
","""event"",""trial"",""time""
""fullscreenenter"",""1"",""3496""
","
","","","","","","null","<div style=""font-size:60px;"">+</div>","null","","fixation","","","","","","","","","","","","","",""
"learning-trial","201","883220","0.0-9.0-2.0-1.57","1521","1","2","""event"",""trial"",""time""
""fullscreenenter"",""1"",""3496""
","
","
","""event"",""trial"",""time""
""fullscreenenter"",""1"",""3496""
","
","","","","","","498.9999999998836","images/bush2.png","","","learning","images/plants_choice3.png","images/plants_choice1.png","images/plants_choice2.png","[2,0,1]","2","0","3","images/plants_choice2.png","-1","plants","","bush","1","0"
"html-keyboard-response","202","883721","0.0-9.0-2.0-0.58","1521","1","2","""event"",""trial"",""time""
""fullscreenenter"",""1"",""3496""
","
","
","""event"",""trial"",""time""
""fullscreenenter"",""1"",""3496""
","
","","","","","","null","<div style=""font-size:60px;"">+</div>","null","","fixation","","","","","","","","","","","","","",""
"learning-trial","203","887722","0.0-9.0-2.0-1.58","1521","1","2","""event"",""trial"",""time""
""fullscreenenter"",""1"",""3496""
","
","
","""event"",""trial"",""time""
""fullscreenenter"",""1"",""3496""
","
","","","","","","182","images/cactus4.png","","","learning","images/plants_choice1.png","images/plants_choice3.png","images/plants_choice2.png","[0,2,1]","0","0","2","images/plants_choice3.png","-1","plants","","cactus","1","0"
"html-keyboard-response","204","888223","0.0-9.0-2.0-0.59","1521","1","2","""event"",""trial"",""time""
""fullscreenenter"",""1"",""3496""
","
","
","""event"",""trial"",""time""
""fullscreenenter"",""1"",""3496""
","
","","","","","","null","<div style=""font-size:60px;"">+</div>","null","","fixation","","","","","","","","","","","","","",""
"learning-trial","205","892225","0.0-9.0-2.0-1.59","1521","1","2","""event"",""trial"",""time""
""fullscreenenter"",""1"",""3496""
","
","
","""event"",""trial"",""time""
""fullscreenenter"",""1"",""3496""
","
","","","","","","359.0000000001164","images/cactus1.png","","","learning","images/plants_choice1.png","images/plants_choice2.png","images/plants_choice3.png","[0,1,2]","0","0","1","images/plants_choice1.png","-1","plants","","cactus","1","0"
"html-keyboard-response","206","892726","0.0-9.0-2.0-0.60","1521","1","2","""event"",""trial"",""time""
""fullscreenenter"",""1"",""3496""
","
","
","""event"",""trial"",""time""
""fullscreenenter"",""1"",""3496""
","
","","","","","","null","<div style=""font-size:60px;"">+</div>","null","","fixation","","","","","","","","","","","","","",""
"learning-trial","207","896727","0.0-9.0-2.0-1.60","1521","1","2","""event"",""trial"",""time""
""fullscreenenter"",""1"",""3496""
","
","
","""event"",""trial"",""time""
""fullscreenenter"",""1"",""3496""
","
","","","","","","372","images/cactus1.png","","","learning","images/plants_choice3.png","images/plants_choice1.png","images/plants_choice2.png","[2,0,1]","0","1","3","images/plants_choice2.png","-1","plants","","cactus","1","0"
"html-keyboard-response","208","897229","0.0-9.0-2.0-0.61","1521","1","2","""event"",""trial"",""time""
""fullscreenenter"",""1"",""3496""
","
","
","""event"",""trial"",""time""
""fullscreenenter"",""1"",""3496""
","
","","","","","","null","<div style=""font-size:60px;"">+</div>","null","","fixation","","","","","","","","","","","","","",""
"learning-trial","209","901232","0.0-9.0-2.0-1.61","1521","1","2","""event"",""trial"",""time""
""fullscreenenter"",""1"",""3496""
","
","
","""event"",""trial"",""time""
""fullscreenenter"",""1"",""3496""
","
","","","","","","8","images/cactus1.png","","","learning","images/plants_choice2.png","images/plants_choice1.png","images/plants_choice3.png","[1,0,2]","0","1","2","images/plants_choice1.png","1","plants","","cactus","1","0"
"html-keyboard-response","210","901732","0.0-9.0-2.0-0.62","1521","1","2","""event"",""trial"",""time""
""fullscreenenter"",""1"",""3496""
","
","
","""event"",""trial"",""time""
""fullscreenenter"",""1"",""3496""
","
","","","","","","null","<div style=""font-size:60px;"">+</div>","null","","fixation","","","","","","","","","","","","","",""
"learning-trial","211","905735","0.0-9.0-2.0-1.62","1521","1","2","""event"",""trial"",""time""
""fullscreenenter"",""1"",""3496""
","
","
","""event"",""trial"",""time""
""fullscreenenter"",""1"",""3496""
","
","","","","","","635","images/bush1.png","","","learning","images/plants_choice2.png","images/plants_choice3.png","images/plants_choice1.png","[1,2,0]","2","1","3","images/plants_choice1.png","-1","plants","","bush","1","0"
"html-keyboard-response","212","906237","0.0-9.0-2.0-0.63","1521","1","2","""event"",""trial"",""time""
""fullscreenenter"",""1"",""3496""
","
","
","""event"",""trial"",""time""
""fullscreenenter"",""1"",""3496""
","
","","","","","","null","<div style=""font-size:60px;"">+</div>","null","","fixation","","","","","","","","","","","","","",""
"learning-trial","213","910239","0.0-9.0-2.0-1.63","1521","1","2","""event"",""trial"",""time""
""fullscreenenter"",""1"",""3496""
","
","
","""event"",""trial"",""time""
""fullscreenenter"",""1"",""3496""
","
","","","","","","285","images/cactus1.png","","","learning","images/plants_choice2.png","images/plants_choice3.png","images/plants_choice1.png","[1,2,0]","0","2","1","images/plants_choice2.png","-1","plants","","cactus","1","0"
"html-keyboard-response","214","910740","0.0-9.0-2.0-0.64","1521","1","2","""event"",""trial"",""time""
""fullscreenenter"",""1"",""3496""
","
","
","""event"",""trial"",""time""
""fullscreenenter"",""1"",""3496""
","
","","","","","","null","<div style=""font-size:60px;"">+</div>","null","","fixation","","","","","","","","","","","","","",""
"learning-trial","215","914741","0.0-9.0-2.0-1.64","1521","1","2","""event"",""trial"",""time""
""fullscreenenter"",""1"",""3496""
","
","
","""event"",""trial"",""time""
""fullscreenenter"",""1"",""3496""
","
","","","","","","373","images/bush2.png","","","learning","images/plants_choice1.png","images/plants_choice3.png","images/plants_choice2.png","[0,2,1]","2","1","2","images/plants_choice3.png","1","plants","","bush","1","0"
"html-keyboard-response","216","915243","0.0-9.0-2.0-0.65","1521","1","2","""event"",""trial"",""time""
""fullscreenenter"",""1"",""3496""
","
","
","""event"",""trial"",""time""
""fullscreenenter"",""1"",""3496""
","
","","","","","","null","<div style=""font-size:60px;"">+</div>","null","","fixation","","","","","","","","","","","","","",""
"learning-trial","217","919245","0.0-9.0-2.0-1.65","1521","1","2","""event"",""trial"",""time""
""fullscreenenter"",""1"",""3496""
","
","
","""event"",""trial"",""time""
""fullscreenenter"",""1"",""3496""
","
","","","","","","114","images/tree5.png","","","learning","images/plants_choice1.png","images/plants_choice3.png","images/plants_choice2.png","[0,2,1]","1","2","3","images/plants_choice2.png","1","plants","","tree","1","0"
"html-keyboard-response","218","919747","0.0-9.0-2.0-0.66","1521","1","2","""event"",""trial"",""time""
""fullscreenenter"",""1"",""3496""
","
","
","""event"",""trial"",""time""
""fullscreenenter"",""1"",""3496""
","
","","","","","","null","<div style=""font-size:60px;"">+</div>","null","","fixation","","","","","","","","","","","","","",""
"learning-trial","219","923748","0.0-9.0-2.0-1.66","1521","1","2","""event"",""trial"",""time""
""fullscreenenter"",""1"",""3496""
","
","
","""event"",""trial"",""time""
""fullscreenenter"",""1"",""3496""
","
","","","","","","440","images/tree5.png","","","learning","images/plants_choice2.png","images/plants_choice3.png","images/plants_choice1.png","[1,2,0]","1","0","1","images/plants_choice2.png","1","plants","","tree","1","0"
"html-keyboard-response","220","924249","0.0-9.0-2.0-0.67","1521","1","2","""event"",""trial"",""time""
""fullscreenenter"",""1"",""3496""
","
","
","""event"",""trial"",""time""
""fullscreenenter"",""1"",""3496""
","
","","","","","","null","<div style=""font-size:60px;"">+</div>","null","","fixation","","","","","","","","","","","","","",""
"learning-trial","221","928251","0.0-9.0-2.0-1.67","1521","1","2","""event"",""trial"",""time""
""fullscreenenter"",""1"",""3496""
","
","
","""event"",""trial"",""time""
""fullscreenenter"",""1"",""3496""
","
","","","","","","662.9999999998836","images/tree5.png","","","learning","images/plants_choice3.png","images/plants_choice1.png","images/plants_choice2.png","[2,0,1]","1","2","3","images/plants_choice2.png","1","plants","","tree","1","0"
"html-keyboard-response","222","928752","0.0-9.0-2.0-0.68","1521","1","2","""event"",""trial"",""time""
""fullscreenenter"",""1"",""3496""
","
","
","""event"",""trial"",""time""
""fullscreenenter"",""1"",""3496""
","
","","","","","","null","<div style=""font-size:60px;"">+</div>","null","","fixation","","","","","","","","","","","","","",""
"learning-trial","223","932755","0.0-9.0-2.0-1.68","1521","1","2","""event"",""trial"",""time""
""fullscreenenter"",""1"",""3496""
","
","
","""event"",""trial"",""time""
""fullscreenenter"",""1"",""3496""
","
","","","","","","1409","images/bush2.png","","","learning","images/plants_choice2.png","images/plants_choice1.png","images/plants_choice3.png","[1,0,2]","2","2","1","images/plants_choice2.png","-1","plants","","bush","1","0"
"html-keyboard-response","224","933256","0.0-9.0-2.0-0.69","1521","1","2","""event"",""trial"",""time""
""fullscreenenter"",""1"",""3496""
","
","
","""event"",""trial"",""time""
""fullscreenenter"",""1"",""3496""
","
","","","","","","null","<div style=""font-size:60px;"">+</div>","null","","fixation","","","","","","","","","","","","","",""
"learning-trial","225","937258","0.0-9.0-2.0-1.69","1521","1","2","""event"",""trial"",""time""
""fullscreenenter"",""1"",""3496""
","
","
","""event"",""trial"",""time""
""fullscreenenter"",""1"",""3496""
","
","","","","","","852","images/bush1.png","","","learning","images/plants_choice2.png","images/plants_choice3.png","images/plants_choice1.png","[1,2,0]","2","1","3","images/plants_choice1.png","-1","plants","","bush","1","0"
"html-keyboard-response","226","937759","0.0-9.0-2.0-0.70","1521","1","2","""event"",""trial"",""time""
""fullscreenenter"",""1"",""3496""
","
","
","""event"",""trial"",""time""
""fullscreenenter"",""1"",""3496""
","
","","","","","","null","<div style=""font-size:60px;"">+</div>","null","","fixation","","","","","","","","","","","","","",""
"learning-trial","227","941761","0.0-9.0-2.0-1.70","1521","1","2","""event"",""trial"",""time""
""fullscreenenter"",""1"",""3496""
","
","
","""event"",""trial"",""time""
""fullscreenenter"",""1"",""3496""
","
","","","","","","697","images/cactus2.png","","","learning","images/plants_choice2.png","images/plants_choice3.png","images/plants_choice1.png","[1,2,0]","0","2","2","images/plants_choice3.png","-1","plants","","cactus","1","0"
"html-keyboard-response","228","942262","0.0-9.0-2.0-0.71","1521","1","2","""event"",""trial"",""time""
""fullscreenenter"",""1"",""3496""
","
","
","""event"",""trial"",""time""
""fullscreenenter"",""1"",""3496""
","
","","","","","","null","<div style=""font-size:60px;"">+</div>","null","","fixation","","","","","","","","","","","","","",""
"learning-trial","229","946264","0.0-9.0-2.0-1.71","1521","1","2","""event"",""trial"",""time""
""fullscreenenter"",""1"",""3496""
","
","
","""event"",""trial"",""time""
""fullscreenenter"",""1"",""3496""
","
","","","","","","619","images/cactus4.png","","","learning","images/plants_choice2.png","images/plants_choice3.png","images/plants_choice1.png","[1,2,0]","0","2","1","images/plants_choice2.png","-1","plants","","cactus","1","0"
"html-button-response","230","957161","0.0-9.0-3.0","1521","1","2","""event"",""trial"",""time""
""fullscreenenter"",""1"",""3496""
","
","
","""event"",""trial"",""time""
""fullscreenenter"",""1"",""3496""
","
","","","","","","10894.999999999884","<p> You have completed the round! <p> In this round, you earned -22 points! </p>","0","","break","","","","","","","","","","","","","",""
"html-button-response","231","961623","0.0-10.0","1521","1","2","""event"",""trial"",""time""
""fullscreenenter"",""1"",""3496""
","
","
","""event"",""trial"",""time""
""fullscreenenter"",""1"",""3496""
","
","","","","","","4462","<p> Now it's time to play another round. </p>","0","","transition_screen","","","","","","","","","","","","","",""
"preload","232","1017728","0.0-11.0-0.0","1521","1","2","""event"",""trial"",""time""
""fullscreenenter"",""1"",""3496""
","
","
","""event"",""trial"",""time""
""fullscreenenter"",""1"",""3496""
","
","true","false","[]","[]","[]","","","","","","","","","","","","","","","","","","",""
"learning-instructions","233","1028220","0.0-11.0-1.0-0.0","1521","1","2","""event"",""trial"",""time""
""fullscreenenter"",""1"",""3496""
","
","
","""event"",""trial"",""time""
""fullscreenenter"",""1"",""3496""
","
","","","","","","2162.999999999767","<p> Your goal in this round is to travel the world by putting fuel into different vehicles. </p><p> To travel, you will need to put fuel into many different vehicles. </p></div>","","0","instructions","","","","","","","","","","","","","",""
"learning-instructions","234","1038173","0.0-11.0-1.0-0.1","1521","1","2","""event"",""trial"",""time""
""fullscreenenter"",""1"",""3496""
","
","
","""event"",""trial"",""time""
""fullscreenenter"",""1"",""3496""
","
","","","","","","1171","<p> On each turn, you will see a picture of one of your vehicles and three different types of fuel.  </p><p> You need to select which kind of fuel to use.  </p>","","0","instructions","","","","","","","","","","","","","",""
"learning-instructions","235","1046436","0.0-11.0-1.0-0.2","1521","1","2","""event"",""trial"",""time""
""fullscreenenter"",""1"",""3496""
","
","
","""event"",""trial"",""time""
""fullscreenenter"",""1"",""3496""
","
","","","","","","1400","<p> You can select the fuel on the left by pressing 1, the fuel in the middle by pressing 2, and the fuel on the right by pressing 3. </p><br><div class=""choice-instructions-grid""> <div class=""choice-option""><img src=""images/vehicles_choice1.png"" class=""choice-option-img"" stage=""instructions"" position=""0"" ><div class=""choice-option-text""> Press ""1."" </div></div><div class=""choice-option""><img src=""images/vehicles_choice2.png"" class=""choice-option-img"" stage=""instructions"" position=""1"" ><div class=""choice-option-text""> Press ""2."" </div></div><div class=""choice-option""><img src=""images/vehicles_choice3.png"" class=""choice-option-img"" stage=""instructions"" position=""2"" ><div class=""choice-option-text""> Press ""3."" </div></div></div>","","0","instructions","","","","","","","","","","","","","",""
"learning-instructions","236","1053140","0.0-11.0-1.0-0.3","1521","1","2","""event"",""trial"",""time""
""fullscreenenter"",""1"",""3496""
","
","
","""event"",""trial"",""time""
""fullscreenenter"",""1"",""3496""
","
","","","","","","1479","<p> If the fuel you chose works for that vehicle, it will start, and </p><p> you will get to travel. </p><div style='float: center;'><img src='images/check.png' width = '200' height = '200'></img>","","0","instructions","","","","","","","","","","","","","",""
"learning-instructions","237","1059588","0.0-11.0-1.0-0.4","1521","1","2","""event"",""trial"",""time""
""fullscreenenter"",""1"",""3496""
","
","
","""event"",""trial"",""time""
""fullscreenenter"",""1"",""3496""
","
","","","","","","1913","<p> But, if the fuel you chose does not work, your vehicle will not move. </p><div style='float: center;'><img src='images/x.png' width = '200' height = '200'></img>","","0","instructions","","","","","","","","","","","","","",""
"learning-instructions","238","1070971","0.0-11.0-1.0-0.5","1521","1","2","""event"",""trial"",""time""
""fullscreenenter"",""1"",""3496""
","
","
","""event"",""trial"",""time""
""fullscreenenter"",""1"",""3496""
","
