"trial_type","trial_index","time_elapsed","internal_node_id","subject_id","condition","task_version","interactions","blur_events","focus_events","fullscreenenter_events","fullscreenexit_events","success","timeout","failed_images","failed_audio","failed_video","rt","stimulus","response","button_pressed","task_part","left_choice","middle_choice","right_choice","choice_positions","correct_response","correct_position","key_press","option_selected","points","task_block","correct","stim_cat","block_condition","block_number"
"pavlovia","0","4","0.0-0.0","1855","2","2","""event"",""trial"",""time""
""fullscreenenter"",""1"",""2177""
","
","
","""event"",""trial"",""time""
""fullscreenenter"",""1"",""2177""
","
","","","","","","","","","","","","","","","","","","","","","","","",""
"fullscreen","1","3137","0.0-1.0","1855","2","2","""event"",""trial"",""time""
""fullscreenenter"",""1"",""2177""
","
","
","""event"",""trial"",""time""
""fullscreenenter"",""1"",""2177""
","
","true","","","","","","","","","","","","","","","","","","","","","","",""
"preload","2","16039","0.0-2.0","1855","2","2","""event"",""trial"",""time""
""fullscreenenter"",""1"",""2177""
","
","
","""event"",""trial"",""time""
""fullscreenenter"",""1"",""2177""
","
","true","false","[]","[]","[]","","","","","","","","","","","","","","","","","","",""
"audio-keyboard-response","3","21071","0.0-3.0","1855","2","2","""event"",""trial"",""time""
""fullscreenenter"",""1"",""2177""
","
","
","""event"",""trial"",""time""
""fullscreenenter"",""1"",""2177""
","
","","","","","","5032.925170068028","audio/beep_loop.wav"," ","","","","","","","","","","","","","","","",""
"audio-button-response","4","22937","0.0-4.0","1855","2","2","""event"",""trial"",""time""
""fullscreenenter"",""1"",""2177""
","
","
","""event"",""trial"",""time""
""fullscreenenter"",""1"",""2177""
","
","","","","","","1863","audio/shark.wav","4","","","","","","","","","","","","","","","",""
"audio-button-response","5","25142","0.0-5.0","1855","2","2","""event"",""trial"",""time""
""fullscreenenter"",""1"",""2177""
","
","
","""event"",""trial"",""time""
""fullscreenenter"",""1"",""2177""
","
","","","","","","1202","audio/turtle.wav","1","","","","","","","","","","","","","","","",""
"preload","6","35354","0.0-6.0","1855","2","2","""event"",""trial"",""time""
""fullscreenenter"",""1"",""2177""
","
","
","""event"",""trial"",""time""
""fullscreenenter"",""1"",""2177""
","
","true","false","[]","[]","[]","","","","","","","","","","","","","","","","","","",""
"html-keyboard-response","7","38790","0.0-7.0","1855","2","2","""event"",""trial"",""time""
""fullscreenenter"",""1"",""2177""
","
","
","""event"",""trial"",""time""
""fullscreenenter"",""1"",""2177""
","
","","","","","","3435.0999999940395","Welcome to the experiment. Press any key to begin and to advance the instructions.","1","","","","","","","","","","","","","","","",""
"learning-instructions","8","47801","0.0-8.0-0.0-0.0","1855","2","2","""event"",""trial"",""time""
""fullscreenenter"",""1"",""2177""
","
","
","""event"",""trial"",""time""
""fullscreenenter"",""1"",""2177""
","
","","","","","","1264.5","<p> Welcome! Today you are going to play 6 different rounds of a decision-making game. </p><p> Use the mouse to click next to continue. </p>","","0","instructions","","","","","","","","","","","","","",""
"learning-instructions","9","51581","0.0-8.0-0.0-0.1","1855","2","2","""event"",""trial"",""time""
""fullscreenenter"",""1"",""2177""
","
","
","""event"",""trial"",""time""
""fullscreenenter"",""1"",""2177""
","
","","","","","","778.0999999940395","<p> You will start with a practice round to learn the rules. </p>","","0","instructions","","","","","","","","","","","","","",""
"learning-instructions","10","60041","0.0-8.0-0.0-0.2","1855","2","2","""event"",""trial"",""time""
""fullscreenenter"",""1"",""2177""
","
","
","""event"",""trial"",""time""
""fullscreenenter"",""1"",""2177""
","
","","","","","","716.8999999761581","<p> Your goal in this round is to deliver sports equipment to three different parks. </p><p> You will need to deliver many types of equipment. </p></div>","","0","instructions","","","","","","","","","","","","","",""
"learning-instructions","11","69457","0.0-8.0-0.0-0.3","1855","2","2","""event"",""trial"",""time""
""fullscreenenter"",""1"",""2177""
","
","
","""event"",""trial"",""time""
""fullscreenenter"",""1"",""2177""
","
","","","","","","927","<p> On each turn, you will see one piece of sports equipment and three different parks.  </p><p> You need to select which park to deliver the equipment to.  </p>","","0","instructions","","","","","","","","","","","","","",""
"learning-instructions","12","83655","0.0-8.0-0.0-0.4","1855","2","2","""event"",""trial"",""time""
""fullscreenenter"",""1"",""2177""
","
","
","""event"",""trial"",""time""
""fullscreenenter"",""1"",""2177""
","
","","","","","","920.8000000119209","<p> You can select the park on the left by pressing the '1' key on your keyboard. <br>You can select the park in the middle by pressing the '2' key on your keyboard. <br>You can select the park on the right by pressing the '3' key on your keyboard.  </p><br><div class=""choice-instructions-grid""> <div class=""choice-option""><img src=""images/park1.png"" class=""choice-option-img"" stage=""instructions"" position=""0"" ><div class=""choice-option-text""> Press ""1."" </div></div><div class=""choice-option""><img src=""images/park2.png"" class=""choice-option-img"" stage=""instructions"" position=""1"" ><div class=""choice-option-text""> Press ""2."" </div></div><div class=""choice-option""><img src=""images/park3.png"" class=""choice-option-img"" stage=""instructions"" position=""2"" ><div class=""choice-option-text""> Press ""3."" </div></div></div>","","0","instructions","","","","","","","","","","","","","",""
"learning-instructions","13","90146","0.0-8.0-0.0-0.5","1855","2","2","""event"",""trial"",""time""
""fullscreenenter"",""1"",""2177""
","
","
","""event"",""trial"",""time""
""fullscreenenter"",""1"",""2177""
","
","","","","","","1114.199999988079","<p> If the kids in the park you chose like the equipment, they will be very happy! </p><div style='float: center;'><img src='images/check.png' width = '200' height = '200'></img>","","0","instructions","","","","","","","","","","","","","",""
"learning-instructions","14","96413","0.0-8.0-0.0-0.6","1855","2","2","""event"",""trial"",""time""
""fullscreenenter"",""1"",""2177""
","
","
","""event"",""trial"",""time""
""fullscreenenter"",""1"",""2177""
","
","","","","","","675.7999999821186","<p> But, if the kids in the park you chose do not like the equipment, they will be sad. </p><div style='float: center;'><img src='images/x.png' width = '200' height = '200'></img>","","0","instructions","","","","","","","","","","","","","",""
"learning-instructions","15","103489","0.0-8.0-0.0-0.7","1855","2","2","""event"",""trial"",""time""
""fullscreenenter"",""1"",""2177""
","
","
","""event"",""trial"",""time""
""fullscreenenter"",""1"",""2177""
","
","","","","","","647.8999999761581","<p> Importantly, the kids in each park like some pieces of sports equipment more than others. </p>","","0","instructions","","","","","","","","","","","","","",""
"learning-instructions","16","110588","0.0-8.0-0.0-0.8","1855","2","2","""event"",""trial"",""time""
""fullscreenenter"",""1"",""2177""
","
","
","""event"",""trial"",""time""
""fullscreenenter"",""1"",""2177""
","
","","","","","","1053.699999988079","<p> If you choose the best park for each piece of equipment, the kids there will usually be happy. </p>","","0","instructions","","","","","","","","","","","","","",""
"learning-instructions","17","117912","0.0-8.0-0.0-0.9","1855","2","2","""event"",""trial"",""time""
""fullscreenenter"",""1"",""2177""
","
","
","""event"",""trial"",""time""
""fullscreenenter"",""1"",""2177""
","
","","","","","","680.8000000119209","<p> However, even if you choose the best park for the equipment, the kids may sometimes be sad. </p>","","0","instructions","","","","","","","","","","","","","",""
"learning-instructions","18","126710","0.0-8.0-0.0-0.10","1855","2","2","""event"",""trial"",""time""
""fullscreenenter"",""1"",""2177""
","
","
","""event"",""trial"",""time""
""fullscreenenter"",""1"",""2177""
","
","","","","","","1572.5999999940395","<p> Similarly, even if you choose the <i>wrong</i> park for the equipment, the kids may still be happy sometimes.","","0","instructions","","","","","","","","","","","","","",""
"learning-instructions","19","133088","0.0-8.0-0.0-0.11","1855","2","2","""event"",""trial"",""time""
""fullscreenenter"",""1"",""2177""
","
","
","""event"",""trial"",""time""
""fullscreenenter"",""1"",""2177""
","
","","","","","","1322","<p> For example, the best park for this soccer ball is this one.<div style='float: center;'><img src='images/i1.png' width = '500' height = '268'></img>","","0","instructions","","","","","","","","","","","","","",""
"learning-instructions","20","139175","0.0-8.0-0.0-0.12","1855","2","2","""event"",""trial"",""time""
""fullscreenenter"",""1"",""2177""
","
","
","""event"",""trial"",""time""
""fullscreenenter"",""1"",""2177""
","
","","","","","","803.1999999880791","<p> Let's see what happens if you choose this park for the soccer ball five times.","","0","instructions","","","","","","","","","","","","","",""
"learning-instructions","21","142235","0.0-8.0-0.0-0.13","1855","2","2","""event"",""trial"",""time""
""fullscreenenter"",""1"",""2177""
","
","
","""event"",""trial"",""time""
""fullscreenenter"",""1"",""2177""
","
","","","","","","897","<p> The kids are happy.<div style='float: left;'><img src='images/i2.png' width = '640' height = '360'></img>","","0","instructions","","","","","","","","","","","","","",""
"learning-instructions","22","145216","0.0-8.0-0.0-0.14","1855","2","2","""event"",""trial"",""time""
""fullscreenenter"",""1"",""2177""
","
","
","""event"",""trial"",""time""
""fullscreenenter"",""1"",""2177""
","
","","","","","","819.1999999880791","<p> The kids are happy.<div style='float: left;'><img src='images/i3.png' width = '640' height = '360'></img>","","0","instructions","","","","","","","","","","","","","",""
"learning-instructions","23","147961","0.0-8.0-0.0-0.15","1855","2","2","""event"",""trial"",""time""
""fullscreenenter"",""1"",""2177""
","
","
","""event"",""trial"",""time""
""fullscreenenter"",""1"",""2177""
","
","","","","","","584.9000000059605","<p> The kids are happy.<div style='float: left;'><img src='images/i4.png' width = '640' height = '360'></img>","","0","instructions","","","","","","","","","","","","","",""
"learning-instructions","24","150785","0.0-8.0-0.0-0.16","1855","2","2","""event"",""trial"",""time""
""fullscreenenter"",""1"",""2177""
","
","
","""event"",""trial"",""time""
""fullscreenenter"",""1"",""2177""
","
","","","","","","623.6999999880791","<p> The kids are sad.<div style='float: left;'><img src='images/i5.png' width = '640' height = '360'></img>","","0","instructions","","","","","","","","","","","","","",""
"learning-instructions","25","153643","0.0-8.0-0.0-0.17","1855","2","2","""event"",""trial"",""time""
""fullscreenenter"",""1"",""2177""
","
","
","""event"",""trial"",""time""
""fullscreenenter"",""1"",""2177""
","
","","","","","","695","<p> The kids are happy.<div style='float: left;'><img src='images/i6.png' width = '640' height = '360'></img>","","0","instructions","","","","","","","","","","","","","",""
"learning-instructions","26","161710","0.0-8.0-0.0-0.18","1855","2","2","""event"",""trial"",""time""
""fullscreenenter"",""1"",""2177""
","
","
","""event"",""trial"",""time""
""fullscreenenter"",""1"",""2177""
","
","","","","","","803.8000000119209","<p> As you can see, selecting that park for the soccer ball made the kids happy most of the time, but not all the time.","","0","instructions","","","","","","","","","","","","","",""
"learning-instructions","27","168183","0.0-8.0-0.0-0.19","1855","2","2","""event"",""trial"",""time""
""fullscreenenter"",""1"",""2177""
","
","
","""event"",""trial"",""time""
""fullscreenenter"",""1"",""2177""
","
","","","","","","469.19999998807907","<p> Now let's see what happens if you choose a DIFFERENT park for the soccer ball 5 times.","","0","instructions","","","","","","","","","","","","","",""
"learning-instructions","28","171053","0.0-8.0-0.0-0.20","1855","2","2","""event"",""trial"",""time""
""fullscreenenter"",""1"",""2177""
","
","
","""event"",""trial"",""time""
""fullscreenenter"",""1"",""2177""
","
","","","","","","662.3000000119209","<p> The kids are sad.<div style='float: left;'><img src='images/i7.png' width = '640' height = '360'></img>","","0","instructions","","","","","","","","","","","","","",""
"learning-instructions","29","173991","0.0-8.0-0.0-0.21","1855","2","2","""event"",""trial"",""time""
""fullscreenenter"",""1"",""2177""
","
","
","""event"",""trial"",""time""
""fullscreenenter"",""1"",""2177""
","
","","","","","","730.9000000059605","<p> The kids are sad.<div style='float: left;'><img src='images/i8.png' width = '640' height = '360'></img>","","0","instructions","","","","","","","","","","","","","",""
"learning-instructions","30","176725","0.0-8.0-0.0-0.22","1855","2","2","""event"",""trial"",""time""
""fullscreenenter"",""1"",""2177""
","
","
","""event"",""trial"",""time""
""fullscreenenter"",""1"",""2177""
","
","","","","","","574.0999999940395","<p> The kids are happy.<div style='float: left;'><img src='images/i9.png' width = '640' height = '360'></img>","","0","instructions","","","","","","","","","","","","","",""
"learning-instructions","31","179573","0.0-8.0-0.0-0.23","1855","2","2","""event"",""trial"",""time""
""fullscreenenter"",""1"",""2177""
","
","
","""event"",""trial"",""time""
""fullscreenenter"",""1"",""2177""
","
","","","","","","645.5999999940395","<p> The kids are sad.<div style='float: left;'><img src='images/i10.png' width = '640' height = '360'></img>","","0","instructions","","","","","","","","","","","","","",""
"learning-instructions","32","182532","0.0-8.0-0.0-0.24","1855","2","2","""event"",""trial"",""time""
""fullscreenenter"",""1"",""2177""
","
","
","""event"",""trial"",""time""
""fullscreenenter"",""1"",""2177""
","
","","","","","","754.4000000059605","<p> The kids are sad.<div style='float: left;'><img src='images/i11.png' width = '640' height = '360'></img>","","0","instructions","","","","","","","","","","","","","",""
"learning-instructions","33","191133","0.0-8.0-0.0-0.25","1855","2","2","""event"",""trial"",""time""
""fullscreenenter"",""1"",""2177""
","
","
","""event"",""trial"",""time""
""fullscreenenter"",""1"",""2177""
","
","","","","","","478.59999999403954","<p> As you can see, selecting the wrong park for the soccer ball made the kids sad most of the time, but not all the time.","","0","instructions","","","","","","","","","","","","","",""
"learning-instructions","34","200771","0.0-8.0-0.0-0.26","1855","2","2","""event"",""trial"",""time""
""fullscreenenter"",""1"",""2177""
","
","
","""event"",""trial"",""time""
""fullscreenenter"",""1"",""2177""
","
","","","","","","526.4000000059605","<p> The different pieces of equipment belong in different parks. You need to try to learn which is the best park for each piece of equipment.","","0","instructions","","","","","","","","","","","","","",""
"learning-instructions","35","217872","0.0-8.0-0.0-0.27","1855","2","2","""event"",""trial"",""time""
""fullscreenenter"",""1"",""2177""
","
","
","""event"",""trial"",""time""
""fullscreenenter"",""1"",""2177""
","
","","","","","","717.5","<p> Try to choose the best park for each piece of equipment, because you will <b> WIN </b> 1 point for each time you make the kids happy and <b>LOSE</b> 1 point for each time you make them sad. </p><p> Remember, if you make the best choice, you will win 1 point most of the time, but not all the time. </p>","","0","instructions","","","","","","","","","","","","","",""
"learning-instructions","36","225444","0.0-8.0-0.0-0.28","1855","2","2","""event"",""trial"",""time""
""fullscreenenter"",""1"",""2177""
","
","
","""event"",""trial"",""time""
""fullscreenenter"",""1"",""2177""
","
","","","","","","2095.699999988079","<p> This is just a practice round, but in the real game, your bonus payment will depend on your total number of points.","","0","instructions","","","","","","","","","","","","","",""
"learning-instructions","37","236278","0.0-8.0-0.0-0.29","1855","2","2","""event"",""trial"",""time""
""fullscreenenter"",""1"",""2177""
","
","
","""event"",""trial"",""time""
""fullscreenenter"",""1"",""2177""
","
","","","","","","513.4000000059605","<p> The position where each park appears will change throughout the game. </p><p> The position where the park appears <i> does not </i> influence how likely the kids are to be happy or sad. </p>","","0","instructions","","","","","","","","","","","","","",""
"learning-instructions","38","247146","0.0-8.0-0.0-0.30","1855","2","2","""event"",""trial"",""time""
""fullscreenenter"",""1"",""2177""
","
","
","""event"",""trial"",""time""
""fullscreenenter"",""1"",""2177""
","
","","","","","","543.7000000178814","<p> You will have 4 seconds to make each choice. Try to respond before time runs out! </p><p> You will lose 1 point each time you do not make a response. </p>","","0","instructions","","","","","","","","","","","","","",""
"learning-instructions","39","254954","0.0-8.0-0.0-0.31","1855","2","2","""event"",""trial"",""time""
""fullscreenenter"",""1"",""2177""
","
","
","""event"",""trial"",""time""
""fullscreenenter"",""1"",""2177""
","
","","","","","","1025.4000000059605","<p> Remember, you should use the 1, 2, and 3 keys to select the park for each piece of equipment. </p><br><div class=""choice-instructions-grid""> <div class=""choice-option""><img src=""images/park1.png"" class=""choice-option-img"" stage=""instructions"" position=""0"" ><div class=""choice-option-text""> Press ""1."" </div></div><div class=""choice-option""><img src=""images/park2.png"" class=""choice-option-img"" stage=""instructions"" position=""1"" ><div class=""choice-option-text""> Press ""2."" </div></div><div class=""choice-option""><img src=""images/park3.png"" class=""choice-option-img"" stage=""instructions"" position=""2"" ><div class=""choice-option-text""> Press ""3."" </div></div></div>","","0","instructions","","","","","","","","","","","","","",""
"html-button-response","40","257080","0.0-8.0-1.0","1855","2","2","""event"",""trial"",""time""
""fullscreenenter"",""1"",""2177""
","
","
","""event"",""trial"",""time""
""fullscreenenter"",""1"",""2177""
","
","","","","","","2024.4000000059605","<p> Ready to practice? </p>","0","","","","","","","","","","","","","","","",""
"html-keyboard-response","41","257688","0.0-8.0-2.0-0.0","1855","2","2","""event"",""trial"",""time""
""fullscreenenter"",""1"",""2177""
","
","
","""event"",""trial"",""time""
""fullscreenenter"",""1"",""2177""
","
","","","","","","null","<div style=""font-size:60px;"">+</div>","null","","fixation","","","","","","","","","","","","","",""
"learning-trial","42","261694","0.0-8.0-2.0-1.0","1855","2","2","""event"",""trial"",""time""
""fullscreenenter"",""1"",""2177""
","
","
","""event"",""trial"",""time""
""fullscreenenter"",""1"",""2177""
","
","","","","","","1336.6000000238419","images/ball4.png","","","practice","images/park2.png","images/park3.png","images/park1.png","[1,2,0]","1","0","1","images/park2.png","1","practice","","","",""
"html-keyboard-response","43","262197","0.0-8.0-2.0-0.1","1855","2","2","""event"",""trial"",""time""
""fullscreenenter"",""1"",""2177""
","
","
","""event"",""trial"",""time""
""fullscreenenter"",""1"",""2177""
","
","","","","","","null","<div style=""font-size:60px;"">+</div>","null","","fixation","","","","","","","","","","","","","",""
"learning-trial","44","266199","0.0-8.0-2.0-1.1","1855","2","2","""event"",""trial"",""time""
""fullscreenenter"",""1"",""2177""
","
","
","""event"",""trial"",""time""
""fullscreenenter"",""1"",""2177""
","
","","","","","","2205.4000000059605","images/racket2.png","","","practice","images/park3.png","images/park2.png","images/park1.png","[2,1,0]","2","0","3","images/park1.png","-1","practice","","","",""
"html-keyboard-response","45","266701","0.0-8.0-2.0-0.2","1855","2","2","""event"",""trial"",""time""
""fullscreenenter"",""1"",""2177""
","
","
","""event"",""trial"",""time""
""fullscreenenter"",""1"",""2177""
","
","","","","","","null","<div style=""font-size:60px;"">+</div>","null","","fixation","","","","","","","","","","","","","",""
"learning-trial","46","270703","0.0-8.0-2.0-1.2","1855","2","2","""event"",""trial"",""time""
""fullscreenenter"",""1"",""2177""
","
","
","""event"",""trial"",""time""
""fullscreenenter"",""1"",""2177""
","
","","","","","","1774.2000000178814","images/racket4.png","","","practice","images/park1.png","images/park2.png","images/park3.png","[0,1,2]","0","0","1","images/park1.png","1","practice","","","",""
"html-keyboard-response","47","271206","0.0-8.0-2.0-0.3","1855","2","2","""event"",""trial"",""time""
""fullscreenenter"",""1"",""2177""
","
","
","""event"",""trial"",""time""
""fullscreenenter"",""1"",""2177""
","
","","","","","","null","<div style=""font-size:60px;"">+</div>","null","","fixation","","","","","","","","","","","","","",""
"learning-trial","48","275211","0.0-8.0-2.0-1.3","1855","2","2","""event"",""trial"",""time""
""fullscreenenter"",""1"",""2177""
","
","
","""event"",""trial"",""time""
""fullscreenenter"",""1"",""2177""
","
","","","","","","1769.5","images/racket2.png","","","practice","images/park2.png","images/park3.png","images/park1.png","[1,2,0]","2","1","1","images/park2.png","-1","practice","","","",""
"html-keyboard-response","49","275712","0.0-8.0-2.0-0.4","1855","2","2","""event"",""trial"",""time""
""fullscreenenter"",""1"",""2177""
","
","
","""event"",""trial"",""time""
""fullscreenenter"",""1"",""2177""
","
","","","","","","null","<div style=""font-size:60px;"">+</div>","null","","fixation","","","","","","","","","","","","","",""
"learning-trial","50","279718","0.0-8.0-2.0-1.4","1855","2","2","""event"",""trial"",""time""
""fullscreenenter"",""1"",""2177""
","
","
","""event"",""trial"",""time""
""fullscreenenter"",""1"",""2177""
","
","","","","","","896.5999999940395","images/ball1.png","","","practice","images/park1.png","images/park3.png","images/park2.png","[0,2,1]","1","2","1","images/park1.png","-1","practice","","","",""
"html-keyboard-response","51","280220","0.0-8.0-2.0-0.5","1855","2","2","""event"",""trial"",""time""
""fullscreenenter"",""1"",""2177""
","
","
","""event"",""trial"",""time""
""fullscreenenter"",""1"",""2177""
","
","","","","","","null","<div style=""font-size:60px;"">+</div>","null","","fixation","","","","","","","","","","","","","",""
"learning-trial","52","284222","0.0-8.0-2.0-1.5","1855","2","2","""event"",""trial"",""time""
""fullscreenenter"",""1"",""2177""
","
","
","""event"",""trial"",""time""
""fullscreenenter"",""1"",""2177""
","
","","","","","","2082.0999999940395","images/racket3.png","","","practice","images/park2.png","images/park1.png","images/park3.png","[1,0,2]","2","2","3","images/park3.png","1","practice","","","",""
"html-keyboard-response","53","284727","0.0-8.0-2.0-0.6","1855","2","2","""event"",""trial"",""time""
""fullscreenenter"",""1"",""2177""
","
","
","""event"",""trial"",""time""
""fullscreenenter"",""1"",""2177""
","
","","","","","","null","<div style=""font-size:60px;"">+</div>","null","","fixation","","","","","","","","","","","","","",""
"learning-trial","54","288730","0.0-8.0-2.0-1.6","1855","2","2","""event"",""trial"",""time""
""fullscreenenter"",""1"",""2177""
","
","
","""event"",""trial"",""time""
""fullscreenenter"",""1"",""2177""
","
","","","","","","2085.899999976158","images/ball3.png","","","practice","images/park2.png","images/park3.png","images/park1.png","[1,2,0]","0","2","2","images/park3.png","-1","practice","","","",""
"html-keyboard-response","55","289232","0.0-8.0-2.0-0.7","1855","2","2","""event"",""trial"",""time""
""fullscreenenter"",""1"",""2177""
","
","
","""event"",""trial"",""time""
""fullscreenenter"",""1"",""2177""
","
","","","","","","null","<div style=""font-size:60px;"">+</div>","null","","fixation","","","","","","","","","","","","","",""
"learning-trial","56","293235","0.0-8.0-2.0-1.7","1855","2","2","""event"",""trial"",""time""
""fullscreenenter"",""1"",""2177""
","
","
","""event"",""trial"",""time""
""fullscreenenter"",""1"",""2177""
","
","","","","","","3273.399999976158","images/racket4.png","","","practice","images/park1.png","images/park3.png","images/park2.png","[0,2,1]","0","0","2","images/park3.png","1","practice","","","",""
"html-keyboard-response","57","293737","0.0-8.0-2.0-0.8","1855","2","2","""event"",""trial"",""time""
""fullscreenenter"",""1"",""2177""
","
","
","""event"",""trial"",""time""
""fullscreenenter"",""1"",""2177""
","
","","","","","","null","<div style=""font-size:60px;"">+</div>","null","","fixation","","","","","","","","","","","","","",""
"learning-trial","58","297742","0.0-8.0-2.0-1.8","1855","2","2","""event"",""trial"",""time""
""fullscreenenter"",""1"",""2177""
","
","
","""event"",""trial"",""time""
""fullscreenenter"",""1"",""2177""
","
","","","","","","null","images/ball3.png","","","practice","images/park3.png","images/park2.png","images/park1.png","[2,1,0]","0","2","null","null","-1","practice","","","",""
"html-keyboard-response","59","298247","0.0-8.0-2.0-0.9","1855","2","2","""event"",""trial"",""time""
""fullscreenenter"",""1"",""2177""
","
","
","""event"",""trial"",""time""
""fullscreenenter"",""1"",""2177""
","
","","","","","","null","<div style=""font-size:60px;"">+</div>","null","","fixation","","","","","","","","","","","","","",""
"learning-trial","60","302252","0.0-8.0-2.0-1.9","1855","2","2","""event"",""trial"",""time""
""fullscreenenter"",""1"",""2177""
","
","
","""event"",""trial"",""time""
""fullscreenenter"",""1"",""2177""
","
","","","","","","1796.7999999821186","images/racket3.png","","","practice","images/park1.png","images/park3.png","images/park2.png","[0,2,1]","2","1","1","images/park1.png","1","practice","","","",""
"html-keyboard-response","61","302757","0.0-8.0-2.0-0.10","1855","2","2","""event"",""trial"",""time""
""fullscreenenter"",""1"",""2177""
","
","
","""event"",""trial"",""time""
""fullscreenenter"",""1"",""2177""
","
","","","","","","null","<div style=""font-size:60px;"">+</div>","null","","fixation","","","","","","","","","","","","","",""
"learning-trial","62","306763","0.0-8.0-2.0-1.10","1855","2","2","""event"",""trial"",""time""
""fullscreenenter"",""1"",""2177""
","
","
","""event"",""trial"",""time""
""fullscreenenter"",""1"",""2177""
","
","","","","","","2135","images/ball4.png","","","practice","images/park2.png","images/park3.png","images/park1.png","[1,2,0]","1","0","3","images/park1.png","-1","practice","","","",""
"html-keyboard-response","63","307267","0.0-8.0-2.0-0.11","1855","2","2","""event"",""trial"",""time""
""fullscreenenter"",""1"",""2177""
","
","
","""event"",""trial"",""time""
""fullscreenenter"",""1"",""2177""
","
","","","","","","null","<div style=""font-size:60px;"">+</div>","null","","fixation","","","","","","","","","","","","","",""
"learning-trial","64","311273","0.0-8.0-2.0-1.11","1855","2","2","""event"",""trial"",""time""
""fullscreenenter"",""1"",""2177""
","
","
","""event"",""trial"",""time""
""fullscreenenter"",""1"",""2177""
","
","","","","","","1326.2999999821186","images/ball1.png","","","practice","images/park3.png","images/park2.png","images/park1.png","[2,1,0]","1","1","1","images/park3.png","-1","practice","","","",""
"html-button-response","65","313534","0.0-8.0-3.0","1855","2","2","""event"",""trial"",""time""
""fullscreenenter"",""1"",""2177""
","
","
","""event"",""trial"",""time""
""fullscreenenter"",""1"",""2177""
","
","","","","","","2259.4000000059605","<p> You earned -2 points in the practice round! </p>","0","","break","","","","","","","","","","","","","",""
"learning-instructions","66","322444","0.0-8.0-4.0-0.0","1855","2","2","""event"",""trial"",""time""
""fullscreenenter"",""1"",""2177""
","
","
","""event"",""trial"",""time""
""fullscreenenter"",""1"",""2177""
","
","","","","","","1234","<p> It's almost time to start the real game. </p><p> Before you start, we're going to ask you a few questions about how the game works. </p>","","0","instructions","","","","","","","","","","","","","",""
"preload","67","324171","0.0-8.0-5.0","1855","2","2","""event"",""trial"",""time""
""fullscreenenter"",""1"",""2177""
","
","
","""event"",""trial"",""time""
""fullscreenenter"",""1"",""2177""
","
","true","false","[]","[]","[]","","","","","","","","","","","","","","","","","","",""
"comp-q","68","331388","0.0-8.0-6.0-0.0","1855","2","2","""event"",""trial"",""time""
""fullscreenenter"",""1"",""2177""
","
","
","""event"",""trial"",""time""
""fullscreenenter"",""1"",""2177""
","
","","","","","","1766.4000000059605","<p> <b> True or False? </b> </p><p> If you choose the best option, you will always earn 1 point. </p>","","1","comp_question","","","","","","","","","","","true","","",""
"comp-q","69","338071","0.0-8.0-6.0-1.0","1855","2","2","""event"",""trial"",""time""
""fullscreenenter"",""1"",""2177""
","
","
","""event"",""trial"",""time""
""fullscreenenter"",""1"",""2177""
","
","","","","","","1025.2000000178814","<p><b> That's right! </b> Sometimes you will lose 1 point, even if you choose the best option. </p>","","0","comp_answer","","","","","","","","","","","","","",""
"comp-q","70","343527","0.0-8.0-6.0-0.1","1855","2","2","""event"",""trial"",""time""
""fullscreenenter"",""1"",""2177""
","
","
","""event"",""trial"",""time""
""fullscreenenter"",""1"",""2177""
","
","","","","","","827.6999999880791","<p> <b> True or False? </b> </p><p> You will have as much time as you want to make each choice. </p>","","1","comp_question","","","","","","","","","","","true","","",""
"comp-q","71","349209","0.0-8.0-6.0-1.1","1855","2","2","""event"",""trial"",""time""
""fullscreenenter"",""1"",""2177""
","
","
","""event"",""trial"",""time""
""fullscreenenter"",""1"",""2177""
","
","","","","","","866.8999999761581","<p> <b> That's right! </b> You will only have 4 seconds to make each choice. </p>","","0","comp_answer","","","","","","","","","","","","","",""
"comp-q","72","356229","0.0-8.0-6.0-0.2","1855","2","2","""event"",""trial"",""time""
""fullscreenenter"",""1"",""2177""
","
","
","""event"",""trial"",""time""
""fullscreenenter"",""1"",""2177""
","
","","","","","","869.5","<p> <b> True or False? </b> </p><p> You should use the '1', '2', and '3' keys to make your choices. </p>","","0","comp_question","","","","","","","","","","","true","","",""
"comp-q","73","362079","0.0-8.0-6.0-1.2","1855","2","2","""event"",""trial"",""time""
""fullscreenenter"",""1"",""2177""
","
","
","""event"",""trial"",""time""
""fullscreenenter"",""1"",""2177""
","
","","","","","","1007.9000000059605","<p> <b> That's right! </b> You should use the '1', '2', and '3' keys to make each choice. </p>","","0","comp_answer","","","","","","","","","","","","","",""
"learning-instructions","74","371800","0.0-8.0-7.0-0.0","1855","2","2","""event"",""trial"",""time""
""fullscreenenter"",""1"",""2177""
","
","
","""event"",""trial"",""time""
""fullscreenenter"",""1"",""2177""
","
","","","","","","1237.3999999761581","<p> It's now time to start the real game. </p>Do your best, because the points you earn in the next rounds will influence your bonus payment. </p>","","0","instructions","","","","","","","","","","","","","",""
"preload","75","373630","0.0-9.0-0.0","1855","2","2","""event"",""trial"",""time""
""fullscreenenter"",""1"",""2177""
","
","
","""event"",""trial"",""time""
""fullscreenenter"",""1"",""2177""
","
","true","false","[]","[]","[]","","","","","","","","","","","","","","","","","","",""
"learning-instructions","76","380980","0.0-9.0-1.0-0.0","1855","2","2","""event"",""trial"",""time""
""fullscreenenter"",""1"",""2177""
","
","
","""event"",""trial"",""time""
""fullscreenenter"",""1"",""2177""
","
","","","","","","857.2000000178814","<p> Your goal in this round is to buy different types of fruits. </p><p> You will try to purchase many fruits from different stores. </p></div>","","0","instructions","","","","","","","","","","","","","",""
"learning-instructions","77","390216","0.0-9.0-1.0-0.1","1855","2","2","""event"",""trial"",""time""
""fullscreenenter"",""1"",""2177""
","
","
","""event"",""trial"",""time""
""fullscreenenter"",""1"",""2177""
","
","","","","","","736.1999999880791","<p> On each turn, you will see a picture of a fruit and three different stores.  </p><p> You need to select the store where you can buy that fruit.  </p>","","0","instructions","","","","","","","","","","","","","",""
"learning-instructions","78","398451","0.0-9.0-1.0-0.2","1855","2","2","""event"",""trial"",""time""
""fullscreenenter"",""1"",""2177""
","
","
","""event"",""trial"",""time""
""fullscreenenter"",""1"",""2177""
","
","","","","","","862.4000000059605","<p> You can select the store on the left by pressing 1, the store in the middle by pressing 2, and the store on the right by pressing 3. </p><br><div class=""choice-instructions-grid""> <div class=""choice-option""><img src=""images/fruit_choice1.png"" class=""choice-option-img"" stage=""instructions"" position=""0"" ><div class=""choice-option-text""> Press ""1."" </div></div><div class=""choice-option""><img src=""images/fruit_choice2.png"" class=""choice-option-img"" stage=""instructions"" position=""1"" ><div class=""choice-option-text""> Press ""2."" </div></div><div class=""choice-option""><img src=""images/fruit_choice3.png"" class=""choice-option-img"" stage=""instructions"" position=""2"" ><div class=""choice-option-text""> Press ""3."" </div></div></div>","","0","instructions","","","","","","","","","","","","","",""
"learning-instructions","79","403908","0.0-9.0-1.0-0.3","1855","2","2","""event"",""trial"",""time""
""fullscreenenter"",""1"",""2177""
","
","
","""event"",""trial"",""time""
""fullscreenenter"",""1"",""2177""
","
","","","","","","514","<p> If you find the fruit in the store you chose, you will get to buy and eat it! </p><div style='float: center;'><img src='images/check.png' width = '200' height = '200'></img>","","0","instructions","","","","","","","","","","","","","",""
"learning-instructions","80","408880","0.0-9.0-1.0-0.4","1855","2","2","""event"",""trial"",""time""
""fullscreenenter"",""1"",""2177""
","
","
","""event"",""trial"",""time""
""fullscreenenter"",""1"",""2177""
","
","","","","","","506.09999999403954","<p> But, if the fruit is not in that store, you will be hungry. </p><div style='float: center;'><img src='images/x.png' width = '200' height = '200'></img>","","0","instructions","","","","","","","","","","","","","",""
"learning-instructions","81","420176","0.0-9.0-1.0-0.5","1855","2","2","""event"",""trial"",""time""
""fullscreenenter"",""1"",""2177""
","
","
","""event"",""trial"",""time""
""fullscreenenter"",""1"",""2177""
","
","","","","","","1521.800000011921","<p> Importantly, each fruit is more likely to be found in one of the stores. </p><p> If you choose the correct store, you will be more likely to be able to buy the fruit! </p>","","0","instructions","","","","","","","","","","","","","",""
"learning-instructions","82","431145","0.0-9.0-1.0-0.6","1855","2","2","""event"",""trial"",""time""
""fullscreenenter"",""1"",""2177""
","
","
","""event"",""trial"",""time""
""fullscreenenter"",""1"",""2177""
","
","","","","","","515.2999999821186","<p> However, even if you choose the best store for the fruit, the store might not have it sometimes. </p><p> Similarly, even if you choose the <i>wrong</i> store, it might still have the fruit.","","0","instructions","","","","","","","","","","","","","",""
"learning-instructions","83","443880","0.0-9.0-1.0-0.7","1855","2","2","""event"",""trial"",""time""
""fullscreenenter"",""1"",""2177""
","
","
","""event"",""trial"",""time""
""fullscreenenter"",""1"",""2177""
","
","","","","","","549.8000000119209","<p> Try to choose the best store for each fruit, because you will <b> WIN </b> 1 point for each fruit you eat and <b>LOSE</b> 1 point each time you are hungry. </p><p> Your bonus payment will depend on your total number of points.","","0","instructions","","","","","","","","","","","","","",""
"learning-instructions","84","453106","0.0-9.0-1.0-0.8","1855","2","2","""event"",""trial"",""time""
""fullscreenenter"",""1"",""2177""
","
","
","""event"",""trial"",""time""
""fullscreenenter"",""1"",""2177""
","
","","","","","","1016.1999999880791","<p> The position of each store will change throughout the round. </p><p> The store's position <i> does not </i> influence how likely you are to find the fruit. </p>","","0","instructions","","","","","","","","","","","","","",""
"learning-instructions","85","462961","0.0-9.0-1.0-0.9","1855","2","2","""event"",""trial"",""time""
""fullscreenenter"",""1"",""2177""
","
","
","""event"",""trial"",""time""
""fullscreenenter"",""1"",""2177""
","
","","","","","","562.0999999940395","<p> You will have 4 seconds to make each choice. Try to respond before time runs out! </p><p> You will lose 1 point each time you do not make a response. </p>","","0","instructions","","","","","","","","","","","","","",""
"html-keyboard-response","86","463566","0.0-9.0-2.0-0.0","1855","2","2","""event"",""trial"",""time""
""fullscreenenter"",""1"",""2177""
","
","
","""event"",""trial"",""time""
""fullscreenenter"",""1"",""2177""
","
","","","","","","null","<div style=""font-size:60px;"">+</div>","null","","fixation","","","","","","","","","","","","","",""
"learning-trial","87","467570","0.0-9.0-2.0-1.0","1855","2","2","""event"",""trial"",""time""
""fullscreenenter"",""1"",""2177""
","
","
","""event"",""trial"",""time""
""fullscreenenter"",""1"",""2177""
","
","","","","","","800","images/apple4.png","","","learning","images/fruit_choice1.png","images/fruit_choice3.png","images/fruit_choice2.png","[0,2,1]","1","2","1","images/fruit_choice1.png","-1","fruit","","apple","2","0"
"html-keyboard-response","88","468075","0.0-9.0-2.0-0.1","1855","2","2","""event"",""trial"",""time""
""fullscreenenter"",""1"",""2177""
","
","
","""event"",""trial"",""time""
""fullscreenenter"",""1"",""2177""
","
","","","","","","null","<div style=""font-size:60px;"">+</div>","null","","fixation","","","","","","","","","","","","","",""
"learning-trial","89","472081","0.0-9.0-2.0-1.1","1855","2","2","""event"",""trial"",""time""
""fullscreenenter"",""1"",""2177""
","
","
","""event"",""trial"",""time""
""fullscreenenter"",""1"",""2177""
","
","","","","","","1949.1000000238419","images/straw1.png","","","learning","images/fruit_choice1.png","images/fruit_choice3.png","images/fruit_choice2.png","[0,2,1]","2","1","1","images/fruit_choice1.png","1","fruit","","straw","2","0"
"html-keyboard-response","90","472583","0.0-9.0-2.0-0.2","1855","2","2","""event"",""trial"",""time""
""fullscreenenter"",""1"",""2177""
","
","
","""event"",""trial"",""time""
""fullscreenenter"",""1"",""2177""
","
","","","","","","null","<div style=""font-size:60px;"">+</div>","null","","fixation","","","","","","","","","","","","","",""
"learning-trial","91","476584","0.0-9.0-2.0-1.2","1855","2","2","""event"",""trial"",""time""
""fullscreenenter"",""1"",""2177""
","
","
","""event"",""trial"",""time""
""fullscreenenter"",""1"",""2177""
","
","","","","","","1503.4000000059605","images/straw3.png","","","learning","images/fruit_choice2.png","images/fruit_choice3.png","images/fruit_choice1.png","[1,2,0]","1","0","1","images/fruit_choice2.png","1","fruit","","straw","2","0"
"html-keyboard-response","92","477085","0.0-9.0-2.0-0.3","1855","2","2","""event"",""trial"",""time""
""fullscreenenter"",""1"",""2177""
","
","
","""event"",""trial"",""time""
""fullscreenenter"",""1"",""2177""
","
","","","","","","null","<div style=""font-size:60px;"">+</div>","null","","fixation","","","","","","","","","","","","","",""
"learning-trial","93","481088","0.0-9.0-2.0-1.3","1855","2","2","""event"",""trial"",""time""
""fullscreenenter"",""1"",""2177""
","
","
","""event"",""trial"",""time""
""fullscreenenter"",""1"",""2177""
","
","","","","","","1646.8999999761581","images/straw2.png","","","learning","images/fruit_choice2.png","images/fruit_choice3.png","images/fruit_choice1.png","[1,2,0]","0","2","1","images/fruit_choice2.png","-1","fruit","","straw","2","0"
"html-keyboard-response","94","481589","0.0-9.0-2.0-0.4","1855","2","2","""event"",""trial"",""time""
""fullscreenenter"",""1"",""2177""
","
","
","""event"",""trial"",""time""
""fullscreenenter"",""1"",""2177""
","
","","","","","","null","<div style=""font-size:60px;"">+</div>","null","","fixation","","","","","","","","","","","","","",""
"learning-trial","95","485591","0.0-9.0-2.0-1.4","1855","2","2","""event"",""trial"",""time""
""fullscreenenter"",""1"",""2177""
","
","
","""event"",""trial"",""time""
""fullscreenenter"",""1"",""2177""
","
","","","","","","1756.0999999940395","images/straw3.png","","","learning","images/fruit_choice3.png","images/fruit_choice2.png","images/fruit_choice1.png","[2,1,0]","1","1","3","images/fruit_choice1.png","-1","fruit","","straw","2","0"
"html-keyboard-response","96","486093","0.0-9.0-2.0-0.5","1855","2","2","""event"",""trial"",""time""
""fullscreenenter"",""1"",""2177""
","
","
","""event"",""trial"",""time""
""fullscreenenter"",""1"",""2177""
","
","","","","","","null","<div style=""font-size:60px;"">+</div>","null","","fixation","","","","","","","","","","","","","",""
"learning-trial","97","490095","0.0-9.0-2.0-1.5","1855","2","2","""event"",""trial"",""time""
""fullscreenenter"",""1"",""2177""
","
","
","""event"",""trial"",""time""
""fullscreenenter"",""1"",""2177""
","
","","","","","","1370.5999999940395","images/apple5.png","","","learning","images/fruit_choice1.png","images/fruit_choice3.png","images/fruit_choice2.png","[0,2,1]","0","0","1","images/fruit_choice1.png","1","fruit","","apple","2","0"
"html-keyboard-response","98","490597","0.0-9.0-2.0-0.6","1855","2","2","""event"",""trial"",""time""
""fullscreenenter"",""1"",""2177""
","
","
","""event"",""trial"",""time""
""fullscreenenter"",""1"",""2177""
","
","","","","","","null","<div style=""font-size:60px;"">+</div>","null","","fixation","","","","","","","","","","","","","",""
"learning-trial","99","494602","0.0-9.0-2.0-1.6","1855","2","2","""event"",""trial"",""time""
""fullscreenenter"",""1"",""2177""
","
","
","""event"",""trial"",""time""
""fullscreenenter"",""1"",""2177""
","
","","","","","","1197","images/banana2.png","","","learning","images/fruit_choice1.png","images/fruit_choice2.png","images/fruit_choice3.png","[0,1,2]","1","1","2","images/fruit_choice2.png","1","fruit","","banana","2","0"
"html-keyboard-response","100","495102","0.0-9.0-2.0-0.7","1855","2","2","""event"",""trial"",""time""
""fullscreenenter"",""1"",""2177""
","
","
","""event"",""trial"",""time""
""fullscreenenter"",""1"",""2177""
","
","","","","","","null","<div style=""font-size:60px;"">+</div>","null","","fixation","","","","","","","","","","","","","",""
"learning-trial","101","499108","0.0-9.0-2.0-1.7","1855","2","2","""event"",""trial"",""time""
""fullscreenenter"",""1"",""2177""
","
","
","""event"",""trial"",""time""
""fullscreenenter"",""1"",""2177""
","
","","","","","","1923.0999999940395","images/straw2.png","","","learning","images/fruit_choice3.png","images/fruit_choice1.png","images/fruit_choice2.png","[2,0,1]","0","1","3","images/fruit_choice2.png","-1","fruit","","straw","2","0"
"html-keyboard-response","102","499612","0.0-9.0-2.0-0.8","1855","2","2","""event"",""trial"",""time""
""fullscreenenter"",""1"",""2177""
","
","
","""event"",""trial"",""time""
""fullscreenenter"",""1"",""2177""
","
","","","","","","null","<div style=""font-size:60px;"">+</div>","null","","fixation","","","","","","","","","","","","","",""
"learning-trial","103","503617","0.0-9.0-2.0-1.8","1855","2","2","""event"",""trial"",""time""
""fullscreenenter"",""1"",""2177""
","
","
","""event"",""trial"",""time""
""fullscreenenter"",""1"",""2177""
","
","","","","","","1283.3999999761581","images/straw3.png","","","learning","images/fruit_choice3.png","images/fruit_choice2.png","images/fruit_choice1.png","[2,1,0]","1","1","1","images/fruit_choice3.png","-1","fruit","","straw","2","0"
"html-keyboard-response","104","504117","0.0-9.0-2.0-0.9","1855","2","2","""event"",""trial"",""time""
""fullscreenenter"",""1"",""2177""
","
","
","""event"",""trial"",""time""
""fullscreenenter"",""1"",""2177""
","
","","","","","","null","<div style=""font-size:60px;"">+</div>","null","","fixation","","","","","","","","","","","","","",""
"learning-trial","105","508122","0.0-9.0-2.0-1.9","1855","2","2","""event"",""trial"",""time""
""fullscreenenter"",""1"",""2177""
","
","
","""event"",""trial"",""time""
""fullscreenenter"",""1"",""2177""
","
","","","","","","1863.0999999940395","images/banana3.png","","","learning","images/fruit_choice3.png","images/fruit_choice1.png","images/fruit_choice2.png","[2,0,1]","2","0","2","images/fruit_choice1.png","-1","fruit","","banana","2","0"
"html-keyboard-response","106","508628","0.0-9.0-2.0-0.10","1855","2","2","""event"",""trial"",""time""
""fullscreenenter"",""1"",""2177""
","
","
","""event"",""trial"",""time""
""fullscreenenter"",""1"",""2177""
","
","","","","","","null","<div style=""font-size:60px;"">+</div>","null","","fixation","","","","","","","","","","","","","",""
"learning-trial","107","512633","0.0-9.0-2.0-1.10","1855","2","2","""event"",""trial"",""time""
""fullscreenenter"",""1"",""2177""
","
","
","""event"",""trial"",""time""
""fullscreenenter"",""1"",""2177""
","
","","","","","","1391.5999999940395","images/apple4.png","","","learning","images/fruit_choice3.png","images/fruit_choice2.png","images/fruit_choice1.png","[2,1,0]","1","1","3","images/fruit_choice1.png","-1","fruit","","apple","2","0"
"html-keyboard-response","108","513138","0.0-9.0-2.0-0.11","1855","2","2","""event"",""trial"",""time""
""fullscreenenter"",""1"",""2177""
","
","
","""event"",""trial"",""time""
""fullscreenenter"",""1"",""2177""
","
","","","","","","null","<div style=""font-size:60px;"">+</div>","null","","fixation","","","","","","","","","","","","","",""
"learning-trial","109","517144","0.0-9.0-2.0-1.11","1855","2","2","""event"",""trial"",""time""
""fullscreenenter"",""1"",""2177""
","
","
","""event"",""trial"",""time""
""fullscreenenter"",""1"",""2177""
","
","","","","","","1111.4000000059605","images/apple1.png","","","learning","images/fruit_choice1.png","images/fruit_choice2.png","images/fruit_choice3.png","[0,1,2]","2","2","1","images/fruit_choice1.png","1","fruit","","apple","2","0"
"html-keyboard-response","110","517648","0.0-9.0-2.0-0.12","1855","2","2","""event"",""trial"",""time""
""fullscreenenter"",""1"",""2177""
","
","
","""event"",""trial"",""time""
""fullscreenenter"",""1"",""2177""
","
","","","","","","null","<div style=""font-size:60px;"">+</div>","null","","fixation","","","","","","","","","","","","","",""
"learning-trial","111","521654","0.0-9.0-2.0-1.12","1855","2","2","""event"",""trial"",""time""
""fullscreenenter"",""1"",""2177""
","
","
","""event"",""trial"",""time""
""fullscreenenter"",""1"",""2177""
","
","","","","","","809.5999999940395","images/apple1.png","","","learning","images/fruit_choice2.png","images/fruit_choice3.png","images/fruit_choice1.png","[1,2,0]","2","1","1","images/fruit_choice2.png","1","fruit","","apple","2","0"
"html-keyboard-response","112","522158","0.0-9.0-2.0-0.13","1855","2","2","""event"",""trial"",""time""
""fullscreenenter"",""1"",""2177""
","
","
","""event"",""trial"",""time""
""fullscreenenter"",""1"",""2177""
","
","","","","","","null","<div style=""font-size:60px;"">+</div>","null","","fixation","","","","","","","","","","","","","",""
"learning-trial","113","526163","0.0-9.0-2.0-1.13","1855","2","2","""event"",""trial"",""time""
""fullscreenenter"",""1"",""2177""
","
","
","""event"",""trial"",""time""
""fullscreenenter"",""1"",""2177""
","
","","","","","","1372.5","images/straw2.png","","","learning","images/fruit_choice1.png","images/fruit_choice2.png","images/fruit_choice3.png","[0,1,2]","0","0","2","images/fruit_choice2.png","-1","fruit","","straw","2","0"
"html-keyboard-response","114","526669","0.0-9.0-2.0-0.14","1855","2","2","""event"",""trial"",""time""
""fullscreenenter"",""1"",""2177""
","
","
","""event"",""trial"",""time""
""fullscreenenter"",""1"",""2177""
","
","","","","","","null","<div style=""font-size:60px;"">+</div>","null","","fixation","","","","","","","","","","","","","",""
"learning-trial","115","530674","0.0-9.0-2.0-1.14","1855","2","2","""event"",""trial"",""time""
""fullscreenenter"",""1"",""2177""
","
","
","""event"",""trial"",""time""
""fullscreenenter"",""1"",""2177""
","
","","","","","","1013.7000000178814","images/straw1.png","","","learning","images/fruit_choice1.png","images/fruit_choice3.png","images/fruit_choice2.png","[0,2,1]","2","1","1","images/fruit_choice1.png","-1","fruit","","straw","2","0"
"html-keyboard-response","116","531179","0.0-9.0-2.0-0.15","1855","2","2","""event"",""trial"",""time""
""fullscreenenter"",""1"",""2177""
","
","
","""event"",""trial"",""time""
""fullscreenenter"",""1"",""2177""
","
","","","","","","null","<div style=""font-size:60px;"">+</div>","null","","fixation","","","","","","","","","","","","","",""
"learning-trial","117","535184","0.0-9.0-2.0-1.15","1855","2","2","""event"",""trial"",""time""
""fullscreenenter"",""1"",""2177""
","
","
","""event"",""trial"",""time""
""fullscreenenter"",""1"",""2177""
","
","","","","","","1700.7000000178814","images/apple4.png","","","learning","images/fruit_choice1.png","images/fruit_choice2.png","images/fruit_choice3.png","[0,1,2]","1","1","2","images/fruit_choice2.png","1","fruit","","apple","2","0"
"html-keyboard-response","118","535685","0.0-9.0-2.0-0.16","1855","2","2","""event"",""trial"",""time""
""fullscreenenter"",""1"",""2177""
","
","
","""event"",""trial"",""time""
""fullscreenenter"",""1"",""2177""
","
","","","","","","null","<div style=""font-size:60px;"">+</div>","null","","fixation","","","","","","","","","","","","","",""
"learning-trial","119","539687","0.0-9.0-2.0-1.16","1855","2","2","""event"",""trial"",""time""
""fullscreenenter"",""1"",""2177""
","
","
","""event"",""trial"",""time""
""fullscreenenter"",""1"",""2177""
","
","","","","","","1526.7999999821186","images/straw3.png","","","learning","images/fruit_choice1.png","images/fruit_choice2.png","images/fruit_choice3.png","[0,1,2]","1","1","3","images/fruit_choice3.png","-1","fruit","","straw","2","0"
"html-keyboard-response","120","540188","0.0-9.0-2.0-0.17","1855","2","2","""event"",""trial"",""time""
""fullscreenenter"",""1"",""2177""
","
","
","""event"",""trial"",""time""
""fullscreenenter"",""1"",""2177""
","
","","","","","","null","<div style=""font-size:60px;"">+</div>","null","","fixation","","","","","","","","","","","","","",""
"learning-trial","121","544192","0.0-9.0-2.0-1.17","1855","2","2","""event"",""trial"",""time""
""fullscreenenter"",""1"",""2177""
","
","
","""event"",""trial"",""time""
""fullscreenenter"",""1"",""2177""
","
","","","","","","2029.800000011921","images/apple5.png","","","learning","images/fruit_choice3.png","images/fruit_choice1.png","images/fruit_choice2.png","[2,0,1]","0","1","3","images/fruit_choice2.png","-1","fruit","","apple","2","0"
"html-keyboard-response","122","544696","0.0-9.0-2.0-0.18","1855","2","2","""event"",""trial"",""time""
""fullscreenenter"",""1"",""2177""
","
","
","""event"",""trial"",""time""
""fullscreenenter"",""1"",""2177""
","
","","","","","","null","<div style=""font-size:60px;"">+</div>","null","","fixation","","","","","","","","","","","","","",""
"learning-trial","123","548698","0.0-9.0-2.0-1.18","1855","2","2","""event"",""trial"",""time""
""fullscreenenter"",""1"",""2177""
","
","
","""event"",""trial"",""time""
""fullscreenenter"",""1"",""2177""
","
","","","","","","1088.2999999821186","images/banana2.png","","","learning","images/fruit_choice3.png","images/fruit_choice2.png","images/fruit_choice1.png","[2,1,0]","1","1","1","images/fruit_choice3.png","-1","fruit","","banana","2","0"
"html-keyboard-response","124","549203","0.0-9.0-2.0-0.19","1855","2","2","""event"",""trial"",""time""
""fullscreenenter"",""1"",""2177""
","
","
","""event"",""trial"",""time""
""fullscreenenter"",""1"",""2177""
","
","","","","","","null","<div style=""font-size:60px;"">+</div>","null","","fixation","","","","","","","","","","","","","",""
"learning-trial","125","553208","0.0-9.0-2.0-1.19","1855","2","2","""event"",""trial"",""time""
""fullscreenenter"",""1"",""2177""
","
","
","""event"",""trial"",""time""
""fullscreenenter"",""1"",""2177""
","
","","","","","","766.5999999940395","images/banana1.png","","","learning","images/fruit_choice2.png","images/fruit_choice1.png","images/fruit_choice3.png","[1,0,2]","0","1","2","images/fruit_choice1.png","1","fruit","","banana","2","0"
"html-keyboard-response","126","553713","0.0-9.0-2.0-0.20","1855","2","2","""event"",""trial"",""time""
""fullscreenenter"",""1"",""2177""
","
","
","""event"",""trial"",""time""
""fullscreenenter"",""1"",""2177""
","
","","","","","","null","<div style=""font-size:60px;"">+</div>","null","","fixation","","","","","","","","","","","","","",""
"learning-trial","127","557718","0.0-9.0-2.0-1.20","1855","2","2","""event"",""trial"",""time""
""fullscreenenter"",""1"",""2177""
","
","
","""event"",""trial"",""time""
""fullscreenenter"",""1"",""2177""
","
","","","","","","711.2000000178814","images/straw1.png","","","learning","images/fruit_choice2.png","images/fruit_choice3.png","images/fruit_choice1.png","[1,2,0]","2","1","1","images/fruit_choice2.png","-1","fruit","","straw","2","0"
"html-keyboard-response","128","558223","0.0-9.0-2.0-0.21","1855","2","2","""event"",""trial"",""time""
""fullscreenenter"",""1"",""2177""
","
","
","""event"",""trial"",""time""
""fullscreenenter"",""1"",""2177""
","
","","","","","","null","<div style=""font-size:60px;"">+</div>","null","","fixation","","","","","","","","","","","","","",""
"learning-trial","129","562229","0.0-9.0-2.0-1.21","1855","2","2","""event"",""trial"",""time""
""fullscreenenter"",""1"",""2177""
","
","
","""event"",""trial"",""time""
""fullscreenenter"",""1"",""2177""
","
","","","","","","577.5","images/apple1.png","","","learning","images/fruit_choice2.png","images/fruit_choice1.png","images/fruit_choice3.png","[1,0,2]","2","2","3","images/fruit_choice3.png","1","fruit","","apple","2","0"
"html-keyboard-response","130","562733","0.0-9.0-2.0-0.22","1855","2","2","""event"",""trial"",""time""
""fullscreenenter"",""1"",""2177""
","
","
","""event"",""trial"",""time""
""fullscreenenter"",""1"",""2177""
","
","","","","","","null","<div style=""font-size:60px;"">+</div>","null","","fixation","","","","","","","","","","","","","",""
"learning-trial","131","566739","0.0-9.0-2.0-1.22","1855","2","2","""event"",""trial"",""time""
""fullscreenenter"",""1"",""2177""
","
","
","""event"",""trial"",""time""
""fullscreenenter"",""1"",""2177""
","
","","","","","","800.8000000119209","images/banana1.png","","","learning","images/fruit_choice3.png","images/fruit_choice2.png","images/fruit_choice1.png","[2,1,0]","0","2","3","images/fruit_choice1.png","1","fruit","","banana","2","0"
"html-keyboard-response","132","567244","0.0-9.0-2.0-0.23","1855","2","2","""event"",""trial"",""time""
""fullscreenenter"",""1"",""2177""
","
","
","""event"",""trial"",""time""
""fullscreenenter"",""1"",""2177""
","
","","","","","","null","<div style=""font-size:60px;"">+</div>","null","","fixation","","","","","","","","","","","","","",""
"learning-trial","133","571249","0.0-9.0-2.0-1.23","1855","2","2","""event"",""trial"",""time""
""fullscreenenter"",""1"",""2177""
","
","
","""event"",""trial"",""time""
""fullscreenenter"",""1"",""2177""
","
","","","","","","557.4000000059605","images/straw1.png","","","learning","images/fruit_choice1.png","images/fruit_choice3.png","images/fruit_choice2.png","[0,2,1]","2","1","3","images/fruit_choice2.png","-1","fruit","","straw","2","0"
"html-keyboard-response","134","571753","0.0-9.0-2.0-0.24","1855","2","2","""event"",""trial"",""time""
""fullscreenenter"",""1"",""2177""
","
","
","""event"",""trial"",""time""
""fullscreenenter"",""1"",""2177""
","
","","","","","","null","<div style=""font-size:60px;"">+</div>","null","","fixation","","","","","","","","","","","","","",""
"learning-trial","135","575759","0.0-9.0-2.0-1.24","1855","2","2","""event"",""trial"",""time""
""fullscreenenter"",""1"",""2177""
","
","
","""event"",""trial"",""time""
""fullscreenenter"",""1"",""2177""
","
","","","","","","604","images/straw2.png","","","learning","images/fruit_choice1.png","images/fruit_choice3.png","images/fruit_choice2.png","[0,2,1]","0","0","2","images/fruit_choice3.png","1","fruit","","straw","2","0"
"html-keyboard-response","136","576264","0.0-9.0-2.0-0.25","1855","2","2","""event"",""trial"",""time""
""fullscreenenter"",""1"",""2177""
","
","
","""event"",""trial"",""time""
""fullscreenenter"",""1"",""2177""
","
","","","","","","null","<div style=""font-size:60px;"">+</div>","null","","fixation","","","","","","","","","","","","","",""
"learning-trial","137","580270","0.0-9.0-2.0-1.25","1855","2","2","""event"",""trial"",""time""
""fullscreenenter"",""1"",""2177""
","
","
","""event"",""trial"",""time""
""fullscreenenter"",""1"",""2177""
","
","","","","","","469.5","images/banana3.png","","","learning","images/fruit_choice3.png","images/fruit_choice1.png","images/fruit_choice2.png","[2,0,1]","2","0","2","images/fruit_choice1.png","-1","fruit","","banana","2","0"
"html-keyboard-response","138","580774","0.0-9.0-2.0-0.26","1855","2","2","""event"",""trial"",""time""
""fullscreenenter"",""1"",""2177""
","
","
","""event"",""trial"",""time""
""fullscreenenter"",""1"",""2177""
","
","","","","","","null","<div style=""font-size:60px;"">+</div>","null","","fixation","","","","","","","","","","","","","",""
"learning-trial","139","584780","0.0-9.0-2.0-1.26","1855","2","2","""event"",""trial"",""time""
""fullscreenenter"",""1"",""2177""
","
","
","""event"",""trial"",""time""
""fullscreenenter"",""1"",""2177""
","
","","","","","","392.5","images/banana1.png","","","learning","images/fruit_choice1.png","images/fruit_choice3.png","images/fruit_choice2.png","[0,2,1]","0","0","2","images/fruit_choice3.png","1","fruit","","banana","2","0"
"html-keyboard-response","140","585281","0.0-9.0-2.0-0.27","1855","2","2","""event"",""trial"",""time""
""fullscreenenter"",""1"",""2177""
","
","
","""event"",""trial"",""time""
""fullscreenenter"",""1"",""2177""
","
","","","","","","null","<div style=""font-size:60px;"">+</div>","null","","fixation","","","","","","","","","","","","","",""
"learning-trial","141","589284","0.0-9.0-2.0-1.27","1855","2","2","""event"",""trial"",""time""
""fullscreenenter"",""1"",""2177""
","
","
","""event"",""trial"",""time""
""fullscreenenter"",""1"",""2177""
","
","","","","","","610.5","images/banana2.png","","","learning","images/fruit_choice2.png","images/fruit_choice1.png","images/fruit_choice3.png","[1,0,2]","1","0","2","images/fruit_choice1.png","-1","fruit","","banana","2","0"
"html-keyboard-response","142","589785","0.0-9.0-2.0-0.28","1855","2","2","""event"",""trial"",""time""
""fullscreenenter"",""1"",""2177""
","
","
","""event"",""trial"",""time""
""fullscreenenter"",""1"",""2177""
","
","","","","","","null","<div style=""font-size:60px;"">+</div>","null","","fixation","","","","","","","","","","","","","",""
"learning-trial","143","593788","0.0-9.0-2.0-1.28","1855","2","2","""event"",""trial"",""time""
""fullscreenenter"",""1"",""2177""
","
","
","""event"",""trial"",""time""
""fullscreenenter"",""1"",""2177""
","
","","","","","","460","images/straw2.png","","","learning","images/fruit_choice3.png","images/fruit_choice2.png","images/fruit_choice1.png","[2,1,0]","0","2","2","images/fruit_choice2.png","-1","fruit","","straw","2","0"
"html-keyboard-response","144","594290","0.0-9.0-2.0-0.29","1855","2","2","""event"",""trial"",""time""
""fullscreenenter"",""1"",""2177""
","
","
","""event"",""trial"",""time""
""fullscreenenter"",""1"",""2177""
","
","","","","","","null","<div style=""font-size:60px;"">+</div>","null","","fixation","","","","","","","","","","","","","",""
"learning-trial","145","598293","0.0-9.0-2.0-1.29","1855","2","2","""event"",""trial"",""time""
""fullscreenenter"",""1"",""2177""
","
","
","""event"",""trial"",""time""
""fullscreenenter"",""1"",""2177""
","
","","","","","","939.2999999821186","images/apple5.png","","","learning","images/fruit_choice3.png","images/fruit_choice1.png","images/fruit_choice2.png","[2,0,1]","0","1","1","images/fruit_choice3.png","-1","fruit","","apple","2","0"
"html-keyboard-response","146","598797","0.0-9.0-2.0-0.30","1855","2","2","""event"",""trial"",""time""
""fullscreenenter"",""1"",""2177""
","
","
","""event"",""trial"",""time""
""fullscreenenter"",""1"",""2177""
","
","","","","","","null","<div style=""font-size:60px;"">+</div>","null","","fixation","","","","","","","","","","","","","",""
"learning-trial","147","602803","0.0-9.0-2.0-1.30","1855","2","2","""event"",""trial"",""time""
""fullscreenenter"",""1"",""2177""
","
","
","""event"",""trial"",""time""
""fullscreenenter"",""1"",""2177""
","
","","","","","","1662.9000000059605","images/apple5.png","","","learning","images/fruit_choice1.png","images/fruit_choice3.png","images/fruit_choice2.png","[0,2,1]","0","0","2","images/fruit_choice3.png","-1","fruit","","apple","2","0"
"html-keyboard-response","148","603308","0.0-9.0-2.0-0.31","1855","2","2","""event"",""trial"",""time""
""fullscreenenter"",""1"",""2177""
","
","
","""event"",""trial"",""time""
""fullscreenenter"",""1"",""2177""
","
","","","","","","null","<div style=""font-size:60px;"">+</div>","null","","fixation","","","","","","","","","","","","","",""
"learning-trial","149","607314","0.0-9.0-2.0-1.31","1855","2","2","""event"",""trial"",""time""
""fullscreenenter"",""1"",""2177""
","
","
","""event"",""trial"",""time""
""fullscreenenter"",""1"",""2177""
","
","","","","","","1055.7000000178814","images/apple4.png","","","learning","images/fruit_choice2.png","images/fruit_choice3.png","images/fruit_choice1.png","[1,2,0]","1","0","1","images/fruit_choice2.png","1","fruit","","apple","2","0"
"html-keyboard-response","150","607819","0.0-9.0-2.0-0.32","1855","2","2","""event"",""trial"",""time""
""fullscreenenter"",""1"",""2177""
","
","
","""event"",""trial"",""time""
""fullscreenenter"",""1"",""2177""
","
","","","","","","null","<div style=""font-size:60px;"">+</div>","null","","fixation","","","","","","","","","","","","","",""
"learning-trial","151","611824","0.0-9.0-2.0-1.32","1855","2","2","""event"",""trial"",""time""
""fullscreenenter"",""1"",""2177""
","
","
","""event"",""trial"",""time""
""fullscreenenter"",""1"",""2177""
","
","","","","","","1946.300000011921","images/apple1.png","","","learning","images/fruit_choice2.png","images/fruit_choice3.png","images/fruit_choice1.png","[1,2,0]","2","1","1","images/fruit_choice2.png","-1","fruit","","apple","2","0"
"html-keyboard-response","152","612329","0.0-9.0-2.0-0.33","1855","2","2","""event"",""trial"",""time""
""fullscreenenter"",""1"",""2177""
","
","
","""event"",""trial"",""time""
""fullscreenenter"",""1"",""2177""
","
","","","","","","null","<div style=""font-size:60px;"">+</div>","null","","fixation","","","","","","","","","","","","","",""
"learning-trial","153","616334","0.0-9.0-2.0-1.33","1855","2","2","""event"",""trial"",""time""
""fullscreenenter"",""1"",""2177""
","
","
","""event"",""trial"",""time""
""fullscreenenter"",""1"",""2177""
","
","","","","","","1418","images/banana3.png","","","learning","images/fruit_choice2.png","images/fruit_choice1.png","images/fruit_choice3.png","[1,0,2]","2","2","1","images/fruit_choice2.png","-1","fruit","","banana","2","0"
"html-keyboard-response","154","616839","0.0-9.0-2.0-0.34","1855","2","2","""event"",""trial"",""time""
""fullscreenenter"",""1"",""2177""
","
","
","""event"",""trial"",""time""
""fullscreenenter"",""1"",""2177""
","
","","","","","","null","<div style=""font-size:60px;"">+</div>","null","","fixation","","","","","","","","","","","","","",""
"learning-trial","155","620844","0.0-9.0-2.0-1.34","1855","2","2","""event"",""trial"",""time""
""fullscreenenter"",""1"",""2177""
","
","
","""event"",""trial"",""time""
""fullscreenenter"",""1"",""2177""
","
","","","","","","2454.5999999940395","images/straw1.png","","","learning","images/fruit_choice3.png","images/fruit_choice2.png","images/fruit_choice1.png","[2,1,0]","2","0","1","images/fruit_choice3.png","1","fruit","","straw","2","0"
"html-keyboard-response","156","621349","0.0-9.0-2.0-0.35","1855","2","2","""event"",""trial"",""time""
""fullscreenenter"",""1"",""2177""
","
","
","""event"",""trial"",""time""
""fullscreenenter"",""1"",""2177""
","
","","","","","","null","<div style=""font-size:60px;"">+</div>","null","","fixation","","","","","","","","","","","","","",""
"learning-trial","157","625355","0.0-9.0-2.0-1.35","1855","2","2","""event"",""trial"",""time""
""fullscreenenter"",""1"",""2177""
","
","
","""event"",""trial"",""time""
""fullscreenenter"",""1"",""2177""
","
","","","","","","1847.9000000059605","images/banana2.png","","","learning","images/fruit_choice3.png","images/fruit_choice2.png","images/fruit_choice1.png","[2,1,0]","1","1","1","images/fruit_choice3.png","-1","fruit","","banana","2","0"
"html-keyboard-response","158","625860","0.0-9.0-2.0-0.36","1855","2","2","""event"",""trial"",""time""
""fullscreenenter"",""1"",""2177""
","
","
","""event"",""trial"",""time""
""fullscreenenter"",""1"",""2177""
","
","","","","","","null","<div style=""font-size:60px;"">+</div>","null","","fixation","","","","","","","","","","","","","",""
"learning-trial","159","629865","0.0-9.0-2.0-1.36","1855","2","2","""event"",""trial"",""time""
""fullscreenenter"",""1"",""2177""
","
","
","""event"",""trial"",""time""
""fullscreenenter"",""1"",""2177""
","
","","","","","","2299","images/apple1.png","","","learning","images/fruit_choice3.png","images/fruit_choice2.png","images/fruit_choice1.png","[2,1,0]","2","0","3","images/fruit_choice1.png","-1","fruit","","apple","2","0"
"html-keyboard-response","160","630370","0.0-9.0-2.0-0.37","1855","2","2","""event"",""trial"",""time""
""fullscreenenter"",""1"",""2177""
","
","
","""event"",""trial"",""time""
""fullscreenenter"",""1"",""2177""
","
","","","","","","null","<div style=""font-size:60px;"">+</div>","null","","fixation","","","","","","","","","","","","","",""
"learning-trial","161","634375","0.0-9.0-2.0-1.37","1855","2","2","""event"",""trial"",""time""
""fullscreenenter"",""1"",""2177""
","
","
","""event"",""trial"",""time""
""fullscreenenter"",""1"",""2177""
","
","","","","","","1917.7000000178814","images/banana1.png","","","learning","images/fruit_choice3.png","images/fruit_choice1.png","images/fruit_choice2.png","[2,0,1]","0","1","3","images/fruit_choice2.png","1","fruit","","banana","2","0"
"html-keyboard-response","162","634880","0.0-9.0-2.0-0.38","1855","2","2","""event"",""trial"",""time""
""fullscreenenter"",""1"",""2177""
","
","
","""event"",""trial"",""time""
""fullscreenenter"",""1"",""2177""
","
","","","","","","null","<div style=""font-size:60px;"">+</div>","null","","fixation","","","","","","","","","","","","","",""
"learning-trial","163","638883","0.0-9.0-2.0-1.38","1855","2","2","""event"",""trial"",""time""
""fullscreenenter"",""1"",""2177""
","
","
","""event"",""trial"",""time""
""fullscreenenter"",""1"",""2177""
","
","","","","","","782.5","images/banana1.png","","","learning","images/fruit_choice1.png","images/fruit_choice3.png","images/fruit_choice2.png","[0,2,1]","0","0","3","images/fruit_choice2.png","-1","fruit","","banana","2","0"
"html-keyboard-response","164","639385","0.0-9.0-2.0-0.39","1855","2","2","""event"",""trial"",""time""
""fullscreenenter"",""1"",""2177""
","
","
","""event"",""trial"",""time""
""fullscreenenter"",""1"",""2177""
","
","","","","","","null","<div style=""font-size:60px;"">+</div>","null","","fixation","","","","","","","","","","","","","",""
"learning-trial","165","643389","0.0-9.0-2.0-1.39","1855","2","2","""event"",""trial"",""time""
""fullscreenenter"",""1"",""2177""
","
","
","""event"",""trial"",""time""
""fullscreenenter"",""1"",""2177""
","
","","","","","","969.3000000119209","images/banana3.png","","","learning","images/fruit_choice2.png","images/fruit_choice3.png","images/fruit_choice1.png","[1,2,0]","2","1","2","images/fruit_choice3.png","1","fruit","","banana","2","0"
"html-keyboard-response","166","643893","0.0-9.0-2.0-0.40","1855","2","2","""event"",""trial"",""time""
""fullscreenenter"",""1"",""2177""
","
","
","""event"",""trial"",""time""
""fullscreenenter"",""1"",""2177""
","
","","","","","","null","<div style=""font-size:60px;"">+</div>","null","","fixation","","","","","","","","","","","","","",""
"learning-trial","167","647895","0.0-9.0-2.0-1.40","1855","2","2","""event"",""trial"",""time""
""fullscreenenter"",""1"",""2177""
","
","
","""event"",""trial"",""time""
""fullscreenenter"",""1"",""2177""
","
","","","","","","849","images/apple5.png","","","learning","images/fruit_choice2.png","images/fruit_choice3.png","images/fruit_choice1.png","[1,2,0]","0","2","1","images/fruit_choice2.png","-1","fruit","","apple","2","0"
"html-keyboard-response","168","648399","0.0-9.0-2.0-0.41","1855","2","2","""event"",""trial"",""time""
""fullscreenenter"",""1"",""2177""
","
","
","""event"",""trial"",""time""
""fullscreenenter"",""1"",""2177""
","
","","","","","","null","<div style=""font-size:60px;"">+</div>","null","","fixation","","","","","","","","","","","","","",""
"learning-trial","169","652405","0.0-9.0-2.0-1.41","1855","2","2","""event"",""trial"",""time""
""fullscreenenter"",""1"",""2177""
","
","
","""event"",""trial"",""time""
""fullscreenenter"",""1"",""2177""
","
","","","","","","583.5999999940395","images/banana3.png","","","learning","images/fruit_choice3.png","images/fruit_choice1.png","images/fruit_choice2.png","[2,0,1]","2","0","2","images/fruit_choice1.png","-1","fruit","","banana","2","0"
"html-keyboard-response","170","652910","0.0-9.0-2.0-0.42","1855","2","2","""event"",""trial"",""time""
""fullscreenenter"",""1"",""2177""
","
","
","""event"",""trial"",""time""
""fullscreenenter"",""1"",""2177""
","
","","","","","","null","<div style=""font-size:60px;"">+</div>","null","","fixation","","","","","","","","","","","","","",""
"learning-trial","171","656915","0.0-9.0-2.0-1.42","1855","2","2","""event"",""trial"",""time""
""fullscreenenter"",""1"",""2177""
","
","
","""event"",""trial"",""time""
""fullscreenenter"",""1"",""2177""
","
","","","","","","449.69999998807907","images/apple4.png","","","learning","images/fruit_choice2.png","images/fruit_choice3.png","images/fruit_choice1.png","[1,2,0]","1","0","3","images/fruit_choice1.png","-1","fruit","","apple","2","0"
"html-keyboard-response","172","657420","0.0-9.0-2.0-0.43","1855","2","2","""event"",""trial"",""time""
""fullscreenenter"",""1"",""2177""
","
","
","""event"",""trial"",""time""
""fullscreenenter"",""1"",""2177""
","
","","","","","","null","<div style=""font-size:60px;"">+</div>","null","","fixation","","","","","","","","","","","","","",""
"learning-trial","173","661425","0.0-9.0-2.0-1.43","1855","2","2","""event"",""trial"",""time""
""fullscreenenter"",""1"",""2177""
","
","
","""event"",""trial"",""time""
""fullscreenenter"",""1"",""2177""
","
","","","","","","844.8000000119209","images/banana1.png","","","learning","images/fruit_choice1.png","images/fruit_choice3.png","images/fruit_choice2.png","[0,2,1]","0","0","1","images/fruit_choice1.png","1","fruit","","banana","2","0"
"html-keyboard-response","174","661930","0.0-9.0-2.0-0.44","1855","2","2","""event"",""trial"",""time""
""fullscreenenter"",""1"",""2177""
","
","
","""event"",""trial"",""time""
""fullscreenenter"",""1"",""2177""
","
","","","","","","null","<div style=""font-size:60px;"">+</div>","null","","fixation","","","","","","","","","","","","","",""
"learning-trial","175","665936","0.0-9.0-2.0-1.44","1855","2","2","""event"",""trial"",""time""
""fullscreenenter"",""1"",""2177""
","
","
","""event"",""trial"",""time""
""fullscreenenter"",""1"",""2177""
","
","","","","","","1307.6000000238419","images/banana1.png","","","learning","images/fruit_choice1.png","images/fruit_choice3.png","images/fruit_choice2.png","[0,2,1]","0","0","1","images/fruit_choice1.png","1","fruit","","banana","2","0"
"html-keyboard-response","176","666440","0.0-9.0-2.0-0.45","1855","2","2","""event"",""trial"",""time""
""fullscreenenter"",""1"",""2177""
","
","
","""event"",""trial"",""time""
""fullscreenenter"",""1"",""2177""
","
","","","","","","null","<div style=""font-size:60px;"">+</div>","null","","fixation","","","","","","","","","","","","","",""
"learning-trial","177","670445","0.0-9.0-2.0-1.45","1855","2","2","""event"",""trial"",""time""
""fullscreenenter"",""1"",""2177""
","
","
","""event"",""trial"",""time""
""fullscreenenter"",""1"",""2177""
","
","","","","","","1285.4000000059605","images/straw2.png","","","learning","images/fruit_choice3.png","images/fruit_choice2.png","images/fruit_choice1.png","[2,1,0]","0","2","2","images/fruit_choice2.png","1","fruit","","straw","2","0"
"html-keyboard-response","178","670951","0.0-9.0-2.0-0.46","1855","2","2","""event"",""trial"",""time""
""fullscreenenter"",""1"",""2177""
","
","
","""event"",""trial"",""time""
""fullscreenenter"",""1"",""2177""
","
","","","","","","null","<div style=""font-size:60px;"">+</div>","null","","fixation","","","","","","","","","","","","","",""
"learning-trial","179","674953","0.0-9.0-2.0-1.46","1855","2","2","""event"",""trial"",""time""
""fullscreenenter"",""1"",""2177""
","
","
","""event"",""trial"",""time""
""fullscreenenter"",""1"",""2177""
","
","","","","","","2783.0999999940395","images/straw3.png","","","learning","images/fruit_choice2.png","images/fruit_choice3.png","images/fruit_choice1.png","[1,2,0]","1","0","1","images/fruit_choice2.png","1","fruit","","straw","2","0"
"html-keyboard-response","180","675455","0.0-9.0-2.0-0.47","1855","2","2","""event"",""trial"",""time""
""fullscreenenter"",""1"",""2177""
","
","
","""event"",""trial"",""time""
""fullscreenenter"",""1"",""2177""
","
","","","","","","null","<div style=""font-size:60px;"">+</div>","null","","fixation","","","","","","","","","","","","","",""
"learning-trial","181","679458","0.0-9.0-2.0-1.47","1855","2","2","""event"",""trial"",""time""
""fullscreenenter"",""1"",""2177""
","
","
","""event"",""trial"",""time""
""fullscreenenter"",""1"",""2177""
","
","","","","","","2598.7999999821186","images/banana3.png","","","learning","images/fruit_choice3.png","images/fruit_choice1.png","images/fruit_choice2.png","[2,0,1]","2","0","3","images/fruit_choice2.png","-1","fruit","","banana","2","0"
"html-keyboard-response","182","679960","0.0-9.0-2.0-0.48","1855","2","2","""event"",""trial"",""time""
""fullscreenenter"",""1"",""2177""
","
","
","""event"",""trial"",""time""
""fullscreenenter"",""1"",""2177""
","
","","","","","","null","<div style=""font-size:60px;"">+</div>","null","","fixation","","","","","","","","","","","","","",""
"learning-trial","183","683964","0.0-9.0-2.0-1.48","1855","2","2","""event"",""trial"",""time""
""fullscreenenter"",""1"",""2177""
","
","
","""event"",""trial"",""time""
""fullscreenenter"",""1"",""2177""
","
","","","","","","3123.300000011921","images/straw3.png","","","learning","images/fruit_choice1.png","images/fruit_choice2.png","images/fruit_choice3.png","[0,1,2]","1","1","2","images/fruit_choice2.png","1","fruit","","straw","2","0"
"html-keyboard-response","184","684470","0.0-9.0-2.0-0.49","1855","2","2","""event"",""trial"",""time""
""fullscreenenter"",""1"",""2177""
","
","
","""event"",""trial"",""time""
""fullscreenenter"",""1"",""2177""
","
","","","","","","null","<div style=""font-size:60px;"">+</div>","null","","fixation","","","","","","","","","","","","","",""
"learning-trial","185","688475","0.0-9.0-2.0-1.49","1855","2","2","""event"",""trial"",""time""
""fullscreenenter"",""1"",""2177""
","
","
","""event"",""trial"",""time""
""fullscreenenter"",""1"",""2177""
","
","","","","","","1144.199999988079","images/straw3.png","","","learning","images/fruit_choice1.png","images/fruit_choice3.png","images/fruit_choice2.png","[0,2,1]","1","2","3","images/fruit_choice2.png","1","fruit","","straw","2","0"
"html-keyboard-response","186","688977","0.0-9.0-2.0-0.50","1855","2","2","""event"",""trial"",""time""
""fullscreenenter"",""1"",""2177""
","
","
","""event"",""trial"",""time""
""fullscreenenter"",""1"",""2177""
","
","","","","","","null","<div style=""font-size:60px;"">+</div>","null","","fixation","","","","","","","","","","","","","",""
"learning-trial","187","692980","0.0-9.0-2.0-1.50","1855","2","2","""event"",""trial"",""time""
""fullscreenenter"",""1"",""2177""
","
","
","""event"",""trial"",""time""
""fullscreenenter"",""1"",""2177""
","
","","","","","","1171.5","images/apple4.png","","","learning","images/fruit_choice1.png","images/fruit_choice3.png","images/fruit_choice2.png","[0,2,1]","1","2","1","images/fruit_choice1.png","-1","fruit","","apple","2","0"
"html-keyboard-response","188","693482","0.0-9.0-2.0-0.51","1855","2","2","""event"",""trial"",""time""
""fullscreenenter"",""1"",""2177""
","
","
","""event"",""trial"",""time""
""fullscreenenter"",""1"",""2177""
","
","","","","","","null","<div style=""font-size:60px;"">+</div>","null","","fixation","","","","","","","","","","","","","",""
"learning-trial","189","697484","0.0-9.0-2.0-1.51","1855","2","2","""event"",""trial"",""time""
""fullscreenenter"",""1"",""2177""
","
","
","""event"",""trial"",""time""
""fullscreenenter"",""1"",""2177""
","
","","","","","","1324.199999988079","images/apple4.png","","","learning","images/fruit_choice2.png","images/fruit_choice1.png","images/fruit_choice3.png","[1,0,2]","1","0","1","images/fruit_choice2.png","1","fruit","","apple","2","0"
"html-keyboard-response","190","697987","0.0-9.0-2.0-0.52","1855","2","2","""event"",""trial"",""time""
""fullscreenenter"",""1"",""2177""
","
","
","""event"",""trial"",""time""
""fullscreenenter"",""1"",""2177""
","
","","","","","","null","<div style=""font-size:60px;"">+</div>","null","","fixation","","","","","","","","","","","","","",""
"learning-trial","191","701989","0.0-9.0-2.0-1.52","1855","2","2","""event"",""trial"",""time""
""fullscreenenter"",""1"",""2177""
","
","
","""event"",""trial"",""time""
""fullscreenenter"",""1"",""2177""
","
","","","","","","1522.1000000238419","images/banana2.png","","","learning","images/fruit_choice1.png","images/fruit_choice2.png","images/fruit_choice3.png","[0,1,2]","1","1","3","images/fruit_choice3.png","-1","fruit","","banana","2","0"
"html-keyboard-response","192","702493","0.0-9.0-2.0-0.53","1855","2","2","""event"",""trial"",""time""
""fullscreenenter"",""1"",""2177""
","
","
","""event"",""trial"",""time""
""fullscreenenter"",""1"",""2177""
","
","","","","","","null","<div style=""font-size:60px;"">+</div>","null","","fixation","","","","","","","","","","","","","",""
"learning-trial","193","706499","0.0-9.0-2.0-1.53","1855","2","2","""event"",""trial"",""time""
""fullscreenenter"",""1"",""2177""
","
","
","""event"",""trial"",""time""
""fullscreenenter"",""1"",""2177""
","
","","","","","","1988.4000000059605","images/apple5.png","","","learning","images/fruit_choice2.png","images/fruit_choice1.png","images/fruit_choice3.png","[1,0,2]","0","1","2","images/fruit_choice1.png","1","fruit","","apple","2","0"
"html-keyboard-response","194","707004","0.0-9.0-2.0-0.54","1855","2","2","""event"",""trial"",""time""
""fullscreenenter"",""1"",""2177""
","
","
","""event"",""trial"",""time""
""fullscreenenter"",""1"",""2177""
","
","","","","","","null","<div style=""font-size:60px;"">+</div>","null","","fixation","","","","","","","","","","","","","",""
"learning-trial","195","711009","0.0-9.0-2.0-1.54","1855","2","2","""event"",""trial"",""time""
""fullscreenenter"",""1"",""2177""
","
","
","""event"",""trial"",""time""
""fullscreenenter"",""1"",""2177""
","
","","","","","","1291.199999988079","images/banana2.png","","","learning","images/fruit_choice2.png","images/fruit_choice1.png","images/fruit_choice3.png","[1,0,2]","1","0","1","images/fruit_choice2.png","1","fruit","","banana","2","0"
"html-keyboard-response","196","711514","0.0-9.0-2.0-0.55","1855","2","2","""event"",""trial"",""time""
""fullscreenenter"",""1"",""2177""
","
","
","""event"",""trial"",""time""
""fullscreenenter"",""1"",""2177""
","
","","","","","","null","<div style=""font-size:60px;"">+</div>","null","","fixation","","","","","","","","","","","","","",""
"learning-trial","197","715519","0.0-9.0-2.0-1.55","1855","2","2","""event"",""trial"",""time""
""fullscreenenter"",""1"",""2177""
","
","
","""event"",""trial"",""time""
""fullscreenenter"",""1"",""2177""
","
","","","","","","1922.5999999940395","images/banana3.png","","","learning","images/fruit_choice3.png","images/fruit_choice2.png","images/fruit_choice1.png","[2,1,0]","2","0","1","images/fruit_choice3.png","1","fruit","","banana","2","0"
"html-keyboard-response","198","716024","0.0-9.0-2.0-0.56","1855","2","2","""event"",""trial"",""time""
""fullscreenenter"",""1"",""2177""
","
","
","""event"",""trial"",""time""
""fullscreenenter"",""1"",""2177""
","
","","","","","","null","<div style=""font-size:60px;"">+</div>","null","","fixation","","","","","","","","","","","","","",""
"learning-trial","199","720030","0.0-9.0-2.0-1.56","1855","2","2","""event"",""trial"",""time""
""fullscreenenter"",""1"",""2177""
","
","
","""event"",""trial"",""time""
""fullscreenenter"",""1"",""2177""
","
","","","","","","1124.4000000059605","images/straw3.png","","","learning","images/fruit_choice3.png","images/fruit_choice1.png","images/fruit_choice2.png","[2,0,1]","1","2","3","images/fruit_choice2.png","1","fruit","","straw","2","0"
"html-keyboard-response","200","720534","0.0-9.0-2.0-0.57","1855","2","2","""event"",""trial"",""time""
""fullscreenenter"",""1"",""2177""
","
","
","""event"",""trial"",""time""
""fullscreenenter"",""1"",""2177""
","
","","","","","","null","<div style=""font-size:60px;"">+</div>","null","","fixation","","","","","","","","","","","","","",""
"learning-trial","201","724540","0.0-9.0-2.0-1.57","1855","2","2","""event"",""trial"",""time""
""fullscreenenter"",""1"",""2177""
","
","
","""event"",""trial"",""time""
""fullscreenenter"",""1"",""2177""
","
","","","","","","1530.5999999940395","images/apple1.png","","","learning","images/fruit_choice1.png","images/fruit_choice2.png","images/fruit_choice3.png","[0,1,2]","2","2","2","images/fruit_choice2.png","-1","fruit","","apple","2","0"
"html-keyboard-response","202","725044","0.0-9.0-2.0-0.58","1855","2","2","""event"",""trial"",""time""
""fullscreenenter"",""1"",""2177""
","
","
","""event"",""trial"",""time""
""fullscreenenter"",""1"",""2177""
","
","","","","","","null","<div style=""font-size:60px;"">+</div>","null","","fixation","","","","","","","","","","","","","",""
"learning-trial","203","729047","0.0-9.0-2.0-1.58","1855","2","2","""event"",""trial"",""time""
""fullscreenenter"",""1"",""2177""
","
","
","""event"",""trial"",""time""
""fullscreenenter"",""1"",""2177""
","
","","","","","","2140","images/apple5.png","","","learning","images/fruit_choice1.png","images/fruit_choice3.png","images/fruit_choice2.png","[0,2,1]","0","0","1","images/fruit_choice1.png","1","fruit","","apple","2","0"
"html-keyboard-response","204","729549","0.0-9.0-2.0-0.59","1855","2","2","""event"",""trial"",""time""
""fullscreenenter"",""1"",""2177""
","
","
","""event"",""trial"",""time""
""fullscreenenter"",""1"",""2177""
","
","","","","","","null","<div style=""font-size:60px;"">+</div>","null","","fixation","","","","","","","","","","","","","",""
"learning-trial","205","733555","0.0-9.0-2.0-1.59","1855","2","2","""event"",""trial"",""time""
""fullscreenenter"",""1"",""2177""
","
","
","""event"",""trial"",""time""
""fullscreenenter"",""1"",""2177""
","
","","","","","","953.7999999821186","images/straw2.png","","","learning","images/fruit_choice1.png","images/fruit_choice3.png","images/fruit_choice2.png","[0,2,1]","0","0","3","images/fruit_choice2.png","-1","fruit","","straw","2","0"
"html-keyboard-response","206","734059","0.0-9.0-2.0-0.60","1855","2","2","""event"",""trial"",""time""
""fullscreenenter"",""1"",""2177""
","
","
","""event"",""trial"",""time""
""fullscreenenter"",""1"",""2177""
","
","","","","","","null","<div style=""font-size:60px;"">+</div>","null","","fixation","","","","","","","","","","","","","",""
"learning-trial","207","738065","0.0-9.0-2.0-1.60","1855","2","2","""event"",""trial"",""time""
""fullscreenenter"",""1"",""2177""
","
","
","""event"",""trial"",""time""
""fullscreenenter"",""1"",""2177""
","
","","","","","","1281.199999988079","images/straw2.png","","","learning","images/fruit_choice1.png","images/fruit_choice3.png","images/fruit_choice2.png","[0,2,1]","0","0","3","images/fruit_choice2.png","-1","fruit","","straw","2","0"
"html-keyboard-response","208","738570","0.0-9.0-2.0-0.61","1855","2","2","""event"",""trial"",""time""
""fullscreenenter"",""1"",""2177""
","
","
","""event"",""trial"",""time""
""fullscreenenter"",""1"",""2177""
","
","","","","","","null","<div style=""font-size:60px;"">+</div>","null","","fixation","","","","","","","","","","","","","",""
"learning-trial","209","742575","0.0-9.0-2.0-1.61","1855","2","2","""event"",""trial"",""time""
""fullscreenenter"",""1"",""2177""
","
","
","""event"",""trial"",""time""
""fullscreenenter"",""1"",""2177""
","
","","","","","","1507.5999999940395","images/apple1.png","","","learning","images/fruit_choice3.png","images/fruit_choice1.png","images/fruit_choice2.png","[2,0,1]","2","0","1","images/fruit_choice3.png","1","fruit","","apple","2","0"
"html-keyboard-response","210","743076","0.0-9.0-2.0-0.62","1855","2","2","""event"",""trial"",""time""
""fullscreenenter"",""1"",""2177""
","
","
","""event"",""trial"",""time""
""fullscreenenter"",""1"",""2177""
","
","","","","","","null","<div style=""font-size:60px;"">+</div>","null","","fixation","","","","","","","","","","","","","",""
"learning-trial","211","747079","0.0-9.0-2.0-1.62","1855","2","2","""event"",""trial"",""time""
""fullscreenenter"",""1"",""2177""
","
","
","""event"",""trial"",""time""
""fullscreenenter"",""1"",""2177""
","
","","","","","","2569.800000011921","images/apple4.png","","","learning","images/fruit_choice2.png","images/fruit_choice1.png","images/fruit_choice3.png","[1,0,2]","1","0","2","images/fruit_choice1.png","1","fruit","","apple","2","0"
"html-keyboard-response","212","747582","0.0-9.0-2.0-0.63","1855","2","2","""event"",""trial"",""time""
""fullscreenenter"",""1"",""2177""
","
","
","""event"",""trial"",""time""
""fullscreenenter"",""1"",""2177""
","
","","","","","","null","<div style=""font-size:60px;"">+</div>","null","","fixation","","","","","","","","","","","","","",""
"learning-trial","213","751584","0.0-9.0-2.0-1.63","1855","2","2","""event"",""trial"",""time""
""fullscreenenter"",""1"",""2177""
","
","
","""event"",""trial"",""time""
""fullscreenenter"",""1"",""2177""
","
","","","","","","1191.9000000059605","images/straw1.png","","","learning","images/fruit_choice3.png","images/fruit_choice1.png","images/fruit_choice2.png","[2,0,1]","2","0","3","images/fruit_choice2.png","-1","fruit","","straw","2","0"
"html-keyboard-response","214","752085","0.0-9.0-2.0-0.64","1855","2","2","""event"",""trial"",""time""
""fullscreenenter"",""1"",""2177""
","
","
","""event"",""trial"",""time""
""fullscreenenter"",""1"",""2177""
","
","","","","","","null","<div style=""font-size:60px;"">+</div>","null","","fixation","","","","","","","","","","","","","",""
"learning-trial","215","756088","0.0-9.0-2.0-1.64","1855","2","2","""event"",""trial"",""time""
""fullscreenenter"",""1"",""2177""
","
","
","""event"",""trial"",""time""
""fullscreenenter"",""1"",""2177""
","
","","","","","","1413.2999999821186","images/apple5.png","","","learning","images/fruit_choice3.png","images/fruit_choice2.png","images/fruit_choice1.png","[2,1,0]","0","2","3","images/fruit_choice1.png","1","fruit","","apple","2","0"
"html-keyboard-response","216","756593","0.0-9.0-2.0-0.65","1855","2","2","""event"",""trial"",""time""
""fullscreenenter"",""1"",""2177""
","
","
","""event"",""trial"",""time""
""fullscreenenter"",""1"",""2177""
","
","","","","","","null","<div style=""font-size:60px;"">+</div>","null","","fixation","","","","","","","","","","","","","",""
"learning-trial","217","760599","0.0-9.0-2.0-1.65","1855","2","2","""event"",""trial"",""time""
""fullscreenenter"",""1"",""2177""
","
","
","""event"",""trial"",""time""
""fullscreenenter"",""1"",""2177""
","
","","","","","","1090.2999999821186","images/straw1.png","","","learning","images/fruit_choice1.png","images/fruit_choice3.png","images/fruit_choice2.png","[0,2,1]","2","1","3","images/fruit_choice2.png","-1","fruit","","straw","2","0"
"html-keyboard-response","218","761104","0.0-9.0-2.0-0.66","1855","2","2","""event"",""trial"",""time""
""fullscreenenter"",""1"",""2177""
","
","
","""event"",""trial"",""time""
""fullscreenenter"",""1"",""2177""
","
","","","","","","null","<div style=""font-size:60px;"">+</div>","null","","fixation","","","","","","","","","","","","","",""
"learning-trial","219","765109","0.0-9.0-2.0-1.66","1855","2","2","""event"",""trial"",""time""
""fullscreenenter"",""1"",""2177""
","
","
","""event"",""trial"",""time""
""fullscreenenter"",""1"",""2177""
","
","","","","","","1192.4000000059605","images/apple1.png","","","learning","images/fruit_choice1.png","images/fruit_choice3.png","images/fruit_choice2.png","[0,2,1]","2","1","2","images/fruit_choice3.png","1","fruit","","apple","2","0"
"html-keyboard-response","220","765614","0.0-9.0-2.0-0.67","1855","2","2","""event"",""trial"",""time""
""fullscreenenter"",""1"",""2177""
","
","
","""event"",""trial"",""time""
""fullscreenenter"",""1"",""2177""
","
","","","","","","null","<div style=""font-size:60px;"">+</div>","null","","fixation","","","","","","","","","","","","","",""
"learning-trial","221","769619","0.0-9.0-2.0-1.67","1855","2","2","""event"",""trial"",""time""
""fullscreenenter"",""1"",""2177""
","
","
","""event"",""trial"",""time""
""fullscreenenter"",""1"",""2177""
","
","","","","","","2532.800000011921","images/banana3.png","","","learning","images/fruit_choice3.png","images/fruit_choice1.png","images/fruit_choice2.png","[2,0,1]","2","0","3","images/fruit_choice2.png","-1","fruit","","banana","2","0"
"html-keyboard-response","222","770124","0.0-9.0-2.0-0.68","1855","2","2","""event"",""trial"",""time""
""fullscreenenter"",""1"",""2177""
","
","
","""event"",""trial"",""time""
""fullscreenenter"",""1"",""2177""
","
","","","","","","null","<div style=""font-size:60px;"">+</div>","null","","fixation","","","","","","","","","","","","","",""
"learning-trial","223","774129","0.0-9.0-2.0-1.68","1855","2","2","""event"",""trial"",""time""
""fullscreenenter"",""1"",""2177""
","
","
","""event"",""trial"",""time""
""fullscreenenter"",""1"",""2177""
","
","","","","","","1374.7999999821186","images/banana2.png","","","learning","images/fruit_choice1.png","images/fruit_choice2.png","images/fruit_choice3.png","[0,1,2]","1","1","1","images/fruit_choice1.png","-1","fruit","","banana","2","0"
"html-keyboard-response","224","774634","0.0-9.0-2.0-0.69","1855","2","2","""event"",""trial"",""time""
""fullscreenenter"",""1"",""2177""
","
","
","""event"",""trial"",""time""
""fullscreenenter"",""1"",""2177""
","
","","","","","","null","<div style=""font-size:60px;"">+</div>","null","","fixation","","","","","","","","","","","","","",""
"learning-trial","225","778640","0.0-9.0-2.0-1.69","1855","2","2","""event"",""trial"",""time""
""fullscreenenter"",""1"",""2177""
","
","
","""event"",""trial"",""time""
""fullscreenenter"",""1"",""2177""
","
","","","","","","1027.3999999761581","images/banana2.png","","","learning","images/fruit_choice1.png","images/fruit_choice3.png","images/fruit_choice2.png","[0,2,1]","1","2","2","images/fruit_choice3.png","1","fruit","","banana","2","0"
"html-keyboard-response","226","779145","0.0-9.0-2.0-0.70","1855","2","2","""event"",""trial"",""time""
""fullscreenenter"",""1"",""2177""
","
","
","""event"",""trial"",""time""
""fullscreenenter"",""1"",""2177""
","
","","","","","","null","<div style=""font-size:60px;"">+</div>","null","","fixation","","","","","","","","","","","","","",""
"learning-trial","227","783150","0.0-9.0-2.0-1.70","1855","2","2","""event"",""trial"",""time""
""fullscreenenter"",""1"",""2177""
","
","
","""event"",""trial"",""time""
""fullscreenenter"",""1"",""2177""
","
","","","","","","1096.199999988079","images/banana1.png","","","learning","images/fruit_choice1.png","images/fruit_choice3.png","images/fruit_choice2.png","[0,2,1]","0","0","2","images/fruit_choice3.png","1","fruit","","banana","2","0"
"html-keyboard-response","228","783655","0.0-9.0-2.0-0.71","1855","2","2","""event"",""trial"",""time""
""fullscreenenter"",""1"",""2177""
","
","
","""event"",""trial"",""time""
""fullscreenenter"",""1"",""2177""
","
","","","","","","null","<div style=""font-size:60px;"">+</div>","null","","fixation","","","","","","","","","","","","","",""
"learning-trial","229","787660","0.0-9.0-2.0-1.71","1855","2","2","""event"",""trial"",""time""
""fullscreenenter"",""1"",""2177""
","
","
","""event"",""trial"",""time""
""fullscreenenter"",""1"",""2177""
","
","","","","","","1333.4000000059605","images/straw1.png","","","learning","images/fruit_choice3.png","images/fruit_choice1.png","images/fruit_choice2.png","[2,0,1]","2","0","3","images/fruit_choice2.png","-1","fruit","","straw","2","0"
"html-button-response","230","792077","0.0-9.0-3.0","1855","2","2","""event"",""trial"",""time""
""fullscreenenter"",""1"",""2177""
","
","
","""event"",""trial"",""time""
""fullscreenenter"",""1"",""2177""
","
","","","","","","4416.0999999940395","<p> You have completed the round! <p> In this round, you earned -4 points! </p>","0","","break","","","","","","","","","","","","","",""
"html-button-response","231","795205","0.0-10.0","1855","2","2","""event"",""trial"",""time""
""fullscreenenter"",""1"",""2177""
","
","
","""event"",""trial"",""time""
""fullscreenenter"",""1"",""2177""
","
","","","","","","3126.699999988079","<p> Now it's time to play another round. </p>","0","","transition_screen","","","","","","","","","","","","","",""
"preload","232","797611","0.0-11.0-0.0","1855","2","2","""event"",""trial"",""time""
""fullscreenenter"",""1"",""2177""
","
","
","""event"",""trial"",""time""
""fullscreenenter"",""1"",""2177""
","
","true","false","[]","[]","[]","","","","","","","","","","","","","","","","","","",""
"learning-instructions","233","805949","0.0-11.0-1.0-0.0","1855","2","2","""event"",""trial"",""time""
""fullscreenenter"",""1"",""2177""
","
","
","""event"",""trial"",""time""
""fullscreenenter"",""1"",""2177""
","
","","","","","","786.5","<p> Your goal in this round is to grow a beautiful garden by watering plants. </p><p> You will need to water many different plants. </p></div>","","0","instructions","","","","","","","","","","","","","",""
"learning-instructions","234","820035","0.0-11.0-1.0-0.1","1855","2","2","""event"",""trial"",""time""
""fullscreenenter"",""1"",""2177""
","
","
","""event"",""trial"",""time""
""fullscreenenter"",""1"",""2177""
","
","","","","","","807.8000000119209","<p> On each turn, you will see a picture of one of your plants and three different watering cans.  </p><p> Each watering can has a different mixture of water and fertilizer.  </p><p> You need to select which watering can to use for each plant. </p>","","0","instructions","","","","","","","","","","","","","",""
"learning-instructions","235","829608","0.0-11.0-1.0-0.2","1855","2","2","""event"",""trial"",""time""
""fullscreenenter"",""1"",""2177""
","
","
","""event"",""trial"",""time""
""fullscreenenter"",""1"",""2177""
","
","","","","","","1836.4000000059605","<p> You can select the watering can on the left by pressing 1, the watering can in the middle by pressing 2, and the watering can on the right by pressing 3. </p><br><div class=""choice-instructions-grid""> <div class=""choice-option""><img src=""images/plants_choice1.png"" class=""choice-option-img"" stage=""instructions"" position=""0"" ><div class=""choice-option-text""> Press ""1."" </div></div><div class=""choice-option""><img src=""images/plants_choice2.png"" class=""choice-option-img"" stage=""instructions"" position=""1"" ><div class=""choice-option-text""> Press ""2."" </div></div><div class=""choice-option""><img src=""images/plants_choice3.png"" class=""choice-option-img"" stage=""instructions"" position=""2"" ><div class=""choice-option-text""> Press ""3."" </div></div></div>","","0","instructions","","","","","","","","","","","","","",""
"learning-instructions","236","834266","0.0-11.0-1.0-0.3","1855","2","2","""event"",""trial"",""time""
""fullscreenenter"",""1"",""2177""
","
","
","""event"",""trial"",""time""
""fullscreenenter"",""1"",""2177""
","
","","","","","","492.19999998807907","<p> If the watering can you chose works for the plant, it will grow! </p><div style='float: center;'><img src='images/check.png' width = '200' height = '200'></img>","","0","instructions","","","","","","","","","","","","","",""
