"trial_type","trial_index","time_elapsed","internal_node_id","subject_id","condition","task_version","interactions","blur_events","focus_events","fullscreenenter_events","fullscreenexit_events","success","timeout","failed_images","failed_audio","failed_video","rt","stimulus","response","button_pressed","task_part","left_choice","middle_choice","right_choice","choice_positions","correct_response","correct_position","key_press","option_selected","points","task_block","correct","stim_cat","block_condition","block_number"
"pavlovia","0","15","0.0-0.0","1896","1","2","""event"",""trial"",""time""
""fullscreenenter"",""1"",""2159""
","
","
","""event"",""trial"",""time""
""fullscreenenter"",""1"",""2159""
","
","","","","","","","","","","","","","","","","","","","","","","","",""
"fullscreen","1","2925","0.0-1.0","1896","1","2","""event"",""trial"",""time""
""fullscreenenter"",""1"",""2159""
","
","
","""event"",""trial"",""time""
""fullscreenenter"",""1"",""2159""
","
","true","","","","","","","","","","","","","","","","","","","","","","",""
"preload","2","5834","0.0-2.0","1896","1","2","""event"",""trial"",""time""
""fullscreenenter"",""1"",""2159""
","
","
","""event"",""trial"",""time""
""fullscreenenter"",""1"",""2159""
","
","true","false","[]","[]","[]","","","","","","","","","","","","","","","","","","",""
"audio-keyboard-response","3","7489","0.0-3.0","1896","1","2","""event"",""trial"",""time""
""fullscreenenter"",""1"",""2159""
","
","
","""event"",""trial"",""time""
""fullscreenenter"",""1"",""2159""
","
","","","","","","1647.9999999999989","audio/beep_loop.wav"," ","","","","","","","","","","","","","","","",""
"audio-button-response","4","9252","0.0-4.0","1896","1","2","""event"",""trial"",""time""
""fullscreenenter"",""1"",""2159""
","
","
","""event"",""trial"",""time""
""fullscreenenter"",""1"",""2159""
","
","","","","","","1781","audio/shark.wav","4","","","","","","","","","","","","","","","",""
"audio-button-response","5","11624","0.0-5.0","1896","1","2","""event"",""trial"",""time""
""fullscreenenter"",""1"",""2159""
","
","
","""event"",""trial"",""time""
""fullscreenenter"",""1"",""2159""
","
","","","","","","1371","audio/turtle.wav","1","","","","","","","","","","","","","","","",""
"preload","6","15805","0.0-6.0","1896","1","2","""event"",""trial"",""time""
""fullscreenenter"",""1"",""2159""
","
","
","""event"",""trial"",""time""
""fullscreenenter"",""1"",""2159""
","
","true","false","[]","[]","[]","","","","","","","","","","","","","","","","","","",""
"html-keyboard-response","7","16960","0.0-7.0","1896","1","2","""event"",""trial"",""time""
""fullscreenenter"",""1"",""2159""
","
","
","""event"",""trial"",""time""
""fullscreenenter"",""1"",""2159""
","
","","","","","","1154","Welcome to the experiment. Press any key to begin and to advance the instructions."," ","","","","","","","","","","","","","","","",""
"learning-instructions","8","26449","0.0-8.0-0.0-0.0","1896","1","2","""event"",""trial"",""time""
""fullscreenenter"",""1"",""2159""
","
","
","""event"",""trial"",""time""
""fullscreenenter"",""1"",""2159""
","
","","","","","","1726","<p> Welcome! Today you are going to play 6 different rounds of a decision-making game. </p><p> Use the mouse to click next to continue. </p>","","0","instructions","","","","","","","","","","","","","",""
"learning-instructions","9","30206","0.0-8.0-0.0-0.1","1896","1","2","""event"",""trial"",""time""
""fullscreenenter"",""1"",""2159""
","
","
","""event"",""trial"",""time""
""fullscreenenter"",""1"",""2159""
","
","","","","","","744","<p> You will start with a practice round to learn the rules. </p>","","0","instructions","","","","","","","","","","","","","",""
"learning-instructions","10","38642","0.0-8.0-0.0-0.2","1896","1","2","""event"",""trial"",""time""
""fullscreenenter"",""1"",""2159""
","
","
","""event"",""trial"",""time""
""fullscreenenter"",""1"",""2159""
","
","","","","","","679","<p> Your goal in this round is to deliver sports equipment to three different parks. </p><p> You will need to deliver many types of equipment. </p></div>","","0","instructions","","","","","","","","","","","","","",""
"learning-instructions","11","47922","0.0-8.0-0.0-0.3","1896","1","2","""event"",""trial"",""time""
""fullscreenenter"",""1"",""2159""
","
","
","""event"",""trial"",""time""
""fullscreenenter"",""1"",""2159""
","
","","","","","","781","<p> On each turn, you will see one piece of sports equipment and three different parks.  </p><p> You need to select which park to deliver the equipment to.  </p>","","0","instructions","","","","","","","","","","","","","",""
"learning-instructions","12","61788","0.0-8.0-0.0-0.4","1896","1","2","""event"",""trial"",""time""
""fullscreenenter"",""1"",""2159""
","
","
","""event"",""trial"",""time""
""fullscreenenter"",""1"",""2159""
","
","","","","","","555","<p> You can select the park on the left by pressing the '1' key on your keyboard. <br>You can select the park in the middle by pressing the '2' key on your keyboard. <br>You can select the park on the right by pressing the '3' key on your keyboard.  </p><br><div class=""choice-instructions-grid""> <div class=""choice-option""><img src=""images/park1.png"" class=""choice-option-img"" stage=""instructions"" position=""0"" ><div class=""choice-option-text""> Press ""1."" </div></div><div class=""choice-option""><img src=""images/park2.png"" class=""choice-option-img"" stage=""instructions"" position=""1"" ><div class=""choice-option-text""> Press ""2."" </div></div><div class=""choice-option""><img src=""images/park3.png"" class=""choice-option-img"" stage=""instructions"" position=""2"" ><div class=""choice-option-text""> Press ""3."" </div></div></div>","","0","instructions","","","","","","","","","","","","","",""
"learning-instructions","13","67575","0.0-8.0-0.0-0.5","1896","1","2","""event"",""trial"",""time""
""fullscreenenter"",""1"",""2159""
","
","
","""event"",""trial"",""time""
""fullscreenenter"",""1"",""2159""
","
","","","","","","383","<p> If the kids in the park you chose like the equipment, they will be very happy! </p><div style='float: center;'><img src='images/check.png' width = '200' height = '200'></img>","","0","instructions","","","","","","","","","","","","","",""
"learning-instructions","14","73609","0.0-8.0-0.0-0.6","1896","1","2","""event"",""trial"",""time""
""fullscreenenter"",""1"",""2159""
","
","
","""event"",""trial"",""time""
""fullscreenenter"",""1"",""2159""
","
","","","","","","425","<p> But, if the kids in the park you chose do not like the equipment, they will be sad. </p><div style='float: center;'><img src='images/x.png' width = '200' height = '200'></img>","","0","instructions","","","","","","","","","","","","","",""
"learning-instructions","15","80692","0.0-8.0-0.0-0.7","1896","1","2","""event"",""trial"",""time""
""fullscreenenter"",""1"",""2159""
","
","
","""event"",""trial"",""time""
""fullscreenenter"",""1"",""2159""
","
","","","","","","628","<p> Importantly, the kids in each park like some pieces of sports equipment more than others. </p>","","0","instructions","","","","","","","","","","","","","",""
"learning-instructions","16","87132","0.0-8.0-0.0-0.8","1896","1","2","""event"",""trial"",""time""
""fullscreenenter"",""1"",""2159""
","
","
","""event"",""trial"",""time""
""fullscreenenter"",""1"",""2159""
","
","","","","","","359","<p> If you choose the best park for each piece of equipment, the kids there will usually be happy. </p>","","0","instructions","","","","","","","","","","","","","",""
"learning-instructions","17","94184","0.0-8.0-0.0-0.9","1896","1","2","""event"",""trial"",""time""
""fullscreenenter"",""1"",""2159""
","
","
","""event"",""trial"",""time""
""fullscreenenter"",""1"",""2159""
","
","","","","","","393","<p> However, even if you choose the best park for the equipment, the kids may sometimes be sad. </p>","","0","instructions","","","","","","","","","","","","","",""
"learning-instructions","18","101926","0.0-8.0-0.0-0.10","1896","1","2","""event"",""trial"",""time""
""fullscreenenter"",""1"",""2159""
","
","
","""event"",""trial"",""time""
""fullscreenenter"",""1"",""2159""
","
","","","","","","504","<p> Similarly, even if you choose the <i>wrong</i> park for the equipment, the kids may still be happy sometimes.","","0","instructions","","","","","","","","","","","","","",""
"learning-instructions","19","107419","0.0-8.0-0.0-0.11","1896","1","2","""event"",""trial"",""time""
""fullscreenenter"",""1"",""2159""
","
","
","""event"",""trial"",""time""
""fullscreenenter"",""1"",""2159""
","
","","","","","","417","<p> For example, the best park for this soccer ball is this one.<div style='float: center;'><img src='images/i1.png' width = '500' height = '268'></img>","","0","instructions","","","","","","","","","","","","","",""
"learning-instructions","20","113148","0.0-8.0-0.0-0.12","1896","1","2","""event"",""trial"",""time""
""fullscreenenter"",""1"",""2159""
","
","
","""event"",""trial"",""time""
""fullscreenenter"",""1"",""2159""
","
","","","","","","416","<p> Let's see what happens if you choose this park for the soccer ball five times.","","0","instructions","","","","","","","","","","","","","",""
"learning-instructions","21","115821","0.0-8.0-0.0-0.13","1896","1","2","""event"",""trial"",""time""
""fullscreenenter"",""1"",""2159""
","
","
","""event"",""trial"",""time""
""fullscreenenter"",""1"",""2159""
","
","","","","","","488","<p> The kids are happy.<div style='float: left;'><img src='images/i2.png' width = '640' height = '360'></img>","","0","instructions","","","","","","","","","","","","","",""
"learning-instructions","22","118475","0.0-8.0-0.0-0.14","1896","1","2","""event"",""trial"",""time""
""fullscreenenter"",""1"",""2159""
","
","
","""event"",""trial"",""time""
""fullscreenenter"",""1"",""2159""
","
","","","","","","463","<p> The kids are happy.<div style='float: left;'><img src='images/i3.png' width = '640' height = '360'></img>","","0","instructions","","","","","","","","","","","","","",""
"learning-instructions","23","121093","0.0-8.0-0.0-0.15","1896","1","2","""event"",""trial"",""time""
""fullscreenenter"",""1"",""2159""
","
","
","""event"",""trial"",""time""
""fullscreenenter"",""1"",""2159""
","
","","","","","","441","<p> The kids are happy.<div style='float: left;'><img src='images/i4.png' width = '640' height = '360'></img>","","0","instructions","","","","","","","","","","","","","",""
"learning-instructions","24","123751","0.0-8.0-0.0-0.16","1896","1","2","""event"",""trial"",""time""
""fullscreenenter"",""1"",""2159""
","
","
","""event"",""trial"",""time""
""fullscreenenter"",""1"",""2159""
","
","","","","","","420","<p> The kids are sad.<div style='float: left;'><img src='images/i5.png' width = '640' height = '360'></img>","","0","instructions","","","","","","","","","","","","","",""
"learning-instructions","25","126534","0.0-8.0-0.0-0.17","1896","1","2","""event"",""trial"",""time""
""fullscreenenter"",""1"",""2159""
","
","
","""event"",""trial"",""time""
""fullscreenenter"",""1"",""2159""
","
","","","","","","591","<p> The kids are happy.<div style='float: left;'><img src='images/i6.png' width = '640' height = '360'></img>","","0","instructions","","","","","","","","","","","","","",""
"learning-instructions","26","134359","0.0-8.0-0.0-0.18","1896","1","2","""event"",""trial"",""time""
""fullscreenenter"",""1"",""2159""
","
","
","""event"",""trial"",""time""
""fullscreenenter"",""1"",""2159""
","
","","","","","","548","<p> As you can see, selecting that park for the soccer ball made the kids happy most of the time, but not all the time.","","0","instructions","","","","","","","","","","","","","",""
"learning-instructions","27","140801","0.0-8.0-0.0-0.19","1896","1","2","""event"",""trial"",""time""
""fullscreenenter"",""1"",""2159""
","
","
","""event"",""trial"",""time""
""fullscreenenter"",""1"",""2159""
","
","","","","","","418","<p> Now let's see what happens if you choose a DIFFERENT park for the soccer ball 5 times.","","0","instructions","","","","","","","","","","","","","",""
"learning-instructions","28","143440","0.0-8.0-0.0-0.20","1896","1","2","""event"",""trial"",""time""
""fullscreenenter"",""1"",""2159""
","
","
","""event"",""trial"",""time""
""fullscreenenter"",""1"",""2159""
","
","","","","","","419","<p> The kids are sad.<div style='float: left;'><img src='images/i7.png' width = '640' height = '360'></img>","","0","instructions","","","","","","","","","","","","","",""
"learning-instructions","29","146065","0.0-8.0-0.0-0.21","1896","1","2","""event"",""trial"",""time""
""fullscreenenter"",""1"",""2159""
","
","
","""event"",""trial"",""time""
""fullscreenenter"",""1"",""2159""
","
","","","","","","403","<p> The kids are sad.<div style='float: left;'><img src='images/i8.png' width = '640' height = '360'></img>","","0","instructions","","","","","","","","","","","","","",""
"learning-instructions","30","148654","0.0-8.0-0.0-0.22","1896","1","2","""event"",""trial"",""time""
""fullscreenenter"",""1"",""2159""
","
","
","""event"",""trial"",""time""
""fullscreenenter"",""1"",""2159""
","
","","","","","","401","<p> The kids are happy.<div style='float: left;'><img src='images/i9.png' width = '640' height = '360'></img>","","0","instructions","","","","","","","","","","","","","",""
"learning-instructions","31","151190","0.0-8.0-0.0-0.23","1896","1","2","""event"",""trial"",""time""
""fullscreenenter"",""1"",""2159""
","
","
","""event"",""trial"",""time""
""fullscreenenter"",""1"",""2159""
","
","","","","","","306","<p> The kids are sad.<div style='float: left;'><img src='images/i10.png' width = '640' height = '360'></img>","","0","instructions","","","","","","","","","","","","","",""
"learning-instructions","32","153989","0.0-8.0-0.0-0.24","1896","1","2","""event"",""trial"",""time""
""fullscreenenter"",""1"",""2159""
","
","
","""event"",""trial"",""time""
""fullscreenenter"",""1"",""2159""
","
","","","","","","576","<p> The kids are sad.<div style='float: left;'><img src='images/i11.png' width = '640' height = '360'></img>","","0","instructions","","","","","","","","","","","","","",""
"learning-instructions","33","162516","0.0-8.0-0.0-0.25","1896","1","2","""event"",""trial"",""time""
""fullscreenenter"",""1"",""2159""
","
","
","""event"",""trial"",""time""
""fullscreenenter"",""1"",""2159""
","
","","","","","","383","<p> As you can see, selecting the wrong park for the soccer ball made the kids sad most of the time, but not all the time.","","0","instructions","","","","","","","","","","","","","",""
"learning-instructions","34","171967","0.0-8.0-0.0-0.26","1896","1","2","""event"",""trial"",""time""
""fullscreenenter"",""1"",""2159""
","
","
","""event"",""trial"",""time""
""fullscreenenter"",""1"",""2159""
","
","","","","","","326","<p> The different pieces of equipment belong in different parks. You need to try to learn which is the best park for each piece of equipment.","","0","instructions","","","","","","","","","","","","","",""
"learning-instructions","35","188758","0.0-8.0-0.0-0.27","1896","1","2","""event"",""trial"",""time""
""fullscreenenter"",""1"",""2159""
","
","
","""event"",""trial"",""time""
""fullscreenenter"",""1"",""2159""
","
","","","","","","387","<p> Try to choose the best park for each piece of equipment, because you will <b> WIN </b> 1 point for each time you make the kids happy and <b>LOSE</b> 1 point for each time you make them sad. </p><p> Remember, if you make the best choice, you will win 1 point most of the time, but not all the time. </p>","","0","instructions","","","","","","","","","","","","","",""
"learning-instructions","36","194646","0.0-8.0-0.0-0.28","1896","1","2","""event"",""trial"",""time""
""fullscreenenter"",""1"",""2159""
","
","
","""event"",""trial"",""time""
""fullscreenenter"",""1"",""2159""
","
","","","","","","385","<p> This is just a practice round, but in the real game, your bonus payment will depend on your total number of points.","","0","instructions","","","","","","","","","","","","","",""
"learning-instructions","37","205642","0.0-8.0-0.0-0.29","1896","1","2","""event"",""trial"",""time""
""fullscreenenter"",""1"",""2159""
","
","
","""event"",""trial"",""time""
""fullscreenenter"",""1"",""2159""
","
","","","","","","660","<p> The position where each park appears will change throughout the game. </p><p> The position where the park appears <i> does not </i> influence how likely the kids are to be happy or sad. </p>","","0","instructions","","","","","","","","","","","","","",""
"learning-instructions","38","217780","0.0-8.0-0.0-0.30","1896","1","2","""event"",""trial"",""time""
""fullscreenenter"",""1"",""2159""
","
","
","""event"",""trial"",""time""
""fullscreenenter"",""1"",""2159""
","
","","","","","","528","<p> You will have 4 seconds to make each choice. Try to respond before time runs out! </p><p> You will lose 1 point each time you do not make a response. </p>","","0","instructions","","","","","","","","","","","","","",""
"learning-instructions","39","225068","0.0-8.0-0.0-0.31","1896","1","2","""event"",""trial"",""time""
""fullscreenenter"",""1"",""2159""
","
","
","""event"",""trial"",""time""
""fullscreenenter"",""1"",""2159""
","
","","","","","","474","<p> Remember, you should use the 1, 2, and 3 keys to select the park for each piece of equipment. </p><br><div class=""choice-instructions-grid""> <div class=""choice-option""><img src=""images/park1.png"" class=""choice-option-img"" stage=""instructions"" position=""0"" ><div class=""choice-option-text""> Press ""1."" </div></div><div class=""choice-option""><img src=""images/park2.png"" class=""choice-option-img"" stage=""instructions"" position=""1"" ><div class=""choice-option-text""> Press ""2."" </div></div><div class=""choice-option""><img src=""images/park3.png"" class=""choice-option-img"" stage=""instructions"" position=""2"" ><div class=""choice-option-text""> Press ""3."" </div></div></div>","","0","instructions","","","","","","","","","","","","","",""
"html-button-response","40","226788","0.0-8.0-1.0","1896","1","2","""event"",""trial"",""time""
""fullscreenenter"",""1"",""2159""
","
","
","""event"",""trial"",""time""
""fullscreenenter"",""1"",""2159""
","
","","","","","","1612","<p> Ready to practice? </p>","0","","","","","","","","","","","","","","","",""
"html-keyboard-response","41","227399","0.0-8.0-2.0-0.0","1896","1","2","""event"",""trial"",""time""
""fullscreenenter"",""1"",""2159""
","
","
","""event"",""trial"",""time""
""fullscreenenter"",""1"",""2159""
","
","","","","","","null","<div style=""font-size:60px;"">+</div>","null","","fixation","","","","","","","","","","","","","",""
"learning-trial","42","231408","0.0-8.0-2.0-1.0","1896","1","2","""event"",""trial"",""time""
""fullscreenenter"",""1"",""2159""
","
","
","""event"",""trial"",""time""
""fullscreenenter"",""1"",""2159""
","
","","","","","","828","images/ball3.png","","","practice","images/park1.png","images/park2.png","images/park3.png","[0,1,2]","0","0","1","images/park1.png","1","practice","","","",""
"html-keyboard-response","43","231929","0.0-8.0-2.0-0.1","1896","1","2","""event"",""trial"",""time""
""fullscreenenter"",""1"",""2159""
","
","
","""event"",""trial"",""time""
""fullscreenenter"",""1"",""2159""
","
","","","","","","null","<div style=""font-size:60px;"">+</div>","null","","fixation","","","","","","","","","","","","","",""
"learning-trial","44","235947","0.0-8.0-2.0-1.1","1896","1","2","""event"",""trial"",""time""
""fullscreenenter"",""1"",""2159""
","
","
","""event"",""trial"",""time""
""fullscreenenter"",""1"",""2159""
","
","","","","","","595","images/racket3.png","","","practice","images/park3.png","images/park1.png","images/park2.png","[2,0,1]","1","2","1","images/park3.png","-1","practice","","","",""
"html-keyboard-response","45","236467","0.0-8.0-2.0-0.2","1896","1","2","""event"",""trial"",""time""
""fullscreenenter"",""1"",""2159""
","
","
","""event"",""trial"",""time""
""fullscreenenter"",""1"",""2159""
","
","","","","","","null","<div style=""font-size:60px;"">+</div>","null","","fixation","","","","","","","","","","","","","",""
"learning-trial","46","240478","0.0-8.0-2.0-1.2","1896","1","2","""event"",""trial"",""time""
""fullscreenenter"",""1"",""2159""
","
","
","""event"",""trial"",""time""
""fullscreenenter"",""1"",""2159""
","
","","","","","","792","images/racket2.png","","","practice","images/park3.png","images/park2.png","images/park1.png","[2,1,0]","2","0","2","images/park2.png","-1","practice","","","",""
"html-keyboard-response","47","240998","0.0-8.0-2.0-0.3","1896","1","2","""event"",""trial"",""time""
""fullscreenenter"",""1"",""2159""
","
","
","""event"",""trial"",""time""
""fullscreenenter"",""1"",""2159""
","
","","","","","","null","<div style=""font-size:60px;"">+</div>","null","","fixation","","","","","","","","","","","","","",""
"learning-trial","48","245001","0.0-8.0-2.0-1.3","1896","1","2","""event"",""trial"",""time""
""fullscreenenter"",""1"",""2159""
","
","
","""event"",""trial"",""time""
""fullscreenenter"",""1"",""2159""
","
","","","","","","1289","images/ball3.png","","","practice","images/park1.png","images/park3.png","images/park2.png","[0,2,1]","0","0","2","images/park3.png","-1","practice","","","",""
"html-keyboard-response","49","245511","0.0-8.0-2.0-0.4","1896","1","2","""event"",""trial"",""time""
""fullscreenenter"",""1"",""2159""
","
","
","""event"",""trial"",""time""
""fullscreenenter"",""1"",""2159""
","
","","","","","","null","<div style=""font-size:60px;"">+</div>","null","","fixation","","","","","","","","","","","","","",""
"learning-trial","50","249525","0.0-8.0-2.0-1.4","1896","1","2","""event"",""trial"",""time""
""fullscreenenter"",""1"",""2159""
","
","
","""event"",""trial"",""time""
""fullscreenenter"",""1"",""2159""
","
","","","","","","767","images/ball1.png","","","practice","images/park3.png","images/park2.png","images/park1.png","[2,1,0]","0","2","2","images/park2.png","-1","practice","","","",""
"html-keyboard-response","51","250029","0.0-8.0-2.0-0.5","1896","1","2","""event"",""trial"",""time""
""fullscreenenter"",""1"",""2159""
","
","
","""event"",""trial"",""time""
""fullscreenenter"",""1"",""2159""
","
","","","","","","null","<div style=""font-size:60px;"">+</div>","null","","fixation","","","","","","","","","","","","","",""
"learning-trial","52","254040","0.0-8.0-2.0-1.5","1896","1","2","""event"",""trial"",""time""
""fullscreenenter"",""1"",""2159""
","
","
","""event"",""trial"",""time""
""fullscreenenter"",""1"",""2159""
","
","","","","","","925","images/racket3.png","","","practice","images/park2.png","images/park1.png","images/park3.png","[1,0,2]","1","0","1","images/park2.png","-1","practice","","","",""
"html-keyboard-response","53","254541","0.0-8.0-2.0-0.6","1896","1","2","""event"",""trial"",""time""
""fullscreenenter"",""1"",""2159""
","
","
","""event"",""trial"",""time""
""fullscreenenter"",""1"",""2159""
","
","","","","","","null","<div style=""font-size:60px;"">+</div>","null","","fixation","","","","","","","","","","","","","",""
"learning-trial","54","258550","0.0-8.0-2.0-1.6","1896","1","2","""event"",""trial"",""time""
""fullscreenenter"",""1"",""2159""
","
","
","""event"",""trial"",""time""
""fullscreenenter"",""1"",""2159""
","
","","","","","","713","images/ball2.png","","","practice","images/park2.png","images/park3.png","images/park1.png","[1,2,0]","2","1","1","images/park2.png","-1","practice","","","",""
"html-keyboard-response","55","259059","0.0-8.0-2.0-0.7","1896","1","2","""event"",""trial"",""time""
""fullscreenenter"",""1"",""2159""
","
","
","""event"",""trial"",""time""
""fullscreenenter"",""1"",""2159""
","
","","","","","","null","<div style=""font-size:60px;"">+</div>","null","","fixation","","","","","","","","","","","","","",""
"learning-trial","56","263074","0.0-8.0-2.0-1.7","1896","1","2","""event"",""trial"",""time""
""fullscreenenter"",""1"",""2159""
","
","
","""event"",""trial"",""time""
""fullscreenenter"",""1"",""2159""
","
","","","","","","597","images/ball1.png","","","practice","images/park2.png","images/park3.png","images/park1.png","[1,2,0]","0","2","1","images/park2.png","-1","practice","","","",""
"html-keyboard-response","57","263578","0.0-8.0-2.0-0.8","1896","1","2","""event"",""trial"",""time""
""fullscreenenter"",""1"",""2159""
","
","
","""event"",""trial"",""time""
""fullscreenenter"",""1"",""2159""
","
","","","","","","null","<div style=""font-size:60px;"">+</div>","null","","fixation","","","","","","","","","","","","","",""
"learning-trial","58","267581","0.0-8.0-2.0-1.8","1896","1","2","""event"",""trial"",""time""
""fullscreenenter"",""1"",""2159""
","
","
","""event"",""trial"",""time""
""fullscreenenter"",""1"",""2159""
","
","","","","","","533","images/ball2.png","","","practice","images/park1.png","images/park3.png","images/park2.png","[0,2,1]","2","1","1","images/park1.png","-1","practice","","","",""
"html-keyboard-response","59","268089","0.0-8.0-2.0-0.9","1896","1","2","""event"",""trial"",""time""
""fullscreenenter"",""1"",""2159""
","
","
","""event"",""trial"",""time""
""fullscreenenter"",""1"",""2159""
","
","","","","","","null","<div style=""font-size:60px;"">+</div>","null","","fixation","","","","","","","","","","","","","",""
"learning-trial","60","272097","0.0-8.0-2.0-1.9","1896","1","2","""event"",""trial"",""time""
""fullscreenenter"",""1"",""2159""
","
","
","""event"",""trial"",""time""
""fullscreenenter"",""1"",""2159""
","
","","","","","","770","images/racket2.png","","","practice","images/park3.png","images/park1.png","images/park2.png","[2,0,1]","2","0","3","images/park2.png","-1","practice","","","",""
"html-keyboard-response","61","272612","0.0-8.0-2.0-0.10","1896","1","2","""event"",""trial"",""time""
""fullscreenenter"",""1"",""2159""
","
","
","""event"",""trial"",""time""
""fullscreenenter"",""1"",""2159""
","
","","","","","","null","<div style=""font-size:60px;"">+</div>","null","","fixation","","","","","","","","","","","","","",""
"learning-trial","62","276617","0.0-8.0-2.0-1.10","1896","1","2","""event"",""trial"",""time""
""fullscreenenter"",""1"",""2159""
","
","
","""event"",""trial"",""time""
""fullscreenenter"",""1"",""2159""
","
","","","","","","1253","images/racket1.png","","","practice","images/park2.png","images/park1.png","images/park3.png","[1,0,2]","1","0","2","images/park1.png","-1","practice","","","",""
"html-keyboard-response","63","277122","0.0-8.0-2.0-0.11","1896","1","2","""event"",""trial"",""time""
""fullscreenenter"",""1"",""2159""
","
","
","""event"",""trial"",""time""
""fullscreenenter"",""1"",""2159""
","
","","","","","","null","<div style=""font-size:60px;"">+</div>","null","","fixation","","","","","","","","","","","","","",""
"learning-trial","64","281137","0.0-8.0-2.0-1.11","1896","1","2","""event"",""trial"",""time""
""fullscreenenter"",""1"",""2159""
","
","
","""event"",""trial"",""time""
""fullscreenenter"",""1"",""2159""
","
","","","","","","755","images/racket1.png","","","practice","images/park3.png","images/park1.png","images/park2.png","[2,0,1]","1","2","2","images/park1.png","-1","practice","","","",""
"html-button-response","65","283090","0.0-8.0-3.0","1896","1","2","""event"",""trial"",""time""
""fullscreenenter"",""1"",""2159""
","
","
","""event"",""trial"",""time""
""fullscreenenter"",""1"",""2159""
","
","","","","","","1950","<p> You earned -10 points in the practice round! </p>","0","","break","","","","","","","","","","","","","",""
"learning-instructions","66","291591","0.0-8.0-4.0-0.0","1896","1","2","""event"",""trial"",""time""
""fullscreenenter"",""1"",""2159""
","
","
","""event"",""trial"",""time""
""fullscreenenter"",""1"",""2159""
","
","","","","","","819","<p> It's almost time to start the real game. </p><p> Before you start, we're going to ask you a few questions about how the game works. </p>","","0","instructions","","","","","","","","","","","","","",""
"preload","67","293665","0.0-8.0-5.0","1896","1","2","""event"",""trial"",""time""
""fullscreenenter"",""1"",""2159""
","
","
","""event"",""trial"",""time""
""fullscreenenter"",""1"",""2159""
","
","true","false","[]","[]","[]","","","","","","","","","","","","","","","","","","",""
"comp-q","68","300412","0.0-8.0-6.0-0.0","1896","1","2","""event"",""trial"",""time""
""fullscreenenter"",""1"",""2159""
","
","
","""event"",""trial"",""time""
""fullscreenenter"",""1"",""2159""
","
","","","","","","1291","<p> <b> True or False? </b> </p><p> If you choose the best option, you will always earn 1 point. </p>","","1","comp_question","","","","","","","","","","","true","","",""
"comp-q","69","307362","0.0-8.0-6.0-1.0","1896","1","2","""event"",""trial"",""time""
""fullscreenenter"",""1"",""2159""
","
","
","""event"",""trial"",""time""
""fullscreenenter"",""1"",""2159""
","
","","","","","","1261","<p><b> That's right! </b> Sometimes you will lose 1 point, even if you choose the best option. </p>","","0","comp_answer","","","","","","","","","","","","","",""
"comp-q","70","312982","0.0-8.0-6.0-0.1","1896","1","2","""event"",""trial"",""time""
""fullscreenenter"",""1"",""2159""
","
","
","""event"",""trial"",""time""
""fullscreenenter"",""1"",""2159""
","
","","","","","","970","<p> <b> True or False? </b> </p><p> You will have as much time as you want to make each choice. </p>","","1","comp_question","","","","","","","","","","","true","","",""
"comp-q","71","319202","0.0-8.0-6.0-1.1","1896","1","2","""event"",""trial"",""time""
""fullscreenenter"",""1"",""2159""
","
","
","""event"",""trial"",""time""
""fullscreenenter"",""1"",""2159""
","
","","","","","","1380","<p> <b> That's right! </b> You will only have 4 seconds to make each choice. </p>","","0","comp_answer","","","","","","","","","","","","","",""
"comp-q","72","326520","0.0-8.0-6.0-0.2","1896","1","2","""event"",""trial"",""time""
""fullscreenenter"",""1"",""2159""
","
","
","""event"",""trial"",""time""
""fullscreenenter"",""1"",""2159""
","
","","","","","","1139","<p> <b> True or False? </b> </p><p> You should use the '1', '2', and '3' keys to make your choices. </p>","","0","comp_question","","","","","","","","","","","true","","",""
"comp-q","73","332821","0.0-8.0-6.0-1.2","1896","1","2","""event"",""trial"",""time""
""fullscreenenter"",""1"",""2159""
","
","
","""event"",""trial"",""time""
""fullscreenenter"",""1"",""2159""
","
","","","","","","1450","<p> <b> That's right! </b> You should use the '1', '2', and '3' keys to make each choice. </p>","","0","comp_answer","","","","","","","","","","","","","",""
"learning-instructions","74","343965","0.0-8.0-7.0-0.0","1896","1","2","""event"",""trial"",""time""
""fullscreenenter"",""1"",""2159""
","
","
","""event"",""trial"",""time""
""fullscreenenter"",""1"",""2159""
","
","","","","","","2634","<p> It's now time to start the real game. </p>Do your best, because the points you earn in the next rounds will influence your bonus payment. </p>","","0","instructions","","","","","","","","","","","","","",""
"preload","75","346301","0.0-9.0-0.0","1896","1","2","""event"",""trial"",""time""
""fullscreenenter"",""1"",""2159""
","
","
","""event"",""trial"",""time""
""fullscreenenter"",""1"",""2159""
","
","true","false","[]","[]","[]","","","","","","","","","","","","","","","","","","",""
"learning-instructions","76","354605","0.0-9.0-1.0-0.0","1896","1","2","""event"",""trial"",""time""
""fullscreenenter"",""1"",""2159""
","
","
","""event"",""trial"",""time""
""fullscreenenter"",""1"",""2159""
","
","","","","","","1833","<p> Your goal in this round is to feed all of your pets with the foods they like. </p><p> You will need to feed many pets. </p></div>","","0","instructions","","","","","","","","","","","","","",""
"learning-instructions","77","363651","0.0-9.0-1.0-0.1","1896","1","2","""event"",""trial"",""time""
""fullscreenenter"",""1"",""2159""
","
","
","""event"",""trial"",""time""
""fullscreenenter"",""1"",""2159""
","
","","","","","","1040","<p> On each turn, you will see a picture of one of your pets and three different types of foods.  </p><p> You need to select the food that you want to give to your pet.  </p>","","0","instructions","","","","","","","","","","","","","",""
"learning-instructions","78","371397","0.0-9.0-1.0-0.2","1896","1","2","""event"",""trial"",""time""
""fullscreenenter"",""1"",""2159""
","
","
","""event"",""trial"",""time""
""fullscreenenter"",""1"",""2159""
","
","","","","","","1014","<p> You can select the food on the left by pressing 1, the food in the middle by pressing 2, and the food on the right by pressing 3. </p><br><div class=""choice-instructions-grid""> <div class=""choice-option""><img src=""images/pets_choice1.png"" class=""choice-option-img"" stage=""instructions"" position=""0"" ><div class=""choice-option-text""> Press ""1."" </div></div><div class=""choice-option""><img src=""images/pets_choice2.png"" class=""choice-option-img"" stage=""instructions"" position=""1"" ><div class=""choice-option-text""> Press ""2."" </div></div><div class=""choice-option""><img src=""images/pets_choice3.png"" class=""choice-option-img"" stage=""instructions"" position=""2"" ><div class=""choice-option-text""> Press ""3."" </div></div></div>","","0","instructions","","","","","","","","","","","","","",""
"learning-instructions","79","376287","0.0-9.0-1.0-0.3","1896","1","2","""event"",""trial"",""time""
""fullscreenenter"",""1"",""2159""
","
","
","""event"",""trial"",""time""
""fullscreenenter"",""1"",""2159""
","
","","","","","","845","<p> If your pet likes the food you chose, it will be very happy! </p><div style='float: center;'><img src='images/check.png' width = '200' height = '200'></img>","","0","instructions","","","","","","","","","","","","","",""
"learning-instructions","80","381348","0.0-9.0-1.0-0.4","1896","1","2","""event"",""trial"",""time""
""fullscreenenter"",""1"",""2159""
","
","
","""event"",""trial"",""time""
""fullscreenenter"",""1"",""2159""
","
","","","","","","625","<p> But, if your pet does not like the food you chose, it will feel sick. </p><div style='float: center;'><img src='images/x.png' width = '200' height = '200'></img>","","0","instructions","","","","","","","","","","","","","",""
"learning-instructions","81","389614","0.0-9.0-1.0-0.5","1896","1","2","""event"",""trial"",""time""
""fullscreenenter"",""1"",""2159""
","
","
","""event"",""trial"",""time""
""fullscreenenter"",""1"",""2159""
","
","","","","","","593","<p> Importantly, each pet has a food that it prefers. </p><p> If you choose the food that the pet prefers, it will be more likely to be happy! </p>","","0","instructions","","","","","","","","","","","","","",""
"learning-instructions","82","399664","0.0-9.0-1.0-0.6","1896","1","2","""event"",""trial"",""time""
""fullscreenenter"",""1"",""2159""
","
","
","""event"",""trial"",""time""
""fullscreenenter"",""1"",""2159""
","
","","","","","","412","<p> However, even if you choose the food the pet prefers, it may still feel sick sometimes. </p><p> Similarly, even if you choose the <i>wrong</i> food, it may still feel happy.","","0","instructions","","","","","","","","","","","","","",""
"learning-instructions","83","412877","0.0-9.0-1.0-0.7","1896","1","2","""event"",""trial"",""time""
""fullscreenenter"",""1"",""2159""
","
","
","""event"",""trial"",""time""
""fullscreenenter"",""1"",""2159""
","
","","","","","","406","<p> Try to choose the food each pet prefers, because you will <b> WIN </b> 1 point each time the pet is happy and <b>LOSE</b>  1 point each time the pet feels sick. </p><p> Your bonus payment will depend on your total number of points.","","0","instructions","","","","","","","","","","","","","",""
"learning-instructions","84","421981","0.0-9.0-1.0-0.8","1896","1","2","""event"",""trial"",""time""
""fullscreenenter"",""1"",""2159""
","
","
","""event"",""trial"",""time""
""fullscreenenter"",""1"",""2159""
","
","","","","","","470","<p> The position of each food will change throughout the round. </p><p> The food's position <i> does not </i> influence how likely the pet is to feel happy or sick. </p>","","0","instructions","","","","","","","","","","","","","",""
"learning-instructions","85","431688","0.0-9.0-1.0-0.9","1896","1","2","""event"",""trial"",""time""
""fullscreenenter"",""1"",""2159""
","
","
","""event"",""trial"",""time""
""fullscreenenter"",""1"",""2159""
","
","","","","","","387","<p> You will have 4 seconds to make each choice. Try to respond before time runs out! </p><p> You will lose 1 point each time you do not make a response. </p>","","0","instructions","","","","","","","","","","","","","",""
"html-keyboard-response","86","432309","0.0-9.0-2.0-0.0","1896","1","2","""event"",""trial"",""time""
""fullscreenenter"",""1"",""2159""
","
","
","""event"",""trial"",""time""
""fullscreenenter"",""1"",""2159""
","
","","","","","","null","<div style=""font-size:60px;"">+</div>","null","","fixation","","","","","","","","","","","","","",""
"learning-trial","87","436316","0.0-9.0-2.0-1.0","1896","1","2","""event"",""trial"",""time""
""fullscreenenter"",""1"",""2159""
","
","
","""event"",""trial"",""time""
""fullscreenenter"",""1"",""2159""
","
","","","","","","704","images/dog2.png","","","learning","images/pets_choice3.png","images/pets_choice1.png","images/pets_choice2.png","[2,0,1]","0","1","1","images/pets_choice3.png","-1","pets","","dog","1","0"
"html-keyboard-response","88","436828","0.0-9.0-2.0-0.1","1896","1","2","""event"",""trial"",""time""
""fullscreenenter"",""1"",""2159""
","
","
","""event"",""trial"",""time""
""fullscreenenter"",""1"",""2159""
","
","","","","","","null","<div style=""font-size:60px;"">+</div>","null","","fixation","","","","","","","","","","","","","",""
"learning-trial","89","440842","0.0-9.0-2.0-1.1","1896","1","2","""event"",""trial"",""time""
""fullscreenenter"",""1"",""2159""
","
","
","""event"",""trial"",""time""
""fullscreenenter"",""1"",""2159""
","
","","","","","","730","images/feline5.png","","","learning","images/pets_choice1.png","images/pets_choice2.png","images/pets_choice3.png","[0,1,2]","2","2","3","images/pets_choice3.png","1","pets","","feline","1","0"
"html-keyboard-response","90","441355","0.0-9.0-2.0-0.2","1896","1","2","""event"",""trial"",""time""
""fullscreenenter"",""1"",""2159""
","
","
","""event"",""trial"",""time""
""fullscreenenter"",""1"",""2159""
","
","","","","","","null","<div style=""font-size:60px;"">+</div>","null","","fixation","","","","","","","","","","","","","",""
"learning-trial","91","445369","0.0-9.0-2.0-1.2","1896","1","2","""event"",""trial"",""time""
""fullscreenenter"",""1"",""2159""
","
","
","""event"",""trial"",""time""
""fullscreenenter"",""1"",""2159""
","
","","","","","","1123","images/dog1.png","","","learning","images/pets_choice3.png","images/pets_choice2.png","images/pets_choice1.png","[2,1,0]","0","2","1","images/pets_choice3.png","-1","pets","","dog","1","0"
"html-keyboard-response","92","445872","0.0-9.0-2.0-0.3","1896","1","2","""event"",""trial"",""time""
""fullscreenenter"",""1"",""2159""
","
","
","""event"",""trial"",""time""
""fullscreenenter"",""1"",""2159""
","
","","","","","","null","<div style=""font-size:60px;"">+</div>","null","","fixation","","","","","","","","","","","","","",""
"learning-trial","93","449883","0.0-9.0-2.0-1.3","1896","1","2","""event"",""trial"",""time""
""fullscreenenter"",""1"",""2159""
","
","
","""event"",""trial"",""time""
""fullscreenenter"",""1"",""2159""
","
","","","","","","800","images/feline4.png","","","learning","images/pets_choice3.png","images/pets_choice1.png","images/pets_choice2.png","[2,0,1]","2","0","1","images/pets_choice3.png","1","pets","","feline","1","0"
"html-keyboard-response","94","450394","0.0-9.0-2.0-0.4","1896","1","2","""event"",""trial"",""time""
""fullscreenenter"",""1"",""2159""
","
","
","""event"",""trial"",""time""
""fullscreenenter"",""1"",""2159""
","
","","","","","","null","<div style=""font-size:60px;"">+</div>","null","","fixation","","","","","","","","","","","","","",""
"learning-trial","95","454412","0.0-9.0-2.0-1.4","1896","1","2","""event"",""trial"",""time""
""fullscreenenter"",""1"",""2159""
","
","
","""event"",""trial"",""time""
""fullscreenenter"",""1"",""2159""
","
","","","","","","1038","images/dog1.png","","","learning","images/pets_choice1.png","images/pets_choice3.png","images/pets_choice2.png","[0,2,1]","0","0","2","images/pets_choice3.png","-1","pets","","dog","1","0"
"html-keyboard-response","96","454917","0.0-9.0-2.0-0.5","1896","1","2","""event"",""trial"",""time""
""fullscreenenter"",""1"",""2159""
","
","
","""event"",""trial"",""time""
""fullscreenenter"",""1"",""2159""
","
","","","","","","null","<div style=""font-size:60px;"">+</div>","null","","fixation","","","","","","","","","","","","","",""
"learning-trial","97","458929","0.0-9.0-2.0-1.5","1896","1","2","""event"",""trial"",""time""
""fullscreenenter"",""1"",""2159""
","
","
","""event"",""trial"",""time""
""fullscreenenter"",""1"",""2159""
","
","","","","","","750","images/dog2.png","","","learning","images/pets_choice2.png","images/pets_choice3.png","images/pets_choice1.png","[1,2,0]","0","2","2","images/pets_choice3.png","1","pets","","dog","1","0"
"html-keyboard-response","98","459436","0.0-9.0-2.0-0.6","1896","1","2","""event"",""trial"",""time""
""fullscreenenter"",""1"",""2159""
","
","
","""event"",""trial"",""time""
""fullscreenenter"",""1"",""2159""
","
","","","","","","null","<div style=""font-size:60px;"">+</div>","null","","fixation","","","","","","","","","","","","","",""
"learning-trial","99","463453","0.0-9.0-2.0-1.6","1896","1","2","""event"",""trial"",""time""
""fullscreenenter"",""1"",""2159""
","
","
","""event"",""trial"",""time""
""fullscreenenter"",""1"",""2159""
","
","","","","","","1009","images/rabbit2.png","","","learning","images/pets_choice2.png","images/pets_choice1.png","images/pets_choice3.png","[1,0,2]","1","0","3","images/pets_choice3.png","-1","pets","","rabbit","1","0"
"html-keyboard-response","100","463965","0.0-9.0-2.0-0.7","1896","1","2","""event"",""trial"",""time""
""fullscreenenter"",""1"",""2159""
","
","
","""event"",""trial"",""time""
""fullscreenenter"",""1"",""2159""
","
","","","","","","null","<div style=""font-size:60px;"">+</div>","null","","fixation","","","","","","","","","","","","","",""
"learning-trial","101","467977","0.0-9.0-2.0-1.7","1896","1","2","""event"",""trial"",""time""
""fullscreenenter"",""1"",""2159""
","
","
","""event"",""trial"",""time""
""fullscreenenter"",""1"",""2159""
","
","","","","","","1127","images/feline2.png","","","learning","images/pets_choice1.png","images/pets_choice3.png","images/pets_choice2.png","[0,2,1]","2","1","2","images/pets_choice3.png","1","pets","","feline","1","0"
"html-keyboard-response","102","468485","0.0-9.0-2.0-0.8","1896","1","2","""event"",""trial"",""time""
""fullscreenenter"",""1"",""2159""
","
","
","""event"",""trial"",""time""
""fullscreenenter"",""1"",""2159""
","
","","","","","","null","<div style=""font-size:60px;"">+</div>","null","","fixation","","","","","","","","","","","","","",""
"learning-trial","103","472496","0.0-9.0-2.0-1.8","1896","1","2","""event"",""trial"",""time""
""fullscreenenter"",""1"",""2159""
","
","
","""event"",""trial"",""time""
""fullscreenenter"",""1"",""2159""
","
","","","","","","945","images/dog5.png","","","learning","images/pets_choice1.png","images/pets_choice2.png","images/pets_choice3.png","[0,1,2]","0","0","3","images/pets_choice3.png","-1","pets","","dog","1","0"
"html-keyboard-response","104","473007","0.0-9.0-2.0-0.9","1896","1","2","""event"",""trial"",""time""
""fullscreenenter"",""1"",""2159""
","
","
","""event"",""trial"",""time""
""fullscreenenter"",""1"",""2159""
","
","","","","","","null","<div style=""font-size:60px;"">+</div>","null","","fixation","","","","","","","","","","","","","",""
"learning-trial","105","477029","0.0-9.0-2.0-1.9","1896","1","2","""event"",""trial"",""time""
""fullscreenenter"",""1"",""2159""
","
","
","""event"",""trial"",""time""
""fullscreenenter"",""1"",""2159""
","
","","","","","","911","images/feline2.png","","","learning","images/pets_choice1.png","images/pets_choice2.png","images/pets_choice3.png","[0,1,2]","2","2","3","images/pets_choice3.png","-1","pets","","feline","1","0"
"html-keyboard-response","106","477538","0.0-9.0-2.0-0.10","1896","1","2","""event"",""trial"",""time""
""fullscreenenter"",""1"",""2159""
","
","
","""event"",""trial"",""time""
""fullscreenenter"",""1"",""2159""
","
","","","","","","null","<div style=""font-size:60px;"">+</div>","null","","fixation","","","","","","","","","","","","","",""
"learning-trial","107","481558","0.0-9.0-2.0-1.10","1896","1","2","""event"",""trial"",""time""
""fullscreenenter"",""1"",""2159""
","
","
","""event"",""trial"",""time""
""fullscreenenter"",""1"",""2159""
","
","","","","","","983","images/dog5.png","","","learning","images/pets_choice2.png","images/pets_choice1.png","images/pets_choice3.png","[1,0,2]","0","1","3","images/pets_choice3.png","-1","pets","","dog","1","0"
"html-keyboard-response","108","482078","0.0-9.0-2.0-0.11","1896","1","2","""event"",""trial"",""time""
""fullscreenenter"",""1"",""2159""
","
","
","""event"",""trial"",""time""
""fullscreenenter"",""1"",""2159""
","
","","","","","","null","<div style=""font-size:60px;"">+</div>","null","","fixation","","","","","","","","","","","","","",""
"learning-trial","109","486089","0.0-9.0-2.0-1.11","1896","1","2","""event"",""trial"",""time""
""fullscreenenter"",""1"",""2159""
","
","
","""event"",""trial"",""time""
""fullscreenenter"",""1"",""2159""
","
","","","","","","1073","images/rabbit2.png","","","learning","images/pets_choice2.png","images/pets_choice1.png","images/pets_choice3.png","[1,0,2]","1","0","3","images/pets_choice3.png","-1","pets","","rabbit","1","0"
"html-keyboard-response","110","486609","0.0-9.0-2.0-0.12","1896","1","2","""event"",""trial"",""time""
""fullscreenenter"",""1"",""2159""
","
","
","""event"",""trial"",""time""
""fullscreenenter"",""1"",""2159""
","
","","","","","","null","<div style=""font-size:60px;"">+</div>","null","","fixation","","","","","","","","","","","","","",""
"learning-trial","111","490624","0.0-9.0-2.0-1.12","1896","1","2","""event"",""trial"",""time""
""fullscreenenter"",""1"",""2159""
","
","
","""event"",""trial"",""time""
""fullscreenenter"",""1"",""2159""
","
","","","","","","967","images/dog1.png","","","learning","images/pets_choice3.png","images/pets_choice1.png","images/pets_choice2.png","[2,0,1]","0","1","2","images/pets_choice1.png","1","pets","","dog","1","0"
"html-keyboard-response","112","491130","0.0-9.0-2.0-0.13","1896","1","2","""event"",""trial"",""time""
""fullscreenenter"",""1"",""2159""
","
","
","""event"",""trial"",""time""
""fullscreenenter"",""1"",""2159""
","
","","","","","","null","<div style=""font-size:60px;"">+</div>","null","","fixation","","","","","","","","","","","","","",""
"learning-trial","113","495145","0.0-9.0-2.0-1.13","1896","1","2","""event"",""trial"",""time""
""fullscreenenter"",""1"",""2159""
","
","
","""event"",""trial"",""time""
""fullscreenenter"",""1"",""2159""
","
","","","","","","790","images/rabbit3.png","","","learning","images/pets_choice1.png","images/pets_choice2.png","images/pets_choice3.png","[0,1,2]","1","1","3","images/pets_choice3.png","-1","pets","","rabbit","1","0"
"html-keyboard-response","114","495658","0.0-9.0-2.0-0.14","1896","1","2","""event"",""trial"",""time""
""fullscreenenter"",""1"",""2159""
","
","
","""event"",""trial"",""time""
""fullscreenenter"",""1"",""2159""
","
","","","","","","null","<div style=""font-size:60px;"">+</div>","null","","fixation","","","","","","","","","","","","","",""
"learning-trial","115","499667","0.0-9.0-2.0-1.14","1896","1","2","""event"",""trial"",""time""
""fullscreenenter"",""1"",""2159""
","
","
","""event"",""trial"",""time""
""fullscreenenter"",""1"",""2159""
","
","","","","","","1152","images/rabbit2.png","","","learning","images/pets_choice2.png","images/pets_choice1.png","images/pets_choice3.png","[1,0,2]","1","0","2","images/pets_choice1.png","-1","pets","","rabbit","1","0"
"html-keyboard-response","116","500177","0.0-9.0-2.0-0.15","1896","1","2","""event"",""trial"",""time""
""fullscreenenter"",""1"",""2159""
","
","
","""event"",""trial"",""time""
""fullscreenenter"",""1"",""2159""
","
","","","","","","null","<div style=""font-size:60px;"">+</div>","null","","fixation","","","","","","","","","","","","","",""
"learning-trial","117","504184","0.0-9.0-2.0-1.15","1896","1","2","""event"",""trial"",""time""
""fullscreenenter"",""1"",""2159""
","
","
","""event"",""trial"",""time""
""fullscreenenter"",""1"",""2159""
","
","","","","","","927","images/feline4.png","","","learning","images/pets_choice2.png","images/pets_choice3.png","images/pets_choice1.png","[1,2,0]","2","1","2","images/pets_choice3.png","1","pets","","feline","1","0"
"html-keyboard-response","118","504695","0.0-9.0-2.0-0.16","1896","1","2","""event"",""trial"",""time""
""fullscreenenter"",""1"",""2159""
","
","
","""event"",""trial"",""time""
""fullscreenenter"",""1"",""2159""
","
","","","","","","null","<div style=""font-size:60px;"">+</div>","null","","fixation","","","","","","","","","","","","","",""
"learning-trial","119","508710","0.0-9.0-2.0-1.16","1896","1","2","""event"",""trial"",""time""
""fullscreenenter"",""1"",""2159""
","
","
","""event"",""trial"",""time""
""fullscreenenter"",""1"",""2159""
","
","","","","","","1228","images/dog2.png","","","learning","images/pets_choice3.png","images/pets_choice1.png","images/pets_choice2.png","[2,0,1]","0","1","2","images/pets_choice1.png","1","pets","","dog","1","0"
"html-keyboard-response","120","509223","0.0-9.0-2.0-0.17","1896","1","2","""event"",""trial"",""time""
""fullscreenenter"",""1"",""2159""
","
","
","""event"",""trial"",""time""
""fullscreenenter"",""1"",""2159""
","
","","","","","","null","<div style=""font-size:60px;"">+</div>","null","","fixation","","","","","","","","","","","","","",""
"learning-trial","121","513237","0.0-9.0-2.0-1.17","1896","1","2","""event"",""trial"",""time""
""fullscreenenter"",""1"",""2159""
","
","
","""event"",""trial"",""time""
""fullscreenenter"",""1"",""2159""
","
","","","","","","934","images/rabbit2.png","","","learning","images/pets_choice2.png","images/pets_choice3.png","images/pets_choice1.png","[1,2,0]","1","0","1","images/pets_choice2.png","1","pets","","rabbit","1","0"
"html-keyboard-response","122","513750","0.0-9.0-2.0-0.18","1896","1","2","""event"",""trial"",""time""
""fullscreenenter"",""1"",""2159""
","
","
","""event"",""trial"",""time""
""fullscreenenter"",""1"",""2159""
","
","","","","","","null","<div style=""font-size:60px;"">+</div>","null","","fixation","","","","","","","","","","","","","",""
"learning-trial","123","517768","0.0-9.0-2.0-1.18","1896","1","2","""event"",""trial"",""time""
""fullscreenenter"",""1"",""2159""
","
","
","""event"",""trial"",""time""
""fullscreenenter"",""1"",""2159""
","
","","","","","","1067","images/rabbit4.png","","","learning","images/pets_choice1.png","images/pets_choice3.png","images/pets_choice2.png","[0,2,1]","1","2","1","images/pets_choice1.png","-1","pets","","rabbit","1","0"
"html-keyboard-response","124","518272","0.0-9.0-2.0-0.19","1896","1","2","""event"",""trial"",""time""
""fullscreenenter"",""1"",""2159""
","
","
","""event"",""trial"",""time""
""fullscreenenter"",""1"",""2159""
","
","","","","","","null","<div style=""font-size:60px;"">+</div>","null","","fixation","","","","","","","","","","","","","",""
"learning-trial","125","522279","0.0-9.0-2.0-1.19","1896","1","2","""event"",""trial"",""time""
""fullscreenenter"",""1"",""2159""
","
","
","""event"",""trial"",""time""
""fullscreenenter"",""1"",""2159""
","
","","","","","","1095","images/feline4.png","","","learning","images/pets_choice1.png","images/pets_choice2.png","images/pets_choice3.png","[0,1,2]","2","2","3","images/pets_choice3.png","1","pets","","feline","1","0"
"html-keyboard-response","126","522792","0.0-9.0-2.0-0.20","1896","1","2","""event"",""trial"",""time""
""fullscreenenter"",""1"",""2159""
","
","
","""event"",""trial"",""time""
""fullscreenenter"",""1"",""2159""
","
","","","","","","null","<div style=""font-size:60px;"">+</div>","null","","fixation","","","","","","","","","","","","","",""
"learning-trial","127","526799","0.0-9.0-2.0-1.20","1896","1","2","""event"",""trial"",""time""
""fullscreenenter"",""1"",""2159""
","
","
","""event"",""trial"",""time""
""fullscreenenter"",""1"",""2159""
","
","","","","","","818","images/dog2.png","","","learning","images/pets_choice2.png","images/pets_choice1.png","images/pets_choice3.png","[1,0,2]","0","1","2","images/pets_choice1.png","1","pets","","dog","1","0"
"html-keyboard-response","128","527312","0.0-9.0-2.0-0.21","1896","1","2","""event"",""trial"",""time""
""fullscreenenter"",""1"",""2159""
","
","
","""event"",""trial"",""time""
""fullscreenenter"",""1"",""2159""
","
","","","","","","null","<div style=""font-size:60px;"">+</div>","null","","fixation","","","","","","","","","","","","","",""
"learning-trial","129","531322","0.0-9.0-2.0-1.21","1896","1","2","""event"",""trial"",""time""
""fullscreenenter"",""1"",""2159""
","
","
","""event"",""trial"",""time""
""fullscreenenter"",""1"",""2159""
","
","","","","","","944","images/feline5.png","","","learning","images/pets_choice3.png","images/pets_choice1.png","images/pets_choice2.png","[2,0,1]","2","0","1","images/pets_choice3.png","1","pets","","feline","1","0"
"html-keyboard-response","130","531836","0.0-9.0-2.0-0.22","1896","1","2","""event"",""trial"",""time""
""fullscreenenter"",""1"",""2159""
","
","
","""event"",""trial"",""time""
""fullscreenenter"",""1"",""2159""
","
","","","","","","null","<div style=""font-size:60px;"">+</div>","null","","fixation","","","","","","","","","","","","","",""
"learning-trial","131","535845","0.0-9.0-2.0-1.22","1896","1","2","""event"",""trial"",""time""
""fullscreenenter"",""1"",""2159""
","
","
","""event"",""trial"",""time""
""fullscreenenter"",""1"",""2159""
","
","","","","","","1125","images/dog5.png","","","learning","images/pets_choice3.png","images/pets_choice1.png","images/pets_choice2.png","[2,0,1]","0","1","2","images/pets_choice1.png","1","pets","","dog","1","0"
"html-keyboard-response","132","536355","0.0-9.0-2.0-0.23","1896","1","2","""event"",""trial"",""time""
""fullscreenenter"",""1"",""2159""
","
","
","""event"",""trial"",""time""
""fullscreenenter"",""1"",""2159""
","
","","","","","","null","<div style=""font-size:60px;"">+</div>","null","","fixation","","","","","","","","","","","","","",""
"learning-trial","133","540362","0.0-9.0-2.0-1.23","1896","1","2","""event"",""trial"",""time""
""fullscreenenter"",""1"",""2159""
","
","
","""event"",""trial"",""time""
""fullscreenenter"",""1"",""2159""
","
","","","","","","802","images/rabbit4.png","","","learning","images/pets_choice1.png","images/pets_choice2.png","images/pets_choice3.png","[0,1,2]","1","1","2","images/pets_choice2.png","-1","pets","","rabbit","1","0"
"html-keyboard-response","134","540874","0.0-9.0-2.0-0.24","1896","1","2","""event"",""trial"",""time""
""fullscreenenter"",""1"",""2159""
","
","
","""event"",""trial"",""time""
""fullscreenenter"",""1"",""2159""
","
","","","","","","null","<div style=""font-size:60px;"">+</div>","null","","fixation","","","","","","","","","","","","","",""
"learning-trial","135","544882","0.0-9.0-2.0-1.24","1896","1","2","""event"",""trial"",""time""
""fullscreenenter"",""1"",""2159""
","
","
","""event"",""trial"",""time""
""fullscreenenter"",""1"",""2159""
","
","","","","","","1253","images/dog1.png","","","learning","images/pets_choice1.png","images/pets_choice3.png","images/pets_choice2.png","[0,2,1]","0","0","1","images/pets_choice1.png","1","pets","","dog","1","0"
"html-keyboard-response","136","545391","0.0-9.0-2.0-0.25","1896","1","2","""event"",""trial"",""time""
""fullscreenenter"",""1"",""2159""
","
","
","""event"",""trial"",""time""
""fullscreenenter"",""1"",""2159""
","
","","","","","","null","<div style=""font-size:60px;"">+</div>","null","","fixation","","","","","","","","","","","","","",""
"learning-trial","137","549406","0.0-9.0-2.0-1.25","1896","1","2","""event"",""trial"",""time""
""fullscreenenter"",""1"",""2159""
","
","
","""event"",""trial"",""time""
""fullscreenenter"",""1"",""2159""
","
","","","","","","836","images/rabbit3.png","","","learning","images/pets_choice3.png","images/pets_choice2.png","images/pets_choice1.png","[2,1,0]","1","1","2","images/pets_choice2.png","1","pets","","rabbit","1","0"
"html-keyboard-response","138","549916","0.0-9.0-2.0-0.26","1896","1","2","""event"",""trial"",""time""
""fullscreenenter"",""1"",""2159""
","
","
","""event"",""trial"",""time""
""fullscreenenter"",""1"",""2159""
","
","","","","","","null","<div style=""font-size:60px;"">+</div>","null","","fixation","","","","","","","","","","","","","",""
"learning-trial","139","553927","0.0-9.0-2.0-1.26","1896","1","2","""event"",""trial"",""time""
""fullscreenenter"",""1"",""2159""
","
","
","""event"",""trial"",""time""
""fullscreenenter"",""1"",""2159""
","
","","","","","","751","images/feline2.png","","","learning","images/pets_choice1.png","images/pets_choice2.png","images/pets_choice3.png","[0,1,2]","2","2","3","images/pets_choice3.png","1","pets","","feline","1","0"
"html-keyboard-response","140","554442","0.0-9.0-2.0-0.27","1896","1","2","""event"",""trial"",""time""
""fullscreenenter"",""1"",""2159""
","
","
","""event"",""trial"",""time""
""fullscreenenter"",""1"",""2159""
","
","","","","","","null","<div style=""font-size:60px;"">+</div>","null","","fixation","","","","","","","","","","","","","",""
"learning-trial","141","558453","0.0-9.0-2.0-1.27","1896","1","2","""event"",""trial"",""time""
""fullscreenenter"",""1"",""2159""
","
","
","""event"",""trial"",""time""
""fullscreenenter"",""1"",""2159""
","
","","","","","","977","images/dog2.png","","","learning","images/pets_choice3.png","images/pets_choice2.png","images/pets_choice1.png","[2,1,0]","0","2","3","images/pets_choice1.png","1","pets","","dog","1","0"
"html-keyboard-response","142","558967","0.0-9.0-2.0-0.28","1896","1","2","""event"",""trial"",""time""
""fullscreenenter"",""1"",""2159""
","
","
","""event"",""trial"",""time""
""fullscreenenter"",""1"",""2159""
","
","","","","","","null","<div style=""font-size:60px;"">+</div>","null","","fixation","","","","","","","","","","","","","",""
"learning-trial","143","562982","0.0-9.0-2.0-1.28","1896","1","2","""event"",""trial"",""time""
""fullscreenenter"",""1"",""2159""
","
","
","""event"",""trial"",""time""
""fullscreenenter"",""1"",""2159""
","
","","","","","","1231","images/feline2.png","","","learning","images/pets_choice2.png","images/pets_choice1.png","images/pets_choice3.png","[1,0,2]","2","2","3","images/pets_choice3.png","1","pets","","feline","1","0"
"html-keyboard-response","144","563497","0.0-9.0-2.0-0.29","1896","1","2","""event"",""trial"",""time""
""fullscreenenter"",""1"",""2159""
","
","
","""event"",""trial"",""time""
""fullscreenenter"",""1"",""2159""
","
","","","","","","null","<div style=""font-size:60px;"">+</div>","null","","fixation","","","","","","","","","","","","","",""
"learning-trial","145","567507","0.0-9.0-2.0-1.29","1896","1","2","""event"",""trial"",""time""
""fullscreenenter"",""1"",""2159""
","
","
","""event"",""trial"",""time""
""fullscreenenter"",""1"",""2159""
","
","","","","","","915","images/dog1.png","","","learning","images/pets_choice1.png","images/pets_choice2.png","images/pets_choice3.png","[0,1,2]","0","0","1","images/pets_choice1.png","1","pets","","dog","1","0"
"html-keyboard-response","146","568018","0.0-9.0-2.0-0.30","1896","1","2","""event"",""trial"",""time""
""fullscreenenter"",""1"",""2159""
","
","
","""event"",""trial"",""time""
""fullscreenenter"",""1"",""2159""
","
","","","","","","null","<div style=""font-size:60px;"">+</div>","null","","fixation","","","","","","","","","","","","","",""
"learning-trial","147","572027","0.0-9.0-2.0-1.30","1896","1","2","""event"",""trial"",""time""
""fullscreenenter"",""1"",""2159""
","
","
","""event"",""trial"",""time""
""fullscreenenter"",""1"",""2159""
","
","","","","","","999","images/dog1.png","","","learning","images/pets_choice1.png","images/pets_choice3.png","images/pets_choice2.png","[0,2,1]","0","0","1","images/pets_choice1.png","1","pets","","dog","1","0"
"html-keyboard-response","148","572537","0.0-9.0-2.0-0.31","1896","1","2","""event"",""trial"",""time""
""fullscreenenter"",""1"",""2159""
","
","
","""event"",""trial"",""time""
""fullscreenenter"",""1"",""2159""
","
","","","","","","null","<div style=""font-size:60px;"">+</div>","null","","fixation","","","","","","","","","","","","","",""
"learning-trial","149","576557","0.0-9.0-2.0-1.31","1896","1","2","""event"",""trial"",""time""
""fullscreenenter"",""1"",""2159""
","
","
","""event"",""trial"",""time""
""fullscreenenter"",""1"",""2159""
","
","","","","","","782","images/feline5.png","","","learning","images/pets_choice1.png","images/pets_choice3.png","images/pets_choice2.png","[0,2,1]","2","1","2","images/pets_choice3.png","1","pets","","feline","1","0"
"html-keyboard-response","150","577069","0.0-9.0-2.0-0.32","1896","1","2","""event"",""trial"",""time""
""fullscreenenter"",""1"",""2159""
","
","
","""event"",""trial"",""time""
""fullscreenenter"",""1"",""2159""
","
","","","","","","null","<div style=""font-size:60px;"">+</div>","null","","fixation","","","","","","","","","","","","","",""
"learning-trial","151","581080","0.0-9.0-2.0-1.32","1896","1","2","""event"",""trial"",""time""
""fullscreenenter"",""1"",""2159""
","
","
","""event"",""trial"",""time""
""fullscreenenter"",""1"",""2159""
","
","","","","","","929","images/dog5.png","","","learning","images/pets_choice3.png","images/pets_choice1.png","images/pets_choice2.png","[2,0,1]","0","1","2","images/pets_choice1.png","1","pets","","dog","1","0"
"html-keyboard-response","152","581590","0.0-9.0-2.0-0.33","1896","1","2","""event"",""trial"",""time""
""fullscreenenter"",""1"",""2159""
","
","
","""event"",""trial"",""time""
""fullscreenenter"",""1"",""2159""
","
","","","","","","null","<div style=""font-size:60px;"">+</div>","null","","fixation","","","","","","","","","","","","","",""
"learning-trial","153","585597","0.0-9.0-2.0-1.33","1896","1","2","""event"",""trial"",""time""
""fullscreenenter"",""1"",""2159""
","
","
","""event"",""trial"",""time""
""fullscreenenter"",""1"",""2159""
","
","","","","","","797","images/rabbit3.png","","","learning","images/pets_choice3.png","images/pets_choice2.png","images/pets_choice1.png","[2,1,0]","1","1","2","images/pets_choice2.png","1","pets","","rabbit","1","0"
"html-keyboard-response","154","586109","0.0-9.0-2.0-0.34","1896","1","2","""event"",""trial"",""time""
""fullscreenenter"",""1"",""2159""
","
","
","""event"",""trial"",""time""
""fullscreenenter"",""1"",""2159""
","
","","","","","","null","<div style=""font-size:60px;"">+</div>","null","","fixation","","","","","","","","","","","","","",""
"learning-trial","155","590113","0.0-9.0-2.0-1.34","1896","1","2","""event"",""trial"",""time""
""fullscreenenter"",""1"",""2159""
","
","
","""event"",""trial"",""time""
""fullscreenenter"",""1"",""2159""
","
","","","","","","741","images/rabbit4.png","","","learning","images/pets_choice1.png","images/pets_choice2.png","images/pets_choice3.png","[0,1,2]","1","1","2","images/pets_choice2.png","1","pets","","rabbit","1","0"
"html-keyboard-response","156","590625","0.0-9.0-2.0-0.35","1896","1","2","""event"",""trial"",""time""
""fullscreenenter"",""1"",""2159""
","
","
","""event"",""trial"",""time""
""fullscreenenter"",""1"",""2159""
","
","","","","","","null","<div style=""font-size:60px;"">+</div>","null","","fixation","","","","","","","","","","","","","",""
"learning-trial","157","594638","0.0-9.0-2.0-1.35","1896","1","2","""event"",""trial"",""time""
""fullscreenenter"",""1"",""2159""
","
","
","""event"",""trial"",""time""
""fullscreenenter"",""1"",""2159""
","
","","","","","","751","images/rabbit4.png","","","learning","images/pets_choice1.png","images/pets_choice2.png","images/pets_choice3.png","[0,1,2]","1","1","2","images/pets_choice2.png","1","pets","","rabbit","1","0"
"html-keyboard-response","158","595148","0.0-9.0-2.0-0.36","1896","1","2","""event"",""trial"",""time""
""fullscreenenter"",""1"",""2159""
","
","
","""event"",""trial"",""time""
""fullscreenenter"",""1"",""2159""
","
","","","","","","null","<div style=""font-size:60px;"">+</div>","null","","fixation","","","","","","","","","","","","","",""
"learning-trial","159","599169","0.0-9.0-2.0-1.36","1896","1","2","""event"",""trial"",""time""
""fullscreenenter"",""1"",""2159""
","
","
","""event"",""trial"",""time""
""fullscreenenter"",""1"",""2159""
","
","","","","","","845","images/rabbit3.png","","","learning","images/pets_choice2.png","images/pets_choice3.png","images/pets_choice1.png","[1,2,0]","1","0","1","images/pets_choice2.png","1","pets","","rabbit","1","0"
"html-keyboard-response","160","599687","0.0-9.0-2.0-0.37","1896","1","2","""event"",""trial"",""time""
""fullscreenenter"",""1"",""2159""
","
","
","""event"",""trial"",""time""
""fullscreenenter"",""1"",""2159""
","
","","","","","","null","<div style=""font-size:60px;"">+</div>","null","","fixation","","","","","","","","","","","","","",""
"learning-trial","161","603698","0.0-9.0-2.0-1.37","1896","1","2","""event"",""trial"",""time""
""fullscreenenter"",""1"",""2159""
","
","
","""event"",""trial"",""time""
""fullscreenenter"",""1"",""2159""
","
","","","","","","985","images/dog5.png","","","learning","images/pets_choice3.png","images/pets_choice1.png","images/pets_choice2.png","[2,0,1]","0","1","1","images/pets_choice3.png","-1","pets","","dog","1","0"
"html-keyboard-response","162","604218","0.0-9.0-2.0-0.38","1896","1","2","""event"",""trial"",""time""
""fullscreenenter"",""1"",""2159""
","
","
","""event"",""trial"",""time""
""fullscreenenter"",""1"",""2159""
","
","","","","","","null","<div style=""font-size:60px;"">+</div>","null","","fixation","","","","","","","","","","","","","",""
"learning-trial","163","608239","0.0-9.0-2.0-1.38","1896","1","2","""event"",""trial"",""time""
""fullscreenenter"",""1"",""2159""
","
","
","""event"",""trial"",""time""
""fullscreenenter"",""1"",""2159""
","
","","","","","","733","images/feline5.png","","","learning","images/pets_choice1.png","images/pets_choice3.png","images/pets_choice2.png","[0,2,1]","2","1","2","images/pets_choice3.png","-1","pets","","feline","1","0"
"html-keyboard-response","164","608747","0.0-9.0-2.0-0.39","1896","1","2","""event"",""trial"",""time""
""fullscreenenter"",""1"",""2159""
","
","
","""event"",""trial"",""time""
""fullscreenenter"",""1"",""2159""
","
","","","","","","null","<div style=""font-size:60px;"">+</div>","null","","fixation","","","","","","","","","","","","","",""
"learning-trial","165","612769","0.0-9.0-2.0-1.39","1896","1","2","""event"",""trial"",""time""
""fullscreenenter"",""1"",""2159""
","
","
","""event"",""trial"",""time""
""fullscreenenter"",""1"",""2159""
","
","","","","","","762","images/rabbit3.png","","","learning","images/pets_choice1.png","images/pets_choice2.png","images/pets_choice3.png","[0,1,2]","1","1","2","images/pets_choice2.png","1","pets","","rabbit","1","0"
"html-keyboard-response","166","613288","0.0-9.0-2.0-0.40","1896","1","2","""event"",""trial"",""time""
""fullscreenenter"",""1"",""2159""
","
","
","""event"",""trial"",""time""
""fullscreenenter"",""1"",""2159""
","
","","","","","","null","<div style=""font-size:60px;"">+</div>","null","","fixation","","","","","","","","","","","","","",""
"learning-trial","167","617308","0.0-9.0-2.0-1.40","1896","1","2","""event"",""trial"",""time""
""fullscreenenter"",""1"",""2159""
","
","
","""event"",""trial"",""time""
""fullscreenenter"",""1"",""2159""
","
","","","","","","797","images/dog5.png","","","learning","images/pets_choice3.png","images/pets_choice2.png","images/pets_choice1.png","[2,1,0]","0","2","3","images/pets_choice1.png","-1","pets","","dog","1","0"
"html-keyboard-response","168","617828","0.0-9.0-2.0-0.41","1896","1","2","""event"",""trial"",""time""
""fullscreenenter"",""1"",""2159""
","
","
","""event"",""trial"",""time""
""fullscreenenter"",""1"",""2159""
","
","","","","","","null","<div style=""font-size:60px;"">+</div>","null","","fixation","","","","","","","","","","","","","",""
"learning-trial","169","621849","0.0-9.0-2.0-1.41","1896","1","2","""event"",""trial"",""time""
""fullscreenenter"",""1"",""2159""
","
","
","""event"",""trial"",""time""
""fullscreenenter"",""1"",""2159""
","
","","","","","","912","images/dog5.png","","","learning","images/pets_choice3.png","images/pets_choice1.png","images/pets_choice2.png","[2,0,1]","0","1","2","images/pets_choice1.png","1","pets","","dog","1","0"
"html-keyboard-response","170","622369","0.0-9.0-2.0-0.42","1896","1","2","""event"",""trial"",""time""
""fullscreenenter"",""1"",""2159""
","
","
","""event"",""trial"",""time""
""fullscreenenter"",""1"",""2159""
","
","","","","","","null","<div style=""font-size:60px;"">+</div>","null","","fixation","","","","","","","","","","","","","",""
"learning-trial","171","626378","0.0-9.0-2.0-1.42","1896","1","2","""event"",""trial"",""time""
""fullscreenenter"",""1"",""2159""
","
","
","""event"",""trial"",""time""
""fullscreenenter"",""1"",""2159""
","
","","","","","","1053","images/feline2.png","","","learning","images/pets_choice1.png","images/pets_choice2.png","images/pets_choice3.png","[0,1,2]","2","2","3","images/pets_choice3.png","1","pets","","feline","1","0"
"html-keyboard-response","172","626899","0.0-9.0-2.0-0.43","1896","1","2","""event"",""trial"",""time""
""fullscreenenter"",""1"",""2159""
","
","
","""event"",""trial"",""time""
""fullscreenenter"",""1"",""2159""
","
","","","","","","null","<div style=""font-size:60px;"">+</div>","null","","fixation","","","","","","","","","","","","","",""
"learning-trial","173","630908","0.0-9.0-2.0-1.43","1896","1","2","""event"",""trial"",""time""
""fullscreenenter"",""1"",""2159""
","
","
","""event"",""trial"",""time""
""fullscreenenter"",""1"",""2159""
","
","","","","","","664","images/feline5.png","","","learning","images/pets_choice3.png","images/pets_choice1.png","images/pets_choice2.png","[2,0,1]","2","0","1","images/pets_choice3.png","1","pets","","feline","1","0"
"html-keyboard-response","174","631428","0.0-9.0-2.0-0.44","1896","1","2","""event"",""trial"",""time""
""fullscreenenter"",""1"",""2159""
","
","
","""event"",""trial"",""time""
""fullscreenenter"",""1"",""2159""
","
","","","","","","null","<div style=""font-size:60px;"">+</div>","null","","fixation","","","","","","","","","","","","","",""
"learning-trial","175","635438","0.0-9.0-2.0-1.44","1896","1","2","""event"",""trial"",""time""
""fullscreenenter"",""1"",""2159""
","
","
","""event"",""trial"",""time""
""fullscreenenter"",""1"",""2159""
","
","","","","","","746","images/feline5.png","","","learning","images/pets_choice3.png","images/pets_choice2.png","images/pets_choice1.png","[2,1,0]","2","0","1","images/pets_choice3.png","1","pets","","feline","1","0"
"html-keyboard-response","176","635951","0.0-9.0-2.0-0.45","1896","1","2","""event"",""trial"",""time""
""fullscreenenter"",""1"",""2159""
","
","
","""event"",""trial"",""time""
""fullscreenenter"",""1"",""2159""
","
","","","","","","null","<div style=""font-size:60px;"">+</div>","null","","fixation","","","","","","","","","","","","","",""
"learning-trial","177","639967","0.0-9.0-2.0-1.45","1896","1","2","""event"",""trial"",""time""
""fullscreenenter"",""1"",""2159""
","
","
","""event"",""trial"",""time""
""fullscreenenter"",""1"",""2159""
","
","","","","","","837","images/rabbit2.png","","","learning","images/pets_choice3.png","images/pets_choice1.png","images/pets_choice2.png","[2,0,1]","1","2","3","images/pets_choice2.png","-1","pets","","rabbit","1","0"
"html-keyboard-response","178","640472","0.0-9.0-2.0-0.46","1896","1","2","""event"",""trial"",""time""
""fullscreenenter"",""1"",""2159""
","
","
","""event"",""trial"",""time""
""fullscreenenter"",""1"",""2159""
","
","","","","","","null","<div style=""font-size:60px;"">+</div>","null","","fixation","","","","","","","","","","","","","",""
"learning-trial","179","644479","0.0-9.0-2.0-1.46","1896","1","2","""event"",""trial"",""time""
""fullscreenenter"",""1"",""2159""
","
","
","""event"",""trial"",""time""
""fullscreenenter"",""1"",""2159""
","
","","","","","","935","images/feline4.png","","","learning","images/pets_choice1.png","images/pets_choice3.png","images/pets_choice2.png","[0,2,1]","2","1","2","images/pets_choice3.png","1","pets","","feline","1","0"
"html-keyboard-response","180","644982","0.0-9.0-2.0-0.47","1896","1","2","""event"",""trial"",""time""
""fullscreenenter"",""1"",""2159""
","
","
","""event"",""trial"",""time""
""fullscreenenter"",""1"",""2159""
","
","","","","","","null","<div style=""font-size:60px;"">+</div>","null","","fixation","","","","","","","","","","","","","",""
"learning-trial","181","648996","0.0-9.0-2.0-1.47","1896","1","2","""event"",""trial"",""time""
""fullscreenenter"",""1"",""2159""
","
","
","""event"",""trial"",""time""
""fullscreenenter"",""1"",""2159""
","
","","","","","","707","images/feline4.png","","","learning","images/pets_choice3.png","images/pets_choice2.png","images/pets_choice1.png","[2,1,0]","2","0","1","images/pets_choice3.png","1","pets","","feline","1","0"
"html-keyboard-response","182","649506","0.0-9.0-2.0-0.48","1896","1","2","""event"",""trial"",""time""
""fullscreenenter"",""1"",""2159""
","
","
","""event"",""trial"",""time""
""fullscreenenter"",""1"",""2159""
","
","","","","","","null","<div style=""font-size:60px;"">+</div>","null","","fixation","","","","","","","","","","","","","",""
"learning-trial","183","653521","0.0-9.0-2.0-1.48","1896","1","2","""event"",""trial"",""time""
""fullscreenenter"",""1"",""2159""
","
","
","""event"",""trial"",""time""
""fullscreenenter"",""1"",""2159""
","
","","","","","","852","images/rabbit2.png","","","learning","images/pets_choice3.png","images/pets_choice2.png","images/pets_choice1.png","[2,1,0]","1","1","2","images/pets_choice2.png","1","pets","","rabbit","1","0"
"html-keyboard-response","184","654030","0.0-9.0-2.0-0.49","1896","1","2","""event"",""trial"",""time""
""fullscreenenter"",""1"",""2159""
","
","
","""event"",""trial"",""time""
""fullscreenenter"",""1"",""2159""
","
","","","","","","null","<div style=""font-size:60px;"">+</div>","null","","fixation","","","","","","","","","","","","","",""
"learning-trial","185","658035","0.0-9.0-2.0-1.49","1896","1","2","""event"",""trial"",""time""
""fullscreenenter"",""1"",""2159""
","
","
","""event"",""trial"",""time""
""fullscreenenter"",""1"",""2159""
","
","","","","","","587","images/rabbit4.png","","","learning","images/pets_choice3.png","images/pets_choice2.png","images/pets_choice1.png","[2,1,0]","1","1","2","images/pets_choice2.png","1","pets","","rabbit","1","0"
"html-keyboard-response","186","658543","0.0-9.0-2.0-0.50","1896","1","2","""event"",""trial"",""time""
""fullscreenenter"",""1"",""2159""
","
","
","""event"",""trial"",""time""
""fullscreenenter"",""1"",""2159""
","
","","","","","","null","<div style=""font-size:60px;"">+</div>","null","","fixation","","","","","","","","","","","","","",""
"learning-trial","187","662558","0.0-9.0-2.0-1.50","1896","1","2","""event"",""trial"",""time""
""fullscreenenter"",""1"",""2159""
","
","
","""event"",""trial"",""time""
""fullscreenenter"",""1"",""2159""
","
","","","","","","1005","images/dog2.png","","","learning","images/pets_choice1.png","images/pets_choice2.png","images/pets_choice3.png","[0,1,2]","0","0","1","images/pets_choice1.png","1","pets","","dog","1","0"
"html-keyboard-response","188","663068","0.0-9.0-2.0-0.51","1896","1","2","""event"",""trial"",""time""
""fullscreenenter"",""1"",""2159""
","
","
","""event"",""trial"",""time""
""fullscreenenter"",""1"",""2159""
","
","","","","","","null","<div style=""font-size:60px;"">+</div>","null","","fixation","","","","","","","","","","","","","",""
"learning-trial","189","667076","0.0-9.0-2.0-1.51","1896","1","2","""event"",""trial"",""time""
""fullscreenenter"",""1"",""2159""
","
","
","""event"",""trial"",""time""
""fullscreenenter"",""1"",""2159""
","
","","","","","","981","images/feline4.png","","","learning","images/pets_choice1.png","images/pets_choice2.png","images/pets_choice3.png","[0,1,2]","2","2","3","images/pets_choice3.png","1","pets","","feline","1","0"
"html-keyboard-response","190","667586","0.0-9.0-2.0-0.52","1896","1","2","""event"",""trial"",""time""
""fullscreenenter"",""1"",""2159""
","
","
","""event"",""trial"",""time""
""fullscreenenter"",""1"",""2159""
","
","","","","","","null","<div style=""font-size:60px;"">+</div>","null","","fixation","","","","","","","","","","","","","",""
"learning-trial","191","671592","0.0-9.0-2.0-1.52","1896","1","2","""event"",""trial"",""time""
""fullscreenenter"",""1"",""2159""
","
","
","""event"",""trial"",""time""
""fullscreenenter"",""1"",""2159""
","
","","","","","","830","images/rabbit4.png","","","learning","images/pets_choice1.png","images/pets_choice2.png","images/pets_choice3.png","[0,1,2]","1","1","2","images/pets_choice2.png","1","pets","","rabbit","1","0"
"html-keyboard-response","192","672102","0.0-9.0-2.0-0.53","1896","1","2","""event"",""trial"",""time""
""fullscreenenter"",""1"",""2159""
","
","
","""event"",""trial"",""time""
""fullscreenenter"",""1"",""2159""
","
","","","","","","null","<div style=""font-size:60px;"">+</div>","null","","fixation","","","","","","","","","","","","","",""
"learning-trial","193","676111","0.0-9.0-2.0-1.53","1896","1","2","""event"",""trial"",""time""
""fullscreenenter"",""1"",""2159""
","
","
","""event"",""trial"",""time""
""fullscreenenter"",""1"",""2159""
","
","","","","","","848","images/dog1.png","","","learning","images/pets_choice3.png","images/pets_choice1.png","images/pets_choice2.png","[2,0,1]","0","1","2","images/pets_choice1.png","1","pets","","dog","1","0"
"html-keyboard-response","194","676626","0.0-9.0-2.0-0.54","1896","1","2","""event"",""trial"",""time""
""fullscreenenter"",""1"",""2159""
","
","
","""event"",""trial"",""time""
""fullscreenenter"",""1"",""2159""
","
","","","","","","null","<div style=""font-size:60px;"">+</div>","null","","fixation","","","","","","","","","","","","","",""
"learning-trial","195","680632","0.0-9.0-2.0-1.54","1896","1","2","""event"",""trial"",""time""
""fullscreenenter"",""1"",""2159""
","
","
","""event"",""trial"",""time""
""fullscreenenter"",""1"",""2159""
","
","","","","","","672","images/feline5.png","","","learning","images/pets_choice3.png","images/pets_choice2.png","images/pets_choice1.png","[2,1,0]","2","0","1","images/pets_choice3.png","1","pets","","feline","1","0"
"html-keyboard-response","196","681148","0.0-9.0-2.0-0.55","1896","1","2","""event"",""trial"",""time""
""fullscreenenter"",""1"",""2159""
","
","
","""event"",""trial"",""time""
""fullscreenenter"",""1"",""2159""
","
","","","","","","null","<div style=""font-size:60px;"">+</div>","null","","fixation","","","","","","","","","","","","","",""
"learning-trial","197","685162","0.0-9.0-2.0-1.55","1896","1","2","""event"",""trial"",""time""
""fullscreenenter"",""1"",""2159""
","
","
","""event"",""trial"",""time""
""fullscreenenter"",""1"",""2159""
","
","","","","","","1134","images/dog1.png","","","learning","images/pets_choice1.png","images/pets_choice3.png","images/pets_choice2.png","[0,2,1]","0","0","1","images/pets_choice1.png","-1","pets","","dog","1","0"
"html-keyboard-response","198","685677","0.0-9.0-2.0-0.56","1896","1","2","""event"",""trial"",""time""
""fullscreenenter"",""1"",""2159""
","
","
","""event"",""trial"",""time""
""fullscreenenter"",""1"",""2159""
","
","","","","","","null","<div style=""font-size:60px;"">+</div>","null","","fixation","","","","","","","","","","","","","",""
"learning-trial","199","689682","0.0-9.0-2.0-1.56","1896","1","2","""event"",""trial"",""time""
""fullscreenenter"",""1"",""2159""
","
","
","""event"",""trial"",""time""
""fullscreenenter"",""1"",""2159""
","
","","","","","","704","images/rabbit2.png","","","learning","images/pets_choice1.png","images/pets_choice2.png","images/pets_choice3.png","[0,1,2]","1","1","2","images/pets_choice2.png","1","pets","","rabbit","1","0"
"html-keyboard-response","200","690186","0.0-9.0-2.0-0.57","1896","1","2","""event"",""trial"",""time""
""fullscreenenter"",""1"",""2159""
","
","
","""event"",""trial"",""time""
""fullscreenenter"",""1"",""2159""
","
","","","","","","null","<div style=""font-size:60px;"">+</div>","null","","fixation","","","","","","","","","","","","","",""
"learning-trial","201","694203","0.0-9.0-2.0-1.57","1896","1","2","""event"",""trial"",""time""
""fullscreenenter"",""1"",""2159""
","
","
","""event"",""trial"",""time""
""fullscreenenter"",""1"",""2159""
","
","","","","","","711","images/feline2.png","","","learning","images/pets_choice3.png","images/pets_choice2.png","images/pets_choice1.png","[2,1,0]","2","0","1","images/pets_choice3.png","1","pets","","feline","1","0"
"html-keyboard-response","202","694711","0.0-9.0-2.0-0.58","1896","1","2","""event"",""trial"",""time""
""fullscreenenter"",""1"",""2159""
","
","
","""event"",""trial"",""time""
""fullscreenenter"",""1"",""2159""
","
","","","","","","null","<div style=""font-size:60px;"">+</div>","null","","fixation","","","","","","","","","","","","","",""
"learning-trial","203","698727","0.0-9.0-2.0-1.58","1896","1","2","""event"",""trial"",""time""
""fullscreenenter"",""1"",""2159""
","
","
","""event"",""trial"",""time""
""fullscreenenter"",""1"",""2159""
","
","","","","","","838","images/feline4.png","","","learning","images/pets_choice1.png","images/pets_choice3.png","images/pets_choice2.png","[0,2,1]","2","1","2","images/pets_choice3.png","1","pets","","feline","1","0"
"html-keyboard-response","204","699232","0.0-9.0-2.0-0.59","1896","1","2","""event"",""trial"",""time""
""fullscreenenter"",""1"",""2159""
","
","
","""event"",""trial"",""time""
""fullscreenenter"",""1"",""2159""
","
","","","","","","null","<div style=""font-size:60px;"">+</div>","null","","fixation","","","","","","","","","","","","","",""
"learning-trial","205","703243","0.0-9.0-2.0-1.59","1896","1","2","""event"",""trial"",""time""
""fullscreenenter"",""1"",""2159""
","
","
","""event"",""trial"",""time""
""fullscreenenter"",""1"",""2159""
","
","","","","","","1066","images/dog5.png","","","learning","images/pets_choice2.png","images/pets_choice3.png","images/pets_choice1.png","[1,2,0]","0","2","3","images/pets_choice1.png","1","pets","","dog","1","0"
"html-keyboard-response","206","703753","0.0-9.0-2.0-0.60","1896","1","2","""event"",""trial"",""time""
""fullscreenenter"",""1"",""2159""
","
","
","""event"",""trial"",""time""
""fullscreenenter"",""1"",""2159""
","
","","","","","","null","<div style=""font-size:60px;"">+</div>","null","","fixation","","","","","","","","","","","","","",""
"learning-trial","207","707762","0.0-9.0-2.0-1.60","1896","1","2","""event"",""trial"",""time""
""fullscreenenter"",""1"",""2159""
","
","
","""event"",""trial"",""time""
""fullscreenenter"",""1"",""2159""
","
","","","","","","894","images/rabbit4.png","","","learning","images/pets_choice3.png","images/pets_choice1.png","images/pets_choice2.png","[2,0,1]","1","2","3","images/pets_choice2.png","1","pets","","rabbit","1","0"
"html-keyboard-response","208","708275","0.0-9.0-2.0-0.61","1896","1","2","""event"",""trial"",""time""
""fullscreenenter"",""1"",""2159""
","
","
","""event"",""trial"",""time""
""fullscreenenter"",""1"",""2159""
","
","","","","","","null","<div style=""font-size:60px;"">+</div>","null","","fixation","","","","","","","","","","","","","",""
"learning-trial","209","712292","0.0-9.0-2.0-1.61","1896","1","2","""event"",""trial"",""time""
""fullscreenenter"",""1"",""2159""
","
","
","""event"",""trial"",""time""
""fullscreenenter"",""1"",""2159""
","
","","","","","","818","images/rabbit3.png","","","learning","images/pets_choice2.png","images/pets_choice1.png","images/pets_choice3.png","[1,0,2]","1","0","1","images/pets_choice2.png","1","pets","","rabbit","1","0"
"html-keyboard-response","210","712802","0.0-9.0-2.0-0.62","1896","1","2","""event"",""trial"",""time""
""fullscreenenter"",""1"",""2159""
","
","
","""event"",""trial"",""time""
""fullscreenenter"",""1"",""2159""
","
","","","","","","null","<div style=""font-size:60px;"">+</div>","null","","fixation","","","","","","","","","","","","","",""
"learning-trial","211","716816","0.0-9.0-2.0-1.62","1896","1","2","""event"",""trial"",""time""
""fullscreenenter"",""1"",""2159""
","
","
","""event"",""trial"",""time""
""fullscreenenter"",""1"",""2159""
","
","","","","","","1442","images/dog2.png","","","learning","images/pets_choice3.png","images/pets_choice1.png","images/pets_choice2.png","[2,0,1]","0","1","2","images/pets_choice1.png","1","pets","","dog","1","0"
"html-keyboard-response","212","717325","0.0-9.0-2.0-0.63","1896","1","2","""event"",""trial"",""time""
""fullscreenenter"",""1"",""2159""
","
","
","""event"",""trial"",""time""
""fullscreenenter"",""1"",""2159""
","
","","","","","","null","<div style=""font-size:60px;"">+</div>","null","","fixation","","","","","","","","","","","","","",""
"learning-trial","213","721335","0.0-9.0-2.0-1.63","1896","1","2","""event"",""trial"",""time""
""fullscreenenter"",""1"",""2159""
","
","
","""event"",""trial"",""time""
""fullscreenenter"",""1"",""2159""
","
","","","","","","739","images/feline5.png","","","learning","images/pets_choice2.png","images/pets_choice3.png","images/pets_choice1.png","[1,2,0]","2","1","2","images/pets_choice3.png","1","pets","","feline","1","0"
"html-keyboard-response","214","721848","0.0-9.0-2.0-0.64","1896","1","2","""event"",""trial"",""time""
""fullscreenenter"",""1"",""2159""
","
","
","""event"",""trial"",""time""
""fullscreenenter"",""1"",""2159""
","
","","","","","","null","<div style=""font-size:60px;"">+</div>","null","","fixation","","","","","","","","","","","","","",""
"learning-trial","215","725863","0.0-9.0-2.0-1.64","1896","1","2","""event"",""trial"",""time""
""fullscreenenter"",""1"",""2159""
","
","
","""event"",""trial"",""time""
""fullscreenenter"",""1"",""2159""
","
","","","","","","775","images/rabbit2.png","","","learning","images/pets_choice1.png","images/pets_choice2.png","images/pets_choice3.png","[0,1,2]","1","1","2","images/pets_choice2.png","1","pets","","rabbit","1","0"
"html-keyboard-response","216","726365","0.0-9.0-2.0-0.65","1896","1","2","""event"",""trial"",""time""
""fullscreenenter"",""1"",""2159""
","
","
","""event"",""trial"",""time""
""fullscreenenter"",""1"",""2159""
","
","","","","","","null","<div style=""font-size:60px;"">+</div>","null","","fixation","","","","","","","","","","","","","",""
"learning-trial","217","730389","0.0-9.0-2.0-1.65","1896","1","2","""event"",""trial"",""time""
""fullscreenenter"",""1"",""2159""
","
","
","""event"",""trial"",""time""
""fullscreenenter"",""1"",""2159""
","
","","","","","","844","images/rabbit3.png","","","learning","images/pets_choice1.png","images/pets_choice3.png","images/pets_choice2.png","[0,2,1]","1","2","3","images/pets_choice2.png","1","pets","","rabbit","1","0"
"html-keyboard-response","218","730907","0.0-9.0-2.0-0.66","1896","1","2","""event"",""trial"",""time""
""fullscreenenter"",""1"",""2159""
","
","
","""event"",""trial"",""time""
""fullscreenenter"",""1"",""2159""
","
","","","","","","null","<div style=""font-size:60px;"">+</div>","null","","fixation","","","","","","","","","","","","","",""
"learning-trial","219","734926","0.0-9.0-2.0-1.66","1896","1","2","""event"",""trial"",""time""
""fullscreenenter"",""1"",""2159""
","
","
","""event"",""trial"",""time""
""fullscreenenter"",""1"",""2159""
","
","","","","","","1508","images/feline2.png","","","learning","images/pets_choice3.png","images/pets_choice1.png","images/pets_choice2.png","[2,0,1]","2","0","1","images/pets_choice3.png","1","pets","","feline","1","0"
"html-keyboard-response","220","735437","0.0-9.0-2.0-0.67","1896","1","2","""event"",""trial"",""time""
""fullscreenenter"",""1"",""2159""
","
","
","""event"",""trial"",""time""
""fullscreenenter"",""1"",""2159""
","
","","","","","","null","<div style=""font-size:60px;"">+</div>","null","","fixation","","","","","","","","","","","","","",""
"learning-trial","221","739453","0.0-9.0-2.0-1.67","1896","1","2","""event"",""trial"",""time""
""fullscreenenter"",""1"",""2159""
","
","
","""event"",""trial"",""time""
""fullscreenenter"",""1"",""2159""
","
","","","","","","710","images/rabbit4.png","","","learning","images/pets_choice1.png","images/pets_choice2.png","images/pets_choice3.png","[0,1,2]","1","1","2","images/pets_choice2.png","-1","pets","","rabbit","1","0"
"html-keyboard-response","222","739962","0.0-9.0-2.0-0.68","1896","1","2","""event"",""trial"",""time""
""fullscreenenter"",""1"",""2159""
","
","
","""event"",""trial"",""time""
""fullscreenenter"",""1"",""2159""
","
","","","","","","null","<div style=""font-size:60px;"">+</div>","null","","fixation","","","","","","","","","","","","","",""
"learning-trial","223","743977","0.0-9.0-2.0-1.68","1896","1","2","""event"",""trial"",""time""
""fullscreenenter"",""1"",""2159""
","
","
","""event"",""trial"",""time""
""fullscreenenter"",""1"",""2159""
","
","","","","","","1094","images/rabbit3.png","","","learning","images/pets_choice1.png","images/pets_choice3.png","images/pets_choice2.png","[0,2,1]","1","2","3","images/pets_choice2.png","-1","pets","","rabbit","1","0"
"html-keyboard-response","224","744481","0.0-9.0-2.0-0.69","1896","1","2","""event"",""trial"",""time""
""fullscreenenter"",""1"",""2159""
","
","
","""event"",""trial"",""time""
""fullscreenenter"",""1"",""2159""
","
","","","","","","null","<div style=""font-size:60px;"">+</div>","null","","fixation","","","","","","","","","","","","","",""
"learning-trial","225","748495","0.0-9.0-2.0-1.69","1896","1","2","""event"",""trial"",""time""
""fullscreenenter"",""1"",""2159""
","
","
","""event"",""trial"",""time""
""fullscreenenter"",""1"",""2159""
","
","","","","","","1295","images/dog2.png","","","learning","images/pets_choice1.png","images/pets_choice2.png","images/pets_choice3.png","[0,1,2]","0","0","3","images/pets_choice3.png","1","pets","","dog","1","0"
"html-keyboard-response","226","749002","0.0-9.0-2.0-0.70","1896","1","2","""event"",""trial"",""time""
""fullscreenenter"",""1"",""2159""
","
","
","""event"",""trial"",""time""
""fullscreenenter"",""1"",""2159""
","
","","","","","","null","<div style=""font-size:60px;"">+</div>","null","","fixation","","","","","","","","","","","","","",""
"learning-trial","227","753016","0.0-9.0-2.0-1.70","1896","1","2","""event"",""trial"",""time""
""fullscreenenter"",""1"",""2159""
","
","
","""event"",""trial"",""time""
""fullscreenenter"",""1"",""2159""
","
","","","","","","1169","images/feline4.png","","","learning","images/pets_choice3.png","images/pets_choice2.png","images/pets_choice1.png","[2,1,0]","2","0","1","images/pets_choice3.png","1","pets","","feline","1","0"
"html-keyboard-response","228","753527","0.0-9.0-2.0-0.71","1896","1","2","""event"",""trial"",""time""
""fullscreenenter"",""1"",""2159""
","
","
","""event"",""trial"",""time""
""fullscreenenter"",""1"",""2159""
","
","","","","","","null","<div style=""font-size:60px;"">+</div>","null","","fixation","","","","","","","","","","","","","",""
"learning-trial","229","757532","0.0-9.0-2.0-1.71","1896","1","2","""event"",""trial"",""time""
""fullscreenenter"",""1"",""2159""
","
","
","""event"",""trial"",""time""
""fullscreenenter"",""1"",""2159""
","
","","","","","","1070","images/feline2.png","","","learning","images/pets_choice1.png","images/pets_choice3.png","images/pets_choice2.png","[0,2,1]","2","1","2","images/pets_choice3.png","1","pets","","feline","1","0"
"html-button-response","230","759868","0.0-9.0-3.0","1896","1","2","""event"",""trial"",""time""
""fullscreenenter"",""1"",""2159""
","
","
","""event"",""trial"",""time""
""fullscreenenter"",""1"",""2159""
","
","","","","","","2332","<p> You have completed the round! <p> In this round, you earned 34 points! </p>","0","","break","","","","","","","","","","","","","",""
"html-button-response","231","761514","0.0-10.0","1896","1","2","""event"",""trial"",""time""
""fullscreenenter"",""1"",""2159""
","
","
","""event"",""trial"",""time""
""fullscreenenter"",""1"",""2159""
","
","","","","","","1644","<p> Now it's time to play another round. </p>","0","","transition_screen","","","","","","","","","","","","","",""
"preload","232","764510","0.0-11.0-0.0","1896","1","2","""event"",""trial"",""time""
""fullscreenenter"",""1"",""2159""
","
","
","""event"",""trial"",""time""
""fullscreenenter"",""1"",""2159""
","
","true","false","[]","[]","[]","","","","","","","","","","","","","","","","","","",""
"learning-instructions","233","774616","0.0-11.0-1.0-0.0","1896","1","2","""event"",""trial"",""time""
""fullscreenenter"",""1"",""2159""
","
","
","""event"",""trial"",""time""
""fullscreenenter"",""1"",""2159""
","
","","","","","","2436","<p> Your goal in this round is to return farm animals to the barns where they live. </p><p>  Different animals wandered away from different barns! </p></div>","","0","instructions","","","","","","","","","","","","","",""
"learning-instructions","234","784437","0.0-11.0-1.0-0.1","1896","1","2","""event"",""trial"",""time""
""fullscreenenter"",""1"",""2159""
","
","
","""event"",""trial"",""time""
""fullscreenenter"",""1"",""2159""
","
","","","","","","1176","<p> On each turn, you will see a picture of a farm animal and three different barns.  </p><p> You need to select the barn where each animal lives.  </p>","","0","instructions","","","","","","","","","","","","","",""
"learning-instructions","235","792409","0.0-11.0-1.0-0.2","1896","1","2","""event"",""trial"",""time""
""fullscreenenter"",""1"",""2159""
","
","
","""event"",""trial"",""time""
""fullscreenenter"",""1"",""2159""
","
","","","","","","777","<p> You can select the barn on the left by pressing 1, the barn in the middle by pressing 2, and the barn on the right by pressing 3. </p><br><div class=""choice-instructions-grid""> <div class=""choice-option""><img src=""images/animals_choice1.png"" class=""choice-option-img"" stage=""instructions"" position=""0"" ><div class=""choice-option-text""> Press ""1."" </div></div><div class=""choice-option""><img src=""images/animals_choice2.png"" class=""choice-option-img"" stage=""instructions"" position=""1"" ><div class=""choice-option-text""> Press ""2."" </div></div><div class=""choice-option""><img src=""images/animals_choice3.png"" class=""choice-option-img"" stage=""instructions"" position=""2"" ><div class=""choice-option-text""> Press ""3."" </div></div></div>","","0","instructions","","","","","","","","","","","","","",""
"learning-instructions","236","798389","0.0-11.0-1.0-0.3","1896","1","2","""event"",""trial"",""time""
""fullscreenenter"",""1"",""2159""
","
","
","""event"",""trial"",""time""
""fullscreenenter"",""1"",""2159""
","
","","","","","","816","<p> If you return the farm animal to the correct barn, it will usually be happy! </p><div style='float: center;'><img src='images/check.png' width = '200' height = '200'></img>","","0","instructions","","","","","","","","","","","","","",""
"learning-instructions","237","804552","0.0-11.0-1.0-0.4","1896","1","2","""event"",""trial"",""time""
""fullscreenenter"",""1"",""2159""
","
","
","""event"",""trial"",""time""
""fullscreenenter"",""1"",""2159""
","
","","","","","","849","<p> But, if you return the farm animal to the wrong barn, it will usually be sad. </p><div style='float: center;'><img src='images/x.png' width = '200' height = '200'></img>","","0","instructions","","","","","","","","","","","","","",""
"learning-instructions","238","815946","0.0-11.0-1.0-0.5","1896","1","2","""event"",""trial"",""time""
""fullscreenenter"",""1"",""2159""
","
","
","""event"",""trial"",""time""
""fullscreenenter"",""1"",""2159""
","
","","","","","","824","<p> Importantly, each farm animal belongs in one of the barns. </p><p> If you choose the correct barn, the farm animal will return home safely and will be more likely to be happy! </p>","","0","instructions","","","","","","","","","","","","","",""
"learning-instructions","239","827560","0.0-11.0-1.0-0.6","1896","1","2","""event"",""trial"",""time""
""fullscreenenter"",""1"",""2159""
","
","
","""event"",""trial"",""time""
""fullscreenenter"",""1"",""2159""
","
","","","","","","1081","<p> However, even if you choose the correct barn for the farm animal, it might still feel sad. </p><p> Similarly, even if you choose the <i>wrong</i> barn, it might still feel happy.","","0","instructions","","","","","","","","","","","","","",""
"learning-instructions","240","841960","0.0-11.0-1.0-0.7","1896","1","2","""event"",""trial"",""time""
""fullscreenenter"",""1"",""2159""
","
","
","""event"",""trial"",""time""
""fullscreenenter"",""1"",""2159""
","
","","","","","","678","<p> Try to choose the correct barn for each farm animal, because you will <b> WIN </b> 1 point for each farm animal you make happy and <b>LOSE</b> 1 point for each farm animal you make sad. </p><p> Your bonus payment will depend on your total number of points.","","0","instructions","","","","","","","","","","","","","",""
"learning-instructions","241","850643","0.0-11.0-1.0-0.8","1896","1","2","""event"",""trial"",""time""
""fullscreenenter"",""1"",""2159""
","
","
