"trial_type","trial_index","time_elapsed","internal_node_id","subject_id","condition","task_version","interactions","blur_events","focus_events","fullscreenenter_events","fullscreenexit_events","success","timeout","failed_images","failed_audio","failed_video","rt","stimulus","response","button_pressed","task_part","left_choice","middle_choice","right_choice","choice_positions","correct_response","correct_position","key_press","option_selected","points","task_block","correct","stim_cat","block_condition","block_number"
"pavlovia","0","3","0.0-0.0","1863","2","2","""event"",""trial"",""time""
""fullscreenenter"",""1"",""3356""
","
","
","""event"",""trial"",""time""
""fullscreenenter"",""1"",""3356""
","
","","","","","","","","","","","","","","","","","","","","","","","",""
"fullscreen","1","4316","0.0-1.0","1863","2","2","""event"",""trial"",""time""
""fullscreenenter"",""1"",""3356""
","
","
","""event"",""trial"",""time""
""fullscreenenter"",""1"",""3356""
","
","true","","","","","","","","","","","","","","","","","","","","","","",""
"preload","2","25566","0.0-2.0","1863","2","2","""event"",""trial"",""time""
""fullscreenenter"",""1"",""3356""
","
","
","""event"",""trial"",""time""
""fullscreenenter"",""1"",""3356""
","
","true","false","[]","[]","[]","","","","","","","","","","","","","","","","","","",""
"audio-keyboard-response","3","29221","0.0-3.0","1863","2","2","""event"",""trial"",""time""
""fullscreenenter"",""1"",""3356""
","
","
","""event"",""trial"",""time""
""fullscreenenter"",""1"",""3356""
","
","","","","","","3647.9999999999995","audio/beep_loop.wav"," ","","","","","","","","","","","","","","","",""
"audio-button-response","4","35011","0.0-4.0","1863","2","2","""event"",""trial"",""time""
""fullscreenenter"",""1"",""3356""
","
","
","""event"",""trial"",""time""
""fullscreenenter"",""1"",""3356""
","
","","","","","","5792","audio/shark.wav","4","","","","","","","","","","","","","","","",""
"audio-button-response","5","37447","0.0-5.0","1863","2","2","""event"",""trial"",""time""
""fullscreenenter"",""1"",""3356""
","
","
","""event"",""trial"",""time""
""fullscreenenter"",""1"",""3356""
","
","","","","","","1421","audio/turtle.wav","1","","","","","","","","","","","","","","","",""
"preload","6","53574","0.0-6.0","1863","2","2","""event"",""trial"",""time""
""fullscreenenter"",""1"",""3356""
","
","
","""event"",""trial"",""time""
""fullscreenenter"",""1"",""3356""
","
","true","false","[]","[]","[]","","","","","","","","","","","","","","","","","","",""
"html-keyboard-response","7","67818","0.0-7.0","1863","2","2","""event"",""trial"",""time""
""fullscreenenter"",""1"",""3356""
","
","
","""event"",""trial"",""time""
""fullscreenenter"",""1"",""3356""
","
","","","","","","14238.5","Welcome to the experiment. Press any key to begin and to advance the instructions."," ","","","","","","","","","","","","","","","",""
"learning-instructions","8","77012","0.0-8.0-0.0-0.0","1863","2","2","""event"",""trial"",""time""
""fullscreenenter"",""1"",""3356""
","
","
","""event"",""trial"",""time""
""fullscreenenter"",""1"",""3356""
","
","","","","","","1456.8000001907349","<p> Welcome! Today you are going to play 6 different rounds of a decision-making game. </p><p> Use the mouse to click next to continue. </p>","","0","instructions","","","","","","","","","","","","","",""
"learning-instructions","9","80494","0.0-8.0-0.0-0.1","1863","2","2","""event"",""trial"",""time""
""fullscreenenter"",""1"",""3356""
","
","
","""event"",""trial"",""time""
""fullscreenenter"",""1"",""3356""
","
","","","","","","478.80000019073486","<p> You will start with a practice round to learn the rules. </p>","","0","instructions","","","","","","","","","","","","","",""
"learning-instructions","10","88623","0.0-8.0-0.0-0.2","1863","2","2","""event"",""trial"",""time""
""fullscreenenter"",""1"",""3356""
","
","
","""event"",""trial"",""time""
""fullscreenenter"",""1"",""3356""
","
","","","","","","377.6000003814697","<p> Your goal in this round is to deliver sports equipment to three different parks. </p><p> You will need to deliver many types of equipment. </p></div>","","0","instructions","","","","","","","","","","","","","",""
"learning-instructions","11","97491","0.0-8.0-0.0-0.3","1863","2","2","""event"",""trial"",""time""
""fullscreenenter"",""1"",""3356""
","
","
","""event"",""trial"",""time""
""fullscreenenter"",""1"",""3356""
","
","","","","","","387.80000019073486","<p> On each turn, you will see one piece of sports equipment and three different parks.  </p><p> You need to select which park to deliver the equipment to.  </p>","","0","instructions","","","","","","","","","","","","","",""
"learning-instructions","12","112231","0.0-8.0-0.0-0.4","1863","2","2","""event"",""trial"",""time""
""fullscreenenter"",""1"",""3356""
","
","
","""event"",""trial"",""time""
""fullscreenenter"",""1"",""3356""
","
","","","","","","1457.1999998092651","<p> You can select the park on the left by pressing the '1' key on your keyboard. <br>You can select the park in the middle by pressing the '2' key on your keyboard. <br>You can select the park on the right by pressing the '3' key on your keyboard.  </p><br><div class=""choice-instructions-grid""> <div class=""choice-option""><img src=""images/park1.png"" class=""choice-option-img"" stage=""instructions"" position=""0"" ><div class=""choice-option-text""> Press ""1."" </div></div><div class=""choice-option""><img src=""images/park2.png"" class=""choice-option-img"" stage=""instructions"" position=""1"" ><div class=""choice-option-text""> Press ""2."" </div></div><div class=""choice-option""><img src=""images/park3.png"" class=""choice-option-img"" stage=""instructions"" position=""2"" ><div class=""choice-option-text""> Press ""3."" </div></div></div>","","0","instructions","","","","","","","","","","","","","",""
"learning-instructions","13","119641","0.0-8.0-0.0-0.5","1863","2","2","""event"",""trial"",""time""
""fullscreenenter"",""1"",""3356""
","
","
","""event"",""trial"",""time""
""fullscreenenter"",""1"",""3356""
","
","","","","","","2028.1000003814697","<p> If the kids in the park you chose like the equipment, they will be very happy! </p><div style='float: center;'><img src='images/check.png' width = '200' height = '200'></img>","","0","instructions","","","","","","","","","","","","","",""
"learning-instructions","14","125593","0.0-8.0-0.0-0.6","1863","2","2","""event"",""trial"",""time""
""fullscreenenter"",""1"",""3356""
","
","
","""event"",""trial"",""time""
""fullscreenenter"",""1"",""3356""
","
","","","","","","358.69999980926514","<p> But, if the kids in the park you chose do not like the equipment, they will be sad. </p><div style='float: center;'><img src='images/x.png' width = '200' height = '200'></img>","","0","instructions","","","","","","","","","","","","","",""
"learning-instructions","15","132388","0.0-8.0-0.0-0.7","1863","2","2","""event"",""trial"",""time""
""fullscreenenter"",""1"",""3356""
","
","
","""event"",""trial"",""time""
""fullscreenenter"",""1"",""3356""
","
","","","","","","354.5999994277954","<p> Importantly, the kids in each park like some pieces of sports equipment more than others. </p>","","0","instructions","","","","","","","","","","","","","",""
"learning-instructions","16","138887","0.0-8.0-0.0-0.8","1863","2","2","""event"",""trial"",""time""
""fullscreenenter"",""1"",""3356""
","
","
","""event"",""trial"",""time""
""fullscreenenter"",""1"",""3356""
","
","","","","","","453.19999980926514","<p> If you choose the best park for each piece of equipment, the kids there will usually be happy. </p>","","0","instructions","","","","","","","","","","","","","",""
"learning-instructions","17","145890","0.0-8.0-0.0-0.9","1863","2","2","""event"",""trial"",""time""
""fullscreenenter"",""1"",""3356""
","
","
","""event"",""trial"",""time""
""fullscreenenter"",""1"",""3356""
","
","","","","","","356.8999996185303","<p> However, even if you choose the best park for the equipment, the kids may sometimes be sad. </p>","","0","instructions","","","","","","","","","","","","","",""
"learning-instructions","18","153531","0.0-8.0-0.0-0.10","1863","2","2","""event"",""trial"",""time""
""fullscreenenter"",""1"",""3356""
","
","
","""event"",""trial"",""time""
""fullscreenenter"",""1"",""3356""
","
","","","","","","397.0999994277954","<p> Similarly, even if you choose the <i>wrong</i> park for the equipment, the kids may still be happy sometimes.","","0","instructions","","","","","","","","","","","","","",""
"learning-instructions","19","159846","0.0-8.0-0.0-0.11","1863","2","2","""event"",""trial"",""time""
""fullscreenenter"",""1"",""3356""
","
","
","""event"",""trial"",""time""
""fullscreenenter"",""1"",""3356""
","
","","","","","","1261","<p> For example, the best park for this soccer ball is this one.<div style='float: center;'><img src='images/i1.png' width = '500' height = '268'></img>","","0","instructions","","","","","","","","","","","","","",""
"learning-instructions","20","167129","0.0-8.0-0.0-0.12","1863","2","2","""event"",""trial"",""time""
""fullscreenenter"",""1"",""3356""
","
","
","""event"",""trial"",""time""
""fullscreenenter"",""1"",""3356""
","
","","","","","","1995","<p> Let's see what happens if you choose this park for the soccer ball five times.","","0","instructions","","","","","","","","","","","","","",""
"learning-instructions","21","170019","0.0-8.0-0.0-0.13","1863","2","2","""event"",""trial"",""time""
""fullscreenenter"",""1"",""3356""
","
","
","""event"",""trial"",""time""
""fullscreenenter"",""1"",""3356""
","
","","","","","","714.0999994277954","<p> The kids are happy.<div style='float: left;'><img src='images/i2.png' width = '640' height = '360'></img>","","0","instructions","","","","","","","","","","","","","",""
"learning-instructions","22","172694","0.0-8.0-0.0-0.14","1863","2","2","""event"",""trial"",""time""
""fullscreenenter"",""1"",""3356""
","
","
","""event"",""trial"",""time""
""fullscreenenter"",""1"",""3356""
","
","","","","","","509","<p> The kids are happy.<div style='float: left;'><img src='images/i3.png' width = '640' height = '360'></img>","","0","instructions","","","","","","","","","","","","","",""
"learning-instructions","23","175236","0.0-8.0-0.0-0.15","1863","2","2","""event"",""trial"",""time""
""fullscreenenter"",""1"",""3356""
","
","
","""event"",""trial"",""time""
""fullscreenenter"",""1"",""3356""
","
","","","","","","370.9000005722046","<p> The kids are happy.<div style='float: left;'><img src='images/i4.png' width = '640' height = '360'></img>","","0","instructions","","","","","","","","","","","","","",""
"learning-instructions","24","177836","0.0-8.0-0.0-0.16","1863","2","2","""event"",""trial"",""time""
""fullscreenenter"",""1"",""3356""
","
","
","""event"",""trial"",""time""
""fullscreenenter"",""1"",""3356""
","
","","","","","","371.5","<p> The kids are sad.<div style='float: left;'><img src='images/i5.png' width = '640' height = '360'></img>","","0","instructions","","","","","","","","","","","","","",""
"learning-instructions","25","181506","0.0-8.0-0.0-0.17","1863","2","2","""event"",""trial"",""time""
""fullscreenenter"",""1"",""3356""
","
","
","""event"",""trial"",""time""
""fullscreenenter"",""1"",""3356""
","
","","","","","","1490.8000001907349","<p> The kids are happy.<div style='float: left;'><img src='images/i6.png' width = '640' height = '360'></img>","","0","instructions","","","","","","","","","","","","","",""
"learning-instructions","26","189804","0.0-8.0-0.0-0.18","1863","2","2","""event"",""trial"",""time""
""fullscreenenter"",""1"",""3356""
","
","
","""event"",""trial"",""time""
""fullscreenenter"",""1"",""3356""
","
","","","","","","1019.5","<p> As you can see, selecting that park for the soccer ball made the kids happy most of the time, but not all the time.","","0","instructions","","","","","","","","","","","","","",""
"learning-instructions","27","196258","0.0-8.0-0.0-0.19","1863","2","2","""event"",""trial"",""time""
""fullscreenenter"",""1"",""3356""
","
","
","""event"",""trial"",""time""
""fullscreenenter"",""1"",""3356""
","
","","","","","","453.6000003814697","<p> Now let's see what happens if you choose a DIFFERENT park for the soccer ball 5 times.","","0","instructions","","","","","","","","","","","","","",""
"learning-instructions","28","198860","0.0-8.0-0.0-0.20","1863","2","2","""event"",""trial"",""time""
""fullscreenenter"",""1"",""3356""
","
","
","""event"",""trial"",""time""
""fullscreenenter"",""1"",""3356""
","
","","","","","","394.3999996185303","<p> The kids are sad.<div style='float: left;'><img src='images/i7.png' width = '640' height = '360'></img>","","0","instructions","","","","","","","","","","","","","",""
"learning-instructions","29","201424","0.0-8.0-0.0-0.21","1863","2","2","""event"",""trial"",""time""
""fullscreenenter"",""1"",""3356""
","
","
","""event"",""trial"",""time""
""fullscreenenter"",""1"",""3356""
","
","","","","","","358.69999980926514","<p> The kids are sad.<div style='float: left;'><img src='images/i8.png' width = '640' height = '360'></img>","","0","instructions","","","","","","","","","","","","","",""
"learning-instructions","30","203936","0.0-8.0-0.0-0.22","1863","2","2","""event"",""trial"",""time""
""fullscreenenter"",""1"",""3356""
","
","
","""event"",""trial"",""time""
""fullscreenenter"",""1"",""3356""
","
","","","","","","350.5","<p> The kids are happy.<div style='float: left;'><img src='images/i9.png' width = '640' height = '360'></img>","","0","instructions","","","","","","","","","","","","","",""
"learning-instructions","31","206529","0.0-8.0-0.0-0.23","1863","2","2","""event"",""trial"",""time""
""fullscreenenter"",""1"",""3356""
","
","
","""event"",""trial"",""time""
""fullscreenenter"",""1"",""3356""
","
","","","","","","383.69999980926514","<p> The kids are sad.<div style='float: left;'><img src='images/i10.png' width = '640' height = '360'></img>","","0","instructions","","","","","","","","","","","","","",""
"learning-instructions","32","209093","0.0-8.0-0.0-0.24","1863","2","2","""event"",""trial"",""time""
""fullscreenenter"",""1"",""3356""
","
","
","""event"",""trial"",""time""
""fullscreenenter"",""1"",""3356""
","
","","","","","","348.1000003814697","<p> The kids are sad.<div style='float: left;'><img src='images/i11.png' width = '640' height = '360'></img>","","0","instructions","","","","","","","","","","","","","",""
"learning-instructions","33","218483","0.0-8.0-0.0-0.25","1863","2","2","""event"",""trial"",""time""
""fullscreenenter"",""1"",""3356""
","
","
","""event"",""trial"",""time""
""fullscreenenter"",""1"",""3356""
","
","","","","","","1267.5999994277954","<p> As you can see, selecting the wrong park for the soccer ball made the kids sad most of the time, but not all the time.","","0","instructions","","","","","","","","","","","","","",""
"learning-instructions","34","227969","0.0-8.0-0.0-0.26","1863","2","2","""event"",""trial"",""time""
""fullscreenenter"",""1"",""3356""
","
","
","""event"",""trial"",""time""
""fullscreenenter"",""1"",""3356""
","
","","","","","","363.19999980926514","<p> The different pieces of equipment belong in different parks. You need to try to learn which is the best park for each piece of equipment.","","0","instructions","","","","","","","","","","","","","",""
"learning-instructions","35","244727","0.0-8.0-0.0-0.27","1863","2","2","""event"",""trial"",""time""
""fullscreenenter"",""1"",""3356""
","
","
","""event"",""trial"",""time""
""fullscreenenter"",""1"",""3356""
","
","","","","","","371.19999980926514","<p> Try to choose the best park for each piece of equipment, because you will <b> WIN </b> 1 point for each time you make the kids happy and <b>LOSE</b> 1 point for each time you make them sad. </p><p> Remember, if you make the best choice, you will win 1 point most of the time, but not all the time. </p>","","0","instructions","","","","","","","","","","","","","",""
"learning-instructions","36","250611","0.0-8.0-0.0-0.28","1863","2","2","""event"",""trial"",""time""
""fullscreenenter"",""1"",""3356""
","
","
","""event"",""trial"",""time""
""fullscreenenter"",""1"",""3356""
","
","","","","","","395.80000019073486","<p> This is just a practice round, but in the real game, your bonus payment will depend on your total number of points.","","0","instructions","","","","","","","","","","","","","",""
"learning-instructions","37","261660","0.0-8.0-0.0-0.29","1863","2","2","""event"",""trial"",""time""
""fullscreenenter"",""1"",""3356""
","
","
","""event"",""trial"",""time""
""fullscreenenter"",""1"",""3356""
","
","","","","","","724.8000001907349","<p> The position where each park appears will change throughout the game. </p><p> The position where the park appears <i> does not </i> influence how likely the kids are to be happy or sad. </p>","","0","instructions","","","","","","","","","","","","","",""
"learning-instructions","38","274256","0.0-8.0-0.0-0.30","1863","2","2","""event"",""trial"",""time""
""fullscreenenter"",""1"",""3356""
","
","
","""event"",""trial"",""time""
""fullscreenenter"",""1"",""3356""
","
","","","","","","1110.3999996185303","<p> You will have 4 seconds to make each choice. Try to respond before time runs out! </p><p> You will lose 1 point each time you do not make a response. </p>","","0","instructions","","","","","","","","","","","","","",""
"learning-instructions","39","281717","0.0-8.0-0.0-0.31","1863","2","2","""event"",""trial"",""time""
""fullscreenenter"",""1"",""3356""
","
","
","""event"",""trial"",""time""
""fullscreenenter"",""1"",""3356""
","
","","","","","","660.1999998092651","<p> Remember, you should use the 1, 2, and 3 keys to select the park for each piece of equipment. </p><br><div class=""choice-instructions-grid""> <div class=""choice-option""><img src=""images/park1.png"" class=""choice-option-img"" stage=""instructions"" position=""0"" ><div class=""choice-option-text""> Press ""1."" </div></div><div class=""choice-option""><img src=""images/park2.png"" class=""choice-option-img"" stage=""instructions"" position=""1"" ><div class=""choice-option-text""> Press ""2."" </div></div><div class=""choice-option""><img src=""images/park3.png"" class=""choice-option-img"" stage=""instructions"" position=""2"" ><div class=""choice-option-text""> Press ""3."" </div></div></div>","","0","instructions","","","","","","","","","","","","","",""
"html-button-response","40","283539","0.0-8.0-1.0","1863","2","2","""event"",""trial"",""time""
""fullscreenenter"",""1"",""3356""
","
","
","""event"",""trial"",""time""
""fullscreenenter"",""1"",""3356""
","
","","","","","","1703.8999996185303","<p> Ready to practice? </p>","0","","","","","","","","","","","","","","","",""
"html-keyboard-response","41","284155","0.0-8.0-2.0-0.0","1863","2","2","""event"",""trial"",""time""
""fullscreenenter"",""1"",""3356""
","
","
","""event"",""trial"",""time""
""fullscreenenter"",""1"",""3356""
","
","","","","","","null","<div style=""font-size:60px;"">+</div>","null","","fixation","","","","","","","","","","","","","",""
"learning-trial","42","288158","0.0-8.0-2.0-1.0","1863","2","2","""event"",""trial"",""time""
""fullscreenenter"",""1"",""3356""
","
","
","""event"",""trial"",""time""
""fullscreenenter"",""1"",""3356""
","
","","","","","","591.6000003814697","images/racket4.png","","","practice","images/park2.png","images/park1.png","images/park3.png","[1,0,2]","1","0","1","images/park2.png","-1","practice","","","",""
"html-keyboard-response","43","288675","0.0-8.0-2.0-0.1","1863","2","2","""event"",""trial"",""time""
""fullscreenenter"",""1"",""3356""
","
","
","""event"",""trial"",""time""
""fullscreenenter"",""1"",""3356""
","
","","","","","","null","<div style=""font-size:60px;"">+</div>","null","","fixation","","","","","","","","","","","","","",""
"learning-trial","44","292685","0.0-8.0-2.0-1.1","1863","2","2","""event"",""trial"",""time""
""fullscreenenter"",""1"",""3356""
","
","
","""event"",""trial"",""time""
""fullscreenenter"",""1"",""3356""
","
","","","","","","901.8000001907349","images/racket2.png","","","practice","images/park2.png","images/park3.png","images/park1.png","[1,2,0]","2","1","2","images/park3.png","1","practice","","","",""
"html-keyboard-response","45","293197","0.0-8.0-2.0-0.2","1863","2","2","""event"",""trial"",""time""
""fullscreenenter"",""1"",""3356""
","
","
","""event"",""trial"",""time""
""fullscreenenter"",""1"",""3356""
","
","","","","","","null","<div style=""font-size:60px;"">+</div>","null","","fixation","","","","","","","","","","","","","",""
"learning-trial","46","297215","0.0-8.0-2.0-1.2","1863","2","2","""event"",""trial"",""time""
""fullscreenenter"",""1"",""3356""
","
","
","""event"",""trial"",""time""
""fullscreenenter"",""1"",""3356""
","
","","","","","","927.7000007629395","images/ball4.png","","","practice","images/park2.png","images/park1.png","images/park3.png","[1,0,2]","0","1","1","images/park2.png","-1","practice","","","",""
"html-keyboard-response","47","297735","0.0-8.0-2.0-0.3","1863","2","2","""event"",""trial"",""time""
""fullscreenenter"",""1"",""3356""
","
","
","""event"",""trial"",""time""
""fullscreenenter"",""1"",""3356""
","
","","","","","","null","<div style=""font-size:60px;"">+</div>","null","","fixation","","","","","","","","","","","","","",""
"learning-trial","48","301755","0.0-8.0-2.0-1.3","1863","2","2","""event"",""trial"",""time""
""fullscreenenter"",""1"",""3356""
","
","
","""event"",""trial"",""time""
""fullscreenenter"",""1"",""3356""
","
","","","","","","1057.6999998092651","images/ball2.png","","","practice","images/park1.png","images/park2.png","images/park3.png","[0,1,2]","0","0","3","images/park3.png","-1","practice","","","",""
"html-keyboard-response","49","302261","0.0-8.0-2.0-0.4","1863","2","2","""event"",""trial"",""time""
""fullscreenenter"",""1"",""3356""
","
","
","""event"",""trial"",""time""
""fullscreenenter"",""1"",""3356""
","
","","","","","","null","<div style=""font-size:60px;"">+</div>","null","","fixation","","","","","","","","","","","","","",""
"learning-trial","50","306271","0.0-8.0-2.0-1.4","1863","2","2","""event"",""trial"",""time""
""fullscreenenter"",""1"",""3356""
","
","
","""event"",""trial"",""time""
""fullscreenenter"",""1"",""3356""
","
","","","","","","919.8999996185303","images/ball1.png","","","practice","images/park2.png","images/park1.png","images/park3.png","[1,0,2]","2","2","2","images/park1.png","-1","practice","","","",""
"html-keyboard-response","51","306785","0.0-8.0-2.0-0.5","1863","2","2","""event"",""trial"",""time""
""fullscreenenter"",""1"",""3356""
","
","
","""event"",""trial"",""time""
""fullscreenenter"",""1"",""3356""
","
","","","","","","null","<div style=""font-size:60px;"">+</div>","null","","fixation","","","","","","","","","","","","","",""
"learning-trial","52","310805","0.0-8.0-2.0-1.5","1863","2","2","""event"",""trial"",""time""
""fullscreenenter"",""1"",""3356""
","
","
","""event"",""trial"",""time""
""fullscreenenter"",""1"",""3356""
","
","","","","","","1548.3999996185303","images/racket2.png","","","practice","images/park3.png","images/park1.png","images/park2.png","[2,0,1]","2","0","1","images/park3.png","-1","practice","","","",""
"html-keyboard-response","53","311316","0.0-8.0-2.0-0.6","1863","2","2","""event"",""trial"",""time""
""fullscreenenter"",""1"",""3356""
","
","
","""event"",""trial"",""time""
""fullscreenenter"",""1"",""3356""
","
","","","","","","null","<div style=""font-size:60px;"">+</div>","null","","fixation","","","","","","","","","","","","","",""
"learning-trial","54","315321","0.0-8.0-2.0-1.6","1863","2","2","""event"",""trial"",""time""
""fullscreenenter"",""1"",""3356""
","
","
","""event"",""trial"",""time""
""fullscreenenter"",""1"",""3356""
","
","","","","","","695.9000005722046","images/racket1.png","","","practice","images/park1.png","images/park3.png","images/park2.png","[0,2,1]","1","2","2","images/park3.png","-1","practice","","","",""
"html-keyboard-response","55","315825","0.0-8.0-2.0-0.7","1863","2","2","""event"",""trial"",""time""
""fullscreenenter"",""1"",""3356""
","
","
","""event"",""trial"",""time""
""fullscreenenter"",""1"",""3356""
","
","","","","","","null","<div style=""font-size:60px;"">+</div>","null","","fixation","","","","","","","","","","","","","",""
"learning-trial","56","319838","0.0-8.0-2.0-1.7","1863","2","2","""event"",""trial"",""time""
""fullscreenenter"",""1"",""3356""
","
","
","""event"",""trial"",""time""
""fullscreenenter"",""1"",""3356""
","
","","","","","","869.0999994277954","images/ball1.png","","","practice","images/park1.png","images/park2.png","images/park3.png","[0,1,2]","2","2","3","images/park3.png","-1","practice","","","",""
"html-keyboard-response","57","320342","0.0-8.0-2.0-0.8","1863","2","2","""event"",""trial"",""time""
""fullscreenenter"",""1"",""3356""
","
","
","""event"",""trial"",""time""
""fullscreenenter"",""1"",""3356""
","
","","","","","","null","<div style=""font-size:60px;"">+</div>","null","","fixation","","","","","","","","","","","","","",""
"learning-trial","58","324351","0.0-8.0-2.0-1.8","1863","2","2","""event"",""trial"",""time""
""fullscreenenter"",""1"",""3356""
","
","
","""event"",""trial"",""time""
""fullscreenenter"",""1"",""3356""
","
","","","","","","1150.8000001907349","images/ball2.png","","","practice","images/park2.png","images/park3.png","images/park1.png","[1,2,0]","0","2","1","images/park2.png","-1","practice","","","",""
"html-keyboard-response","59","324859","0.0-8.0-2.0-0.9","1863","2","2","""event"",""trial"",""time""
""fullscreenenter"",""1"",""3356""
","
","
","""event"",""trial"",""time""
""fullscreenenter"",""1"",""3356""
","
","","","","","","null","<div style=""font-size:60px;"">+</div>","null","","fixation","","","","","","","","","","","","","",""
"learning-trial","60","328865","0.0-8.0-2.0-1.9","1863","2","2","""event"",""trial"",""time""
""fullscreenenter"",""1"",""3356""
","
","
","""event"",""trial"",""time""
""fullscreenenter"",""1"",""3356""
","
","","","","","","1122.8999996185303","images/racket1.png","","","practice","images/park1.png","images/park2.png","images/park3.png","[0,1,2]","1","1","2","images/park2.png","1","practice","","","",""
"html-keyboard-response","61","329374","0.0-8.0-2.0-0.10","1863","2","2","""event"",""trial"",""time""
""fullscreenenter"",""1"",""3356""
","
","
","""event"",""trial"",""time""
""fullscreenenter"",""1"",""3356""
","
","","","","","","null","<div style=""font-size:60px;"">+</div>","null","","fixation","","","","","","","","","","","","","",""
"learning-trial","62","333381","0.0-8.0-2.0-1.10","1863","2","2","""event"",""trial"",""time""
""fullscreenenter"",""1"",""3356""
","
","
","""event"",""trial"",""time""
""fullscreenenter"",""1"",""3356""
","
","","","","","","956.0999994277954","images/ball4.png","","","practice","images/park2.png","images/park3.png","images/park1.png","[1,2,0]","0","2","3","images/park1.png","-1","practice","","","",""
"html-keyboard-response","63","333895","0.0-8.0-2.0-0.11","1863","2","2","""event"",""trial"",""time""
""fullscreenenter"",""1"",""3356""
","
","
","""event"",""trial"",""time""
""fullscreenenter"",""1"",""3356""
","
","","","","","","null","<div style=""font-size:60px;"">+</div>","null","","fixation","","","","","","","","","","","","","",""
"learning-trial","64","337899","0.0-8.0-2.0-1.11","1863","2","2","""event"",""trial"",""time""
""fullscreenenter"",""1"",""3356""
","
","
","""event"",""trial"",""time""
""fullscreenenter"",""1"",""3356""
","
","","","","","","1551.5999994277954","images/racket4.png","","","practice","images/park1.png","images/park3.png","images/park2.png","[0,2,1]","1","2","3","images/park2.png","-1","practice","","","",""
"html-button-response","65","339557","0.0-8.0-3.0","1863","2","2","""event"",""trial"",""time""
""fullscreenenter"",""1"",""3356""
","
","
","""event"",""trial"",""time""
""fullscreenenter"",""1"",""3356""
","
","","","","","","1658.5","<p> You earned -8 points in the practice round! </p>","0","","break","","","","","","","","","","","","","",""
"learning-instructions","66","349126","0.0-8.0-4.0-0.0","1863","2","2","""event"",""trial"",""time""
""fullscreenenter"",""1"",""3356""
","
","
","""event"",""trial"",""time""
""fullscreenenter"",""1"",""3356""
","
","","","","","","1626.3000001907349","<p> It's almost time to start the real game. </p><p> Before you start, we're going to ask you a few questions about how the game works. </p>","","0","instructions","","","","","","","","","","","","","",""
"preload","67","355065","0.0-8.0-5.0","1863","2","2","""event"",""trial"",""time""
""fullscreenenter"",""1"",""3356""
","
","
","""event"",""trial"",""time""
""fullscreenenter"",""1"",""3356""
","
","true","false","[]","[]","[]","","","","","","","","","","","","","","","","","","",""
"comp-q","68","361392","0.0-8.0-6.0-0.0","1863","2","2","""event"",""trial"",""time""
""fullscreenenter"",""1"",""3356""
","
","
","""event"",""trial"",""time""
""fullscreenenter"",""1"",""3356""
","
","","","","","","881.1999998092651","<p> <b> True or False? </b> </p><p> If you choose the best option, you will always earn 1 point. </p>","","1","comp_question","","","","","","","","","","","true","","",""
"comp-q","69","368624","0.0-8.0-6.0-1.0","1863","2","2","""event"",""trial"",""time""
""fullscreenenter"",""1"",""3356""
","
","
","""event"",""trial"",""time""
""fullscreenenter"",""1"",""3356""
","
","","","","","","1564","<p><b> That's right! </b> Sometimes you will lose 1 point, even if you choose the best option. </p>","","0","comp_answer","","","","","","","","","","","","","",""
"comp-q","70","373692","0.0-8.0-6.0-0.1","1863","2","2","""event"",""trial"",""time""
""fullscreenenter"",""1"",""3356""
","
","
","""event"",""trial"",""time""
""fullscreenenter"",""1"",""3356""
","
","","","","","","432.4000005722046","<p> <b> True or False? </b> </p><p> You will have as much time as you want to make each choice. </p>","","1","comp_question","","","","","","","","","","","true","","",""
"comp-q","71","379627","0.0-8.0-6.0-1.1","1863","2","2","""event"",""trial"",""time""
""fullscreenenter"",""1"",""3356""
","
","
","""event"",""trial"",""time""
""fullscreenenter"",""1"",""3356""
","
","","","","","","1107.5","<p> <b> That's right! </b> You will only have 4 seconds to make each choice. </p>","","0","comp_answer","","","","","","","","","","","","","",""
"comp-q","72","386243","0.0-8.0-6.0-0.2","1863","2","2","""event"",""trial"",""time""
""fullscreenenter"",""1"",""3356""
","
","
","""event"",""trial"",""time""
""fullscreenenter"",""1"",""3356""
","
","","","","","","462.30000019073486","<p> <b> True or False? </b> </p><p> You should use the '1', '2', and '3' keys to make your choices. </p>","","0","comp_question","","","","","","","","","","","true","","",""
"comp-q","73","391970","0.0-8.0-6.0-1.2","1863","2","2","""event"",""trial"",""time""
""fullscreenenter"",""1"",""3356""
","
","
","""event"",""trial"",""time""
""fullscreenenter"",""1"",""3356""
","
","","","","","","880.6000003814697","<p> <b> That's right! </b> You should use the '1', '2', and '3' keys to make each choice. </p>","","0","comp_answer","","","","","","","","","","","","","",""
"learning-instructions","74","401657","0.0-8.0-7.0-0.0","1863","2","2","""event"",""trial"",""time""
""fullscreenenter"",""1"",""3356""
","
","
","""event"",""trial"",""time""
""fullscreenenter"",""1"",""3356""
","
","","","","","","1194.6000003814697","<p> It's now time to start the real game. </p>Do your best, because the points you earn in the next rounds will influence your bonus payment. </p>","","0","instructions","","","","","","","","","","","","","",""
"preload","75","408592","0.0-9.0-0.0","1863","2","2","""event"",""trial"",""time""
""fullscreenenter"",""1"",""3356""
","
","
","""event"",""trial"",""time""
""fullscreenenter"",""1"",""3356""
","
","true","false","[]","[]","[]","","","","","","","","","","","","","","","","","","",""
"learning-instructions","76","417144","0.0-9.0-1.0-0.0","1863","2","2","""event"",""trial"",""time""
""fullscreenenter"",""1"",""3356""
","
","
","""event"",""trial"",""time""
""fullscreenenter"",""1"",""3356""
","
","","","","","","891.1999998092651","<p> Your goal in this round is to return farm animals to the barns where they live. </p><p>  Different animals wandered away from different barns! </p></div>","","0","instructions","","","","","","","","","","","","","",""
"learning-instructions","77","426169","0.0-9.0-1.0-0.1","1863","2","2","""event"",""trial"",""time""
""fullscreenenter"",""1"",""3356""
","
","
","""event"",""trial"",""time""
""fullscreenenter"",""1"",""3356""
","
","","","","","","377.19999980926514","<p> On each turn, you will see a picture of a farm animal and three different barns.  </p><p> You need to select the barn where each animal lives.  </p>","","0","instructions","","","","","","","","","","","","","",""
"learning-instructions","78","433831","0.0-9.0-1.0-0.2","1863","2","2","""event"",""trial"",""time""
""fullscreenenter"",""1"",""3356""
","
","
","""event"",""trial"",""time""
""fullscreenenter"",""1"",""3356""
","
","","","","","","468.8999996185303","<p> You can select the barn on the left by pressing 1, the barn in the middle by pressing 2, and the barn on the right by pressing 3. </p><br><div class=""choice-instructions-grid""> <div class=""choice-option""><img src=""images/animals_choice1.png"" class=""choice-option-img"" stage=""instructions"" position=""0"" ><div class=""choice-option-text""> Press ""1."" </div></div><div class=""choice-option""><img src=""images/animals_choice2.png"" class=""choice-option-img"" stage=""instructions"" position=""1"" ><div class=""choice-option-text""> Press ""2."" </div></div><div class=""choice-option""><img src=""images/animals_choice3.png"" class=""choice-option-img"" stage=""instructions"" position=""2"" ><div class=""choice-option-text""> Press ""3."" </div></div></div>","","0","instructions","","","","","","","","","","","","","",""
"learning-instructions","79","439381","0.0-9.0-1.0-0.3","1863","2","2","""event"",""trial"",""time""
""fullscreenenter"",""1"",""3356""
","
","
","""event"",""trial"",""time""
""fullscreenenter"",""1"",""3356""
","
","","","","","","409.1000003814697","<p> If you return the farm animal to the correct barn, it will usually be happy! </p><div style='float: center;'><img src='images/check.png' width = '200' height = '200'></img>","","0","instructions","","","","","","","","","","","","","",""
"learning-instructions","80","445050","0.0-9.0-1.0-0.4","1863","2","2","""event"",""trial"",""time""
""fullscreenenter"",""1"",""3356""
","
","
","""event"",""trial"",""time""
""fullscreenenter"",""1"",""3356""
","
","","","","","","356.8999996185303","<p> But, if you return the farm animal to the wrong barn, it will usually be sad. </p><div style='float: center;'><img src='images/x.png' width = '200' height = '200'></img>","","0","instructions","","","","","","","","","","","","","",""
"learning-instructions","81","455979","0.0-9.0-1.0-0.5","1863","2","2","""event"",""trial"",""time""
""fullscreenenter"",""1"",""3356""
","
","
","""event"",""trial"",""time""
""fullscreenenter"",""1"",""3356""
","
","","","","","","366.5","<p> Importantly, each farm animal belongs in one of the barns. </p><p> If you choose the correct barn, the farm animal will return home safely and will be more likely to be happy! </p>","","0","instructions","","","","","","","","","","","","","",""
"learning-instructions","82","466915","0.0-9.0-1.0-0.6","1863","2","2","""event"",""trial"",""time""
""fullscreenenter"",""1"",""3356""
","
","
","""event"",""trial"",""time""
""fullscreenenter"",""1"",""3356""
","
","","","","","","413","<p> However, even if you choose the correct barn for the farm animal, it might still feel sad. </p><p> Similarly, even if you choose the <i>wrong</i> barn, it might still feel happy.","","0","instructions","","","","","","","","","","","","","",""
"learning-instructions","83","481528","0.0-9.0-1.0-0.7","1863","2","2","""event"",""trial"",""time""
""fullscreenenter"",""1"",""3356""
","
","
","""event"",""trial"",""time""
""fullscreenenter"",""1"",""3356""
","
","","","","","","915.6999998092651","<p> Try to choose the correct barn for each farm animal, because you will <b> WIN </b> 1 point for each farm animal you make happy and <b>LOSE</b> 1 point for each farm animal you make sad. </p><p> Your bonus payment will depend on your total number of points.","","0","instructions","","","","","","","","","","","","","",""
"learning-instructions","84","490419","0.0-9.0-1.0-0.8","1863","2","2","""event"",""trial"",""time""
""fullscreenenter"",""1"",""3356""
","
","
","""event"",""trial"",""time""
""fullscreenenter"",""1"",""3356""
","
","","","","","","776.6999998092651","<p> The position of each barn will change throughout the round. </p><p> The barn's position <i> does not </i> influence how likely it is to be the correct one. </p>","","0","instructions","","","","","","","","","","","","","",""
"learning-instructions","85","500740","0.0-9.0-1.0-0.9","1863","2","2","""event"",""trial"",""time""
""fullscreenenter"",""1"",""3356""
","
","
","""event"",""trial"",""time""
""fullscreenenter"",""1"",""3356""
","
","","","","","","1027.5","<p> You will have 4 seconds to make each choice. Try to respond before time runs out! </p><p> You will lose 1 point each time you do not make a response. </p>","","0","instructions","","","","","","","","","","","","","",""
"html-keyboard-response","86","501351","0.0-9.0-2.0-0.0","1863","2","2","""event"",""trial"",""time""
""fullscreenenter"",""1"",""3356""
","
","
","""event"",""trial"",""time""
""fullscreenenter"",""1"",""3356""
","
","","","","","","null","<div style=""font-size:60px;"">+</div>","null","","fixation","","","","","","","","","","","","","",""
"learning-trial","87","505355","0.0-9.0-2.0-1.0","1863","2","2","""event"",""trial"",""time""
""fullscreenenter"",""1"",""3356""
","
","
","""event"",""trial"",""time""
""fullscreenenter"",""1"",""3356""
","
","","","","","","1173.3999996185303","images/sheep1.png","","","learning","images/animals_choice1.png","images/animals_choice2.png","images/animals_choice3.png","[0,1,2]","1","1","1","images/animals_choice1.png","-1","animals","","sheep","2","0"
"html-keyboard-response","88","505863","0.0-9.0-2.0-0.1","1863","2","2","""event"",""trial"",""time""
""fullscreenenter"",""1"",""3356""
","
","
","""event"",""trial"",""time""
""fullscreenenter"",""1"",""3356""
","
","","","","","","null","<div style=""font-size:60px;"">+</div>","null","","fixation","","","","","","","","","","","","","",""
"learning-trial","89","509877","0.0-9.0-2.0-1.1","1863","2","2","""event"",""trial"",""time""
""fullscreenenter"",""1"",""3356""
","
","
","""event"",""trial"",""time""
""fullscreenenter"",""1"",""3356""
","
","","","","","","1736.5999994277954","images/cow1.png","","","learning","images/animals_choice3.png","images/animals_choice2.png","images/animals_choice1.png","[2,1,0]","2","0","1","images/animals_choice3.png","1","animals","","cow","2","0"
"html-keyboard-response","90","510385","0.0-9.0-2.0-0.2","1863","2","2","""event"",""trial"",""time""
""fullscreenenter"",""1"",""3356""
","
","
","""event"",""trial"",""time""
""fullscreenenter"",""1"",""3356""
","
","","","","","","null","<div style=""font-size:60px;"">+</div>","null","","fixation","","","","","","","","","","","","","",""
"learning-trial","91","514399","0.0-9.0-2.0-1.2","1863","2","2","""event"",""trial"",""time""
""fullscreenenter"",""1"",""3356""
","
","
","""event"",""trial"",""time""
""fullscreenenter"",""1"",""3356""
","
","","","","","","765.6999998092651","images/cow2.png","","","learning","images/animals_choice3.png","images/animals_choice1.png","images/animals_choice2.png","[2,0,1]","0","1","2","images/animals_choice1.png","1","animals","","cow","2","0"
"html-keyboard-response","92","514904","0.0-9.0-2.0-0.3","1863","2","2","""event"",""trial"",""time""
""fullscreenenter"",""1"",""3356""
","
","
","""event"",""trial"",""time""
""fullscreenenter"",""1"",""3356""
","
","","","","","","null","<div style=""font-size:60px;"">+</div>","null","","fixation","","","","","","","","","","","","","",""
"learning-trial","93","518912","0.0-9.0-2.0-1.3","1863","2","2","""event"",""trial"",""time""
""fullscreenenter"",""1"",""3356""
","
","
","""event"",""trial"",""time""
""fullscreenenter"",""1"",""3356""
","
","","","","","","769.1999998092651","images/goat3.png","","","learning","images/animals_choice2.png","images/animals_choice1.png","images/animals_choice3.png","[1,0,2]","2","2","3","images/animals_choice3.png","1","animals","","goat","2","0"
"html-keyboard-response","94","519421","0.0-9.0-2.0-0.4","1863","2","2","""event"",""trial"",""time""
""fullscreenenter"",""1"",""3356""
","
","
","""event"",""trial"",""time""
""fullscreenenter"",""1"",""3356""
","
","","","","","","null","<div style=""font-size:60px;"">+</div>","null","","fixation","","","","","","","","","","","","","",""
"learning-trial","95","523433","0.0-9.0-2.0-1.4","1863","2","2","""event"",""trial"",""time""
""fullscreenenter"",""1"",""3356""
","
","
","""event"",""trial"",""time""
""fullscreenenter"",""1"",""3356""
","
","","","","","","673.5","images/goat5.png","","","learning","images/animals_choice2.png","images/animals_choice3.png","images/animals_choice1.png","[1,2,0]","0","2","3","images/animals_choice1.png","1","animals","","goat","2","0"
"html-keyboard-response","96","523941","0.0-9.0-2.0-0.5","1863","2","2","""event"",""trial"",""time""
""fullscreenenter"",""1"",""3356""
","
","
","""event"",""trial"",""time""
""fullscreenenter"",""1"",""3356""
","
","","","","","","null","<div style=""font-size:60px;"">+</div>","null","","fixation","","","","","","","","","","","","","",""
"learning-trial","97","527952","0.0-9.0-2.0-1.5","1863","2","2","""event"",""trial"",""time""
""fullscreenenter"",""1"",""3356""
","
","
","""event"",""trial"",""time""
""fullscreenenter"",""1"",""3356""
","
","","","","","","1062.1999998092651","images/cow2.png","","","learning","images/animals_choice2.png","images/animals_choice3.png","images/animals_choice1.png","[1,2,0]","0","2","3","images/animals_choice1.png","-1","animals","","cow","2","0"
"html-keyboard-response","98","528462","0.0-9.0-2.0-0.6","1863","2","2","""event"",""trial"",""time""
""fullscreenenter"",""1"",""3356""
","
","
","""event"",""trial"",""time""
""fullscreenenter"",""1"",""3356""
","
","","","","","","null","<div style=""font-size:60px;"">+</div>","null","","fixation","","","","","","","","","","","","","",""
"learning-trial","99","532466","0.0-9.0-2.0-1.6","1863","2","2","""event"",""trial"",""time""
""fullscreenenter"",""1"",""3356""
","
","
","""event"",""trial"",""time""
""fullscreenenter"",""1"",""3356""
","
","","","","","","1175.8000001907349","images/goat5.png","","","learning","images/animals_choice1.png","images/animals_choice2.png","images/animals_choice3.png","[0,1,2]","0","0","3","images/animals_choice3.png","-1","animals","","goat","2","0"
"html-keyboard-response","100","532980","0.0-9.0-2.0-0.7","1863","2","2","""event"",""trial"",""time""
""fullscreenenter"",""1"",""3356""
","
","
","""event"",""trial"",""time""
""fullscreenenter"",""1"",""3356""
","
","","","","","","null","<div style=""font-size:60px;"">+</div>","null","","fixation","","","","","","","","","","","","","",""
"learning-trial","101","536984","0.0-9.0-2.0-1.7","1863","2","2","""event"",""trial"",""time""
""fullscreenenter"",""1"",""3356""
","
","
","""event"",""trial"",""time""
""fullscreenenter"",""1"",""3356""
","
","","","","","","1600.6000003814697","images/goat1.png","","","learning","images/animals_choice3.png","images/animals_choice1.png","images/animals_choice2.png","[2,0,1]","1","2","1","images/animals_choice3.png","-1","animals","","goat","2","0"
"html-keyboard-response","102","537493","0.0-9.0-2.0-0.8","1863","2","2","""event"",""trial"",""time""
""fullscreenenter"",""1"",""3356""
","
","
","""event"",""trial"",""time""
""fullscreenenter"",""1"",""3356""
","
","","","","","","null","<div style=""font-size:60px;"">+</div>","null","","fixation","","","","","","","","","","","","","",""
"learning-trial","103","541510","0.0-9.0-2.0-1.8","1863","2","2","""event"",""trial"",""time""
""fullscreenenter"",""1"",""3356""
","
","
","""event"",""trial"",""time""
""fullscreenenter"",""1"",""3356""
","
","","","","","","954.5999994277954","images/sheep5.png","","","learning","images/animals_choice1.png","images/animals_choice2.png","images/animals_choice3.png","[0,1,2]","0","0","2","images/animals_choice2.png","-1","animals","","sheep","2","0"
"html-keyboard-response","104","542026","0.0-9.0-2.0-0.9","1863","2","2","""event"",""trial"",""time""
""fullscreenenter"",""1"",""3356""
","
","
","""event"",""trial"",""time""
""fullscreenenter"",""1"",""3356""
","
","","","","","","null","<div style=""font-size:60px;"">+</div>","null","","fixation","","","","","","","","","","","","","",""
"learning-trial","105","546029","0.0-9.0-2.0-1.9","1863","2","2","""event"",""trial"",""time""
""fullscreenenter"",""1"",""3356""
","
","
","""event"",""trial"",""time""
""fullscreenenter"",""1"",""3356""
","
","","","","","","1104.6999998092651","images/cow2.png","","","learning","images/animals_choice3.png","images/animals_choice1.png","images/animals_choice2.png","[2,0,1]","0","1","3","images/animals_choice2.png","-1","animals","","cow","2","0"
"html-keyboard-response","106","546535","0.0-9.0-2.0-0.10","1863","2","2","""event"",""trial"",""time""
""fullscreenenter"",""1"",""3356""
","
","
","""event"",""trial"",""time""
""fullscreenenter"",""1"",""3356""
","
","","","","","","null","<div style=""font-size:60px;"">+</div>","null","","fixation","","","","","","","","","","","","","",""
"learning-trial","107","550542","0.0-9.0-2.0-1.10","1863","2","2","""event"",""trial"",""time""
""fullscreenenter"",""1"",""3356""
","
","
","""event"",""trial"",""time""
""fullscreenenter"",""1"",""3356""
","
","","","","","","625","images/cow4.png","","","learning","images/animals_choice3.png","images/animals_choice1.png","images/animals_choice2.png","[2,0,1]","1","2","2","images/animals_choice1.png","-1","animals","","cow","2","0"
"html-keyboard-response","108","551045","0.0-9.0-2.0-0.11","1863","2","2","""event"",""trial"",""time""
""fullscreenenter"",""1"",""3356""
","
","
","""event"",""trial"",""time""
""fullscreenenter"",""1"",""3356""
","
","","","","","","null","<div style=""font-size:60px;"">+</div>","null","","fixation","","","","","","","","","","","","","",""
"learning-trial","109","555049","0.0-9.0-2.0-1.11","1863","2","2","""event"",""trial"",""time""
""fullscreenenter"",""1"",""3356""
","
","
","""event"",""trial"",""time""
""fullscreenenter"",""1"",""3356""
","
","","","","","","605.7000007629395","images/cow2.png","","","learning","images/animals_choice3.png","images/animals_choice2.png","images/animals_choice1.png","[2,1,0]","0","2","1","images/animals_choice3.png","-1","animals","","cow","2","0"
"html-keyboard-response","110","555553","0.0-9.0-2.0-0.12","1863","2","2","""event"",""trial"",""time""
""fullscreenenter"",""1"",""3356""
","
","
","""event"",""trial"",""time""
""fullscreenenter"",""1"",""3356""
","
","","","","","","null","<div style=""font-size:60px;"">+</div>","null","","fixation","","","","","","","","","","","","","",""
"learning-trial","111","559572","0.0-9.0-2.0-1.12","1863","2","2","""event"",""trial"",""time""
""fullscreenenter"",""1"",""3356""
","
","
","""event"",""trial"",""time""
""fullscreenenter"",""1"",""3356""
","
","","","","","","1342.1999998092651","images/goat5.png","","","learning","images/animals_choice1.png","images/animals_choice3.png","images/animals_choice2.png","[0,2,1]","0","0","2","images/animals_choice3.png","-1","animals","","goat","2","0"
"html-keyboard-response","112","560081","0.0-9.0-2.0-0.13","1863","2","2","""event"",""trial"",""time""
""fullscreenenter"",""1"",""3356""
","
","
","""event"",""trial"",""time""
""fullscreenenter"",""1"",""3356""
","
","","","","","","null","<div style=""font-size:60px;"">+</div>","null","","fixation","","","","","","","","","","","","","",""
"learning-trial","113","564084","0.0-9.0-2.0-1.13","1863","2","2","""event"",""trial"",""time""
""fullscreenenter"",""1"",""3356""
","
","
","""event"",""trial"",""time""
""fullscreenenter"",""1"",""3356""
","
","","","","","","872.8000001907349","images/goat1.png","","","learning","images/animals_choice2.png","images/animals_choice1.png","images/animals_choice3.png","[1,0,2]","1","0","3","images/animals_choice3.png","-1","animals","","goat","2","0"
"html-keyboard-response","114","564599","0.0-9.0-2.0-0.14","1863","2","2","""event"",""trial"",""time""
""fullscreenenter"",""1"",""3356""
","
","
","""event"",""trial"",""time""
""fullscreenenter"",""1"",""3356""
","
","","","","","","null","<div style=""font-size:60px;"">+</div>","null","","fixation","","","","","","","","","","","","","",""
"learning-trial","115","568606","0.0-9.0-2.0-1.14","1863","2","2","""event"",""trial"",""time""
""fullscreenenter"",""1"",""3356""
","
","
","""event"",""trial"",""time""
""fullscreenenter"",""1"",""3356""
","
","","","","","","939.6000003814697","images/goat1.png","","","learning","images/animals_choice3.png","images/animals_choice2.png","images/animals_choice1.png","[2,1,0]","1","1","1","images/animals_choice3.png","-1","animals","","goat","2","0"
"html-keyboard-response","116","569122","0.0-9.0-2.0-0.15","1863","2","2","""event"",""trial"",""time""
""fullscreenenter"",""1"",""3356""
","
","
","""event"",""trial"",""time""
""fullscreenenter"",""1"",""3356""
","
","","","","","","null","<div style=""font-size:60px;"">+</div>","null","","fixation","","","","","","","","","","","","","",""
"learning-trial","117","573131","0.0-9.0-2.0-1.15","1863","2","2","""event"",""trial"",""time""
""fullscreenenter"",""1"",""3356""
","
","
","""event"",""trial"",""time""
""fullscreenenter"",""1"",""3356""
","
","","","","","","828.1000003814697","images/cow4.png","","","learning","images/animals_choice1.png","images/animals_choice2.png","images/animals_choice3.png","[0,1,2]","1","1","2","images/animals_choice2.png","1","animals","","cow","2","0"
"html-keyboard-response","118","573637","0.0-9.0-2.0-0.16","1863","2","2","""event"",""trial"",""time""
""fullscreenenter"",""1"",""3356""
","
","
","""event"",""trial"",""time""
""fullscreenenter"",""1"",""3356""
","
","","","","","","null","<div style=""font-size:60px;"">+</div>","null","","fixation","","","","","","","","","","","","","",""
"learning-trial","119","577644","0.0-9.0-2.0-1.16","1863","2","2","""event"",""trial"",""time""
""fullscreenenter"",""1"",""3356""
","
","
","""event"",""trial"",""time""
""fullscreenenter"",""1"",""3356""
","
","","","","","","899","images/goat3.png","","","learning","images/animals_choice2.png","images/animals_choice1.png","images/animals_choice3.png","[1,0,2]","2","2","3","images/animals_choice3.png","1","animals","","goat","2","0"
"html-keyboard-response","120","578150","0.0-9.0-2.0-0.17","1863","2","2","""event"",""trial"",""time""
""fullscreenenter"",""1"",""3356""
","
","
","""event"",""trial"",""time""
""fullscreenenter"",""1"",""3356""
","
","","","","","","null","<div style=""font-size:60px;"">+</div>","null","","fixation","","","","","","","","","","","","","",""
"learning-trial","121","582155","0.0-9.0-2.0-1.17","1863","2","2","""event"",""trial"",""time""
""fullscreenenter"",""1"",""3356""
","
","
","""event"",""trial"",""time""
""fullscreenenter"",""1"",""3356""
","
","","","","","","964.1999998092651","images/sheep5.png","","","learning","images/animals_choice2.png","images/animals_choice1.png","images/animals_choice3.png","[1,0,2]","0","1","2","images/animals_choice1.png","1","animals","","sheep","2","0"
"html-keyboard-response","122","582667","0.0-9.0-2.0-0.18","1863","2","2","""event"",""trial"",""time""
""fullscreenenter"",""1"",""3356""
","
","
","""event"",""trial"",""time""
""fullscreenenter"",""1"",""3356""
","
","","","","","","null","<div style=""font-size:60px;"">+</div>","null","","fixation","","","","","","","","","","","","","",""
"learning-trial","123","586675","0.0-9.0-2.0-1.18","1863","2","2","""event"",""trial"",""time""
""fullscreenenter"",""1"",""3356""
","
","
","""event"",""trial"",""time""
""fullscreenenter"",""1"",""3356""
","
","","","","","","729.1999998092651","images/sheep3.png","","","learning","images/animals_choice3.png","images/animals_choice1.png","images/animals_choice2.png","[2,0,1]","2","0","2","images/animals_choice1.png","-1","animals","","sheep","2","0"
"html-keyboard-response","124","587179","0.0-9.0-2.0-0.19","1863","2","2","""event"",""trial"",""time""
""fullscreenenter"",""1"",""3356""
","
","
","""event"",""trial"",""time""
""fullscreenenter"",""1"",""3356""
","
","","","","","","null","<div style=""font-size:60px;"">+</div>","null","","fixation","","","","","","","","","","","","","",""
"learning-trial","125","591181","0.0-9.0-2.0-1.19","1863","2","2","""event"",""trial"",""time""
""fullscreenenter"",""1"",""3356""
","
","
","""event"",""trial"",""time""
""fullscreenenter"",""1"",""3356""
","
","","","","","","850.1999998092651","images/sheep1.png","","","learning","images/animals_choice1.png","images/animals_choice2.png","images/animals_choice3.png","[0,1,2]","1","1","3","images/animals_choice3.png","-1","animals","","sheep","2","0"
"html-keyboard-response","126","591683","0.0-9.0-2.0-0.20","1863","2","2","""event"",""trial"",""time""
""fullscreenenter"",""1"",""3356""
","
","
","""event"",""trial"",""time""
""fullscreenenter"",""1"",""3356""
","
","","","","","","null","<div style=""font-size:60px;"">+</div>","null","","fixation","","","","","","","","","","","","","",""
"learning-trial","127","595697","0.0-9.0-2.0-1.20","1863","2","2","""event"",""trial"",""time""
""fullscreenenter"",""1"",""3356""
","
","
","""event"",""trial"",""time""
""fullscreenenter"",""1"",""3356""
","
","","","","","","1094","images/goat3.png","","","learning","images/animals_choice1.png","images/animals_choice2.png","images/animals_choice3.png","[0,1,2]","2","2","3","images/animals_choice3.png","1","animals","","goat","2","0"
"html-keyboard-response","128","596203","0.0-9.0-2.0-0.21","1863","2","2","""event"",""trial"",""time""
""fullscreenenter"",""1"",""3356""
","
","
","""event"",""trial"",""time""
""fullscreenenter"",""1"",""3356""
","
","","","","","","null","<div style=""font-size:60px;"">+</div>","null","","fixation","","","","","","","","","","","","","",""
"learning-trial","129","600210","0.0-9.0-2.0-1.21","1863","2","2","""event"",""trial"",""time""
""fullscreenenter"",""1"",""3356""
","
","
","""event"",""trial"",""time""
""fullscreenenter"",""1"",""3356""
","
","","","","","","1029.1000003814697","images/sheep3.png","","","learning","images/animals_choice3.png","images/animals_choice2.png","images/animals_choice1.png","[2,1,0]","2","0","1","images/animals_choice3.png","1","animals","","sheep","2","0"
"html-keyboard-response","130","600718","0.0-9.0-2.0-0.22","1863","2","2","""event"",""trial"",""time""
""fullscreenenter"",""1"",""3356""
","
","
","""event"",""trial"",""time""
""fullscreenenter"",""1"",""3356""
","
","","","","","","null","<div style=""font-size:60px;"">+</div>","null","","fixation","","","","","","","","","","","","","",""
"learning-trial","131","604725","0.0-9.0-2.0-1.22","1863","2","2","""event"",""trial"",""time""
""fullscreenenter"",""1"",""3356""
","
","
","""event"",""trial"",""time""
""fullscreenenter"",""1"",""3356""
","
","","","","","","1113.5999994277954","images/goat5.png","","","learning","images/animals_choice2.png","images/animals_choice1.png","images/animals_choice3.png","[1,0,2]","0","1","3","images/animals_choice3.png","-1","animals","","goat","2","0"
"html-keyboard-response","132","605232","0.0-9.0-2.0-0.23","1863","2","2","""event"",""trial"",""time""
""fullscreenenter"",""1"",""3356""
","
","
","""event"",""trial"",""time""
""fullscreenenter"",""1"",""3356""
","
","","","","","","null","<div style=""font-size:60px;"">+</div>","null","","fixation","","","","","","","","","","","","","",""
"learning-trial","133","609242","0.0-9.0-2.0-1.23","1863","2","2","""event"",""trial"",""time""
""fullscreenenter"",""1"",""3356""
","
","
","""event"",""trial"",""time""
""fullscreenenter"",""1"",""3356""
","
","","","","","","678.7999992370605","images/goat3.png","","","learning","images/animals_choice2.png","images/animals_choice1.png","images/animals_choice3.png","[1,0,2]","2","2","3","images/animals_choice3.png","1","animals","","goat","2","0"
"html-keyboard-response","134","609754","0.0-9.0-2.0-0.24","1863","2","2","""event"",""trial"",""time""
""fullscreenenter"",""1"",""3356""
","
","
","""event"",""trial"",""time""
""fullscreenenter"",""1"",""3356""
","
","","","","","","null","<div style=""font-size:60px;"">+</div>","null","","fixation","","","","","","","","","","","","","",""
"learning-trial","135","613763","0.0-9.0-2.0-1.24","1863","2","2","""event"",""trial"",""time""
""fullscreenenter"",""1"",""3356""
","
","
","""event"",""trial"",""time""
""fullscreenenter"",""1"",""3356""
","
","","","","","","499.5","images/goat5.png","","","learning","images/animals_choice2.png","images/animals_choice1.png","images/animals_choice3.png","[1,0,2]","0","1","3","images/animals_choice3.png","-1","animals","","goat","2","0"
"html-keyboard-response","136","614276","0.0-9.0-2.0-0.25","1863","2","2","""event"",""trial"",""time""
""fullscreenenter"",""1"",""3356""
","
","
","""event"",""trial"",""time""
""fullscreenenter"",""1"",""3356""
","
","","","","","","null","<div style=""font-size:60px;"">+</div>","null","","fixation","","","","","","","","","","","","","",""
"learning-trial","137","618282","0.0-9.0-2.0-1.25","1863","2","2","""event"",""trial"",""time""
""fullscreenenter"",""1"",""3356""
","
","
","""event"",""trial"",""time""
""fullscreenenter"",""1"",""3356""
","
","","","","","","433.6000003814697","images/sheep1.png","","","learning","images/animals_choice1.png","images/animals_choice3.png","images/animals_choice2.png","[0,2,1]","1","2","3","images/animals_choice2.png","1","animals","","sheep","2","0"
"html-keyboard-response","138","618795","0.0-9.0-2.0-0.26","1863","2","2","""event"",""trial"",""time""
""fullscreenenter"",""1"",""3356""
","
","
","""event"",""trial"",""time""
""fullscreenenter"",""1"",""3356""
","
","","","","","","null","<div style=""font-size:60px;"">+</div>","null","","fixation","","","","","","","","","","","","","",""
"learning-trial","139","622806","0.0-9.0-2.0-1.26","1863","2","2","""event"",""trial"",""time""
""fullscreenenter"",""1"",""3356""
","
","
","""event"",""trial"",""time""
""fullscreenenter"",""1"",""3356""
","
","","","","","","966.1000003814697","images/cow4.png","","","learning","images/animals_choice2.png","images/animals_choice1.png","images/animals_choice3.png","[1,0,2]","1","0","2","images/animals_choice1.png","-1","animals","","cow","2","0"
"html-keyboard-response","140","623317","0.0-9.0-2.0-0.27","1863","2","2","""event"",""trial"",""time""
""fullscreenenter"",""1"",""3356""
","
","
","""event"",""trial"",""time""
""fullscreenenter"",""1"",""3356""
","
","","","","","","null","<div style=""font-size:60px;"">+</div>","null","","fixation","","","","","","","","","","","","","",""
"learning-trial","141","627327","0.0-9.0-2.0-1.27","1863","2","2","""event"",""trial"",""time""
""fullscreenenter"",""1"",""3356""
","
","
","""event"",""trial"",""time""
""fullscreenenter"",""1"",""3356""
","
","","","","","","1011","images/goat1.png","","","learning","images/animals_choice1.png","images/animals_choice3.png","images/animals_choice2.png","[0,2,1]","1","2","2","images/animals_choice3.png","-1","animals","","goat","2","0"
"html-keyboard-response","142","627837","0.0-9.0-2.0-0.28","1863","2","2","""event"",""trial"",""time""
""fullscreenenter"",""1"",""3356""
","
","
","""event"",""trial"",""time""
""fullscreenenter"",""1"",""3356""
","
","","","","","","null","<div style=""font-size:60px;"">+</div>","null","","fixation","","","","","","","","","","","","","",""
"learning-trial","143","631846","0.0-9.0-2.0-1.28","1863","2","2","""event"",""trial"",""time""
""fullscreenenter"",""1"",""3356""
","
","
","""event"",""trial"",""time""
""fullscreenenter"",""1"",""3356""
","
","","","","","","682.3000001907349","images/goat3.png","","","learning","images/animals_choice1.png","images/animals_choice3.png","images/animals_choice2.png","[0,2,1]","2","1","2","images/animals_choice3.png","1","animals","","goat","2","0"
"html-keyboard-response","144","632353","0.0-9.0-2.0-0.29","1863","2","2","""event"",""trial"",""time""
""fullscreenenter"",""1"",""3356""
","
","
","""event"",""trial"",""time""
""fullscreenenter"",""1"",""3356""
","
","","","","","","null","<div style=""font-size:60px;"">+</div>","null","","fixation","","","","","","","","","","","","","",""
"learning-trial","145","636360","0.0-9.0-2.0-1.29","1863","2","2","""event"",""trial"",""time""
""fullscreenenter"",""1"",""3356""
","
","
","""event"",""trial"",""time""
""fullscreenenter"",""1"",""3356""
","
","","","","","","1380","images/cow4.png","","","learning","images/animals_choice2.png","images/animals_choice3.png","images/animals_choice1.png","[1,2,0]","1","0","1","images/animals_choice2.png","1","animals","","cow","2","0"
"html-keyboard-response","146","636867","0.0-9.0-2.0-0.30","1863","2","2","""event"",""trial"",""time""
""fullscreenenter"",""1"",""3356""
","
","
","""event"",""trial"",""time""
""fullscreenenter"",""1"",""3356""
","
","","","","","","null","<div style=""font-size:60px;"">+</div>","null","","fixation","","","","","","","","","","","","","",""
"learning-trial","147","640871","0.0-9.0-2.0-1.30","1863","2","2","""event"",""trial"",""time""
""fullscreenenter"",""1"",""3356""
","
","
","""event"",""trial"",""time""
""fullscreenenter"",""1"",""3356""
","
","","","","","","1014.6999998092651","images/sheep3.png","","","learning","images/animals_choice2.png","images/animals_choice3.png","images/animals_choice1.png","[1,2,0]","2","1","2","images/animals_choice3.png","1","animals","","sheep","2","0"
"html-keyboard-response","148","641380","0.0-9.0-2.0-0.31","1863","2","2","""event"",""trial"",""time""
""fullscreenenter"",""1"",""3356""
","
","
","""event"",""trial"",""time""
""fullscreenenter"",""1"",""3356""
","
","","","","","","null","<div style=""font-size:60px;"">+</div>","null","","fixation","","","","","","","","","","","","","",""
"learning-trial","149","645387","0.0-9.0-2.0-1.31","1863","2","2","""event"",""trial"",""time""
""fullscreenenter"",""1"",""3356""
","
","
","""event"",""trial"",""time""
""fullscreenenter"",""1"",""3356""
","
","","","","","","1367.3000001907349","images/sheep1.png","","","learning","images/animals_choice1.png","images/animals_choice2.png","images/animals_choice3.png","[0,1,2]","1","1","3","images/animals_choice3.png","-1","animals","","sheep","2","0"
"html-keyboard-response","150","645896","0.0-9.0-2.0-0.32","1863","2","2","""event"",""trial"",""time""
""fullscreenenter"",""1"",""3356""
","
","
","""event"",""trial"",""time""
""fullscreenenter"",""1"",""3356""
","
","","","","","","null","<div style=""font-size:60px;"">+</div>","null","","fixation","","","","","","","","","","","","","",""
"learning-trial","151","649908","0.0-9.0-2.0-1.32","1863","2","2","""event"",""trial"",""time""
""fullscreenenter"",""1"",""3356""
","
","
","""event"",""trial"",""time""
""fullscreenenter"",""1"",""3356""
","
","","","","","","1892.1999998092651","images/cow4.png","","","learning","images/animals_choice3.png","images/animals_choice2.png","images/animals_choice1.png","[2,1,0]","1","1","3","images/animals_choice1.png","-1","animals","","cow","2","0"
"html-keyboard-response","152","650419","0.0-9.0-2.0-0.33","1863","2","2","""event"",""trial"",""time""
""fullscreenenter"",""1"",""3356""
","
","
","""event"",""trial"",""time""
""fullscreenenter"",""1"",""3356""
","
","","","","","","null","<div style=""font-size:60px;"">+</div>","null","","fixation","","","","","","","","","","","","","",""
"learning-trial","153","654425","0.0-9.0-2.0-1.33","1863","2","2","""event"",""trial"",""time""
""fullscreenenter"",""1"",""3356""
","
","
","""event"",""trial"",""time""
""fullscreenenter"",""1"",""3356""
","
","","","","","","1136.6999998092651","images/sheep3.png","","","learning","images/animals_choice3.png","images/animals_choice2.png","images/animals_choice1.png","[2,1,0]","2","0","1","images/animals_choice3.png","-1","animals","","sheep","2","0"
"html-keyboard-response","154","654929","0.0-9.0-2.0-0.34","1863","2","2","""event"",""trial"",""time""
""fullscreenenter"",""1"",""3356""
","
","
","""event"",""trial"",""time""
""fullscreenenter"",""1"",""3356""
","
","","","","","","null","<div style=""font-size:60px;"">+</div>","null","","fixation","","","","","","","","","","","","","",""
"learning-trial","155","658935","0.0-9.0-2.0-1.34","1863","2","2","""event"",""trial"",""time""
""fullscreenenter"",""1"",""3356""
","
","
","""event"",""trial"",""time""
""fullscreenenter"",""1"",""3356""
","
","","","","","","1125.1999998092651","images/cow1.png","","","learning","images/animals_choice3.png","images/animals_choice2.png","images/animals_choice1.png","[2,1,0]","2","0","2","images/animals_choice2.png","-1","animals","","cow","2","0"
"html-keyboard-response","156","659439","0.0-9.0-2.0-0.35","1863","2","2","""event"",""trial"",""time""
""fullscreenenter"",""1"",""3356""
","
","
","""event"",""trial"",""time""
""fullscreenenter"",""1"",""3356""
","
","","","","","","null","<div style=""font-size:60px;"">+</div>","null","","fixation","","","","","","","","","","","","","",""
"learning-trial","157","663446","0.0-9.0-2.0-1.35","1863","2","2","""event"",""trial"",""time""
""fullscreenenter"",""1"",""3356""
","
","
","""event"",""trial"",""time""
""fullscreenenter"",""1"",""3356""
","
","","","","","","950.8999996185303","images/goat5.png","","","learning","images/animals_choice1.png","images/animals_choice2.png","images/animals_choice3.png","[0,1,2]","0","0","3","images/animals_choice3.png","-1","animals","","goat","2","0"
"html-keyboard-response","158","663952","0.0-9.0-2.0-0.36","1863","2","2","""event"",""trial"",""time""
""fullscreenenter"",""1"",""3356""
","
","
","""event"",""trial"",""time""
""fullscreenenter"",""1"",""3356""
","
","","","","","","null","<div style=""font-size:60px;"">+</div>","null","","fixation","","","","","","","","","","","","","",""
"learning-trial","159","667958","0.0-9.0-2.0-1.36","1863","2","2","""event"",""trial"",""time""
""fullscreenenter"",""1"",""3356""
","
","
","""event"",""trial"",""time""
""fullscreenenter"",""1"",""3356""
","
","","","","","","1134.6999998092651","images/goat1.png","","","learning","images/animals_choice3.png","images/animals_choice2.png","images/animals_choice1.png","[2,1,0]","1","1","3","images/animals_choice1.png","-1","animals","","goat","2","0"
"html-keyboard-response","160","668467","0.0-9.0-2.0-0.37","1863","2","2","""event"",""trial"",""time""
""fullscreenenter"",""1"",""3356""
","
","
","""event"",""trial"",""time""
""fullscreenenter"",""1"",""3356""
","
","","","","","","null","<div style=""font-size:60px;"">+</div>","null","","fixation","","","","","","","","","","","","","",""
"learning-trial","161","672472","0.0-9.0-2.0-1.37","1863","2","2","""event"",""trial"",""time""
""fullscreenenter"",""1"",""3356""
","
","
","""event"",""trial"",""time""
""fullscreenenter"",""1"",""3356""
","
","","","","","","1180.3000001907349","images/sheep1.png","","","learning","images/animals_choice2.png","images/animals_choice3.png","images/animals_choice1.png","[1,2,0]","1","0","2","images/animals_choice3.png","-1","animals","","sheep","2","0"
"html-keyboard-response","162","672983","0.0-9.0-2.0-0.38","1863","2","2","""event"",""trial"",""time""
""fullscreenenter"",""1"",""3356""
","
","
","""event"",""trial"",""time""
""fullscreenenter"",""1"",""3356""
","
","","","","","","null","<div style=""font-size:60px;"">+</div>","null","","fixation","","","","","","","","","","","","","",""
"learning-trial","163","676997","0.0-9.0-2.0-1.38","1863","2","2","""event"",""trial"",""time""
""fullscreenenter"",""1"",""3356""
","
","
","""event"",""trial"",""time""
""fullscreenenter"",""1"",""3356""
","
","","","","","","945.7999992370605","images/goat5.png","","","learning","images/animals_choice1.png","images/animals_choice2.png","images/animals_choice3.png","[0,1,2]","0","0","3","images/animals_choice3.png","-1","animals","","goat","2","0"
"html-keyboard-response","164","677504","0.0-9.0-2.0-0.39","1863","2","2","""event"",""trial"",""time""
""fullscreenenter"",""1"",""3356""
","
","
","""event"",""trial"",""time""
""fullscreenenter"",""1"",""3356""
","
","","","","","","null","<div style=""font-size:60px;"">+</div>","null","","fixation","","","","","","","","","","","","","",""
"learning-trial","165","681510","0.0-9.0-2.0-1.39","1863","2","2","""event"",""trial"",""time""
""fullscreenenter"",""1"",""3356""
","
","
","""event"",""trial"",""time""
""fullscreenenter"",""1"",""3356""
","
","","","","","","684.2000007629395","images/cow1.png","","","learning","images/animals_choice3.png","images/animals_choice1.png","images/animals_choice2.png","[2,0,1]","2","0","2","images/animals_choice1.png","-1","animals","","cow","2","0"
"html-keyboard-response","166","682012","0.0-9.0-2.0-0.40","1863","2","2","""event"",""trial"",""time""
""fullscreenenter"",""1"",""3356""
","
","
","""event"",""trial"",""time""
""fullscreenenter"",""1"",""3356""
","
","","","","","","null","<div style=""font-size:60px;"">+</div>","null","","fixation","","","","","","","","","","","","","",""
"learning-trial","167","686019","0.0-9.0-2.0-1.40","1863","2","2","""event"",""trial"",""time""
""fullscreenenter"",""1"",""3356""
","
","
","""event"",""trial"",""time""
""fullscreenenter"",""1"",""3356""
","
","","","","","","820.3999996185303","images/sheep5.png","","","learning","images/animals_choice2.png","images/animals_choice3.png","images/animals_choice1.png","[1,2,0]","0","2","2","images/animals_choice3.png","-1","animals","","sheep","2","0"
"html-keyboard-response","168","686526","0.0-9.0-2.0-0.41","1863","2","2","""event"",""trial"",""time""
""fullscreenenter"",""1"",""3356""
","
","
","""event"",""trial"",""time""
""fullscreenenter"",""1"",""3356""
","
","","","","","","null","<div style=""font-size:60px;"">+</div>","null","","fixation","","","","","","","","","","","","","",""
"learning-trial","169","690537","0.0-9.0-2.0-1.41","1863","2","2","""event"",""trial"",""time""
""fullscreenenter"",""1"",""3356""
","
","
","""event"",""trial"",""time""
""fullscreenenter"",""1"",""3356""
","
","","","","","","490.19999980926514","images/goat3.png","","","learning","images/animals_choice2.png","images/animals_choice1.png","images/animals_choice3.png","[1,0,2]","2","2","1","images/animals_choice2.png","-1","animals","","goat","2","0"
"html-keyboard-response","170","691040","0.0-9.0-2.0-0.42","1863","2","2","""event"",""trial"",""time""
""fullscreenenter"",""1"",""3356""
","
","
","""event"",""trial"",""time""
""fullscreenenter"",""1"",""3356""
","
","","","","","","null","<div style=""font-size:60px;"">+</div>","null","","fixation","","","","","","","","","","","","","",""
"learning-trial","171","695046","0.0-9.0-2.0-1.42","1863","2","2","""event"",""trial"",""time""
""fullscreenenter"",""1"",""3356""
","
","
","""event"",""trial"",""time""
""fullscreenenter"",""1"",""3356""
","
","","","","","","1586.7000007629395","images/sheep5.png","","","learning","images/animals_choice1.png","images/animals_choice2.png","images/animals_choice3.png","[0,1,2]","0","0","1","images/animals_choice1.png","1","animals","","sheep","2","0"
"html-keyboard-response","172","695555","0.0-9.0-2.0-0.43","1863","2","2","""event"",""trial"",""time""
""fullscreenenter"",""1"",""3356""
","
","
","""event"",""trial"",""time""
""fullscreenenter"",""1"",""3356""
","
","","","","","","null","<div style=""font-size:60px;"">+</div>","null","","fixation","","","","","","","","","","","","","",""
"learning-trial","173","699561","0.0-9.0-2.0-1.43","1863","2","2","""event"",""trial"",""time""
""fullscreenenter"",""1"",""3356""
","
","
","""event"",""trial"",""time""
""fullscreenenter"",""1"",""3356""
","
","","","","","","1504.6999998092651","images/goat1.png","","","learning","images/animals_choice2.png","images/animals_choice3.png","images/animals_choice1.png","[1,2,0]","1","0","1","images/animals_choice2.png","1","animals","","goat","2","0"
"html-keyboard-response","174","700074","0.0-9.0-2.0-0.44","1863","2","2","""event"",""trial"",""time""
""fullscreenenter"",""1"",""3356""
","
","
","""event"",""trial"",""time""
""fullscreenenter"",""1"",""3356""
","
","","","","","","null","<div style=""font-size:60px;"">+</div>","null","","fixation","","","","","","","","","","","","","",""
"learning-trial","175","704078","0.0-9.0-2.0-1.44","1863","2","2","""event"",""trial"",""time""
""fullscreenenter"",""1"",""3356""
","
","
","""event"",""trial"",""time""
""fullscreenenter"",""1"",""3356""
","
","","","","","","1682.8000001907349","images/cow1.png","","","learning","images/animals_choice3.png","images/animals_choice1.png","images/animals_choice2.png","[2,0,1]","2","0","3","images/animals_choice2.png","-1","animals","","cow","2","0"
"html-keyboard-response","176","704581","0.0-9.0-2.0-0.45","1863","2","2","""event"",""trial"",""time""
""fullscreenenter"",""1"",""3356""
","
","
","""event"",""trial"",""time""
""fullscreenenter"",""1"",""3356""
","
","","","","","","null","<div style=""font-size:60px;"">+</div>","null","","fixation","","","","","","","","","","","","","",""
"learning-trial","177","708592","0.0-9.0-2.0-1.45","1863","2","2","""event"",""trial"",""time""
""fullscreenenter"",""1"",""3356""
","
","
","""event"",""trial"",""time""
""fullscreenenter"",""1"",""3356""
","
","","","","","","1471.6999998092651","images/sheep5.png","","","learning","images/animals_choice2.png","images/animals_choice1.png","images/animals_choice3.png","[1,0,2]","0","1","2","images/animals_choice1.png","1","animals","","sheep","2","0"
"html-keyboard-response","178","709093","0.0-9.0-2.0-0.46","1863","2","2","""event"",""trial"",""time""
""fullscreenenter"",""1"",""3356""
","
","
","""event"",""trial"",""time""
""fullscreenenter"",""1"",""3356""
","
","","","","","","null","<div style=""font-size:60px;"">+</div>","null","","fixation","","","","","","","","","","","","","",""
"learning-trial","179","713108","0.0-9.0-2.0-1.46","1863","2","2","""event"",""trial"",""time""
""fullscreenenter"",""1"",""3356""
","
","
","""event"",""trial"",""time""
""fullscreenenter"",""1"",""3356""
","
","","","","","","1196.3000001907349","images/sheep3.png","","","learning","images/animals_choice1.png","images/animals_choice3.png","images/animals_choice2.png","[0,2,1]","2","1","2","images/animals_choice3.png","1","animals","","sheep","2","0"
"html-keyboard-response","180","713613","0.0-9.0-2.0-0.47","1863","2","2","""event"",""trial"",""time""
""fullscreenenter"",""1"",""3356""
","
","
","""event"",""trial"",""time""
""fullscreenenter"",""1"",""3356""
","
","","","","","","null","<div style=""font-size:60px;"">+</div>","null","","fixation","","","","","","","","","","","","","",""
"learning-trial","181","717616","0.0-9.0-2.0-1.47","1863","2","2","""event"",""trial"",""time""
""fullscreenenter"",""1"",""3356""
","
","
","""event"",""trial"",""time""
""fullscreenenter"",""1"",""3356""
","
","","","","","","1464.9000005722046","images/cow4.png","","","learning","images/animals_choice3.png","images/animals_choice2.png","images/animals_choice1.png","[2,1,0]","1","1","3","images/animals_choice1.png","-1","animals","","cow","2","0"
"html-keyboard-response","182","718119","0.0-9.0-2.0-0.48","1863","2","2","""event"",""trial"",""time""
""fullscreenenter"",""1"",""3356""
","
","
","""event"",""trial"",""time""
""fullscreenenter"",""1"",""3356""
","
","","","","","","null","<div style=""font-size:60px;"">+</div>","null","","fixation","","","","","","","","","","","","","",""
"learning-trial","183","722136","0.0-9.0-2.0-1.48","1863","2","2","""event"",""trial"",""time""
""fullscreenenter"",""1"",""3356""
","
","
","""event"",""trial"",""time""
""fullscreenenter"",""1"",""3356""
","
","","","","","","812.8999996185303","images/sheep1.png","","","learning","images/animals_choice2.png","images/animals_choice1.png","images/animals_choice3.png","[1,0,2]","1","0","2","images/animals_choice1.png","-1","animals","","sheep","2","0"
"html-keyboard-response","184","722643","0.0-9.0-2.0-0.49","1863","2","2","""event"",""trial"",""time""
""fullscreenenter"",""1"",""3356""
","
","
","""event"",""trial"",""time""
""fullscreenenter"",""1"",""3356""
","
","","","","","","null","<div style=""font-size:60px;"">+</div>","null","","fixation","","","","","","","","","","","","","",""
"learning-trial","185","726647","0.0-9.0-2.0-1.49","1863","2","2","""event"",""trial"",""time""
""fullscreenenter"",""1"",""3356""
","
","
","""event"",""trial"",""time""
""fullscreenenter"",""1"",""3356""
","
","","","","","","803.6000003814697","images/sheep5.png","","","learning","images/animals_choice2.png","images/animals_choice3.png","images/animals_choice1.png","[1,2,0]","0","2","2","images/animals_choice3.png","1","animals","","sheep","2","0"
"html-keyboard-response","186","727151","0.0-9.0-2.0-0.50","1863","2","2","""event"",""trial"",""time""
""fullscreenenter"",""1"",""3356""
","
","
","""event"",""trial"",""time""
""fullscreenenter"",""1"",""3356""
","
","","","","","","null","<div style=""font-size:60px;"">+</div>","null","","fixation","","","","","","","","","","","","","",""
"learning-trial","187","731163","0.0-9.0-2.0-1.50","1863","2","2","""event"",""trial"",""time""
""fullscreenenter"",""1"",""3356""
","
","
","""event"",""trial"",""time""
""fullscreenenter"",""1"",""3356""
","
","","","","","","1382.2999992370605","images/goat3.png","","","learning","images/animals_choice3.png","images/animals_choice1.png","images/animals_choice2.png","[2,0,1]","2","0","1","images/animals_choice3.png","1","animals","","goat","2","0"
"html-keyboard-response","188","731665","0.0-9.0-2.0-0.51","1863","2","2","""event"",""trial"",""time""
""fullscreenenter"",""1"",""3356""
","
","
","""event"",""trial"",""time""
""fullscreenenter"",""1"",""3356""
","
","","","","","","null","<div style=""font-size:60px;"">+</div>","null","","fixation","","","","","","","","","","","","","",""
"learning-trial","189","735675","0.0-9.0-2.0-1.51","1863","2","2","""event"",""trial"",""time""
""fullscreenenter"",""1"",""3356""
","
","
","""event"",""trial"",""time""
""fullscreenenter"",""1"",""3356""
","
","","","","","","1662.3999996185303","images/sheep3.png","","","learning","images/animals_choice1.png","images/animals_choice2.png","images/animals_choice3.png","[0,1,2]","2","2","3","images/animals_choice3.png","1","animals","","sheep","2","0"
"html-keyboard-response","190","736183","0.0-9.0-2.0-0.52","1863","2","2","""event"",""trial"",""time""
""fullscreenenter"",""1"",""3356""
","
","
","""event"",""trial"",""time""
""fullscreenenter"",""1"",""3356""
","
","","","","","","null","<div style=""font-size:60px;"">+</div>","null","","fixation","","","","","","","","","","","","","",""
"learning-trial","191","740188","0.0-9.0-2.0-1.52","1863","2","2","""event"",""trial"",""time""
""fullscreenenter"",""1"",""3356""
","
","
","""event"",""trial"",""time""
""fullscreenenter"",""1"",""3356""
","
","","","","","","954.2000007629395","images/cow1.png","","","learning","images/animals_choice1.png","images/animals_choice3.png","images/animals_choice2.png","[0,2,1]","2","1","3","images/animals_choice2.png","-1","animals","","cow","2","0"
"html-keyboard-response","192","740704","0.0-9.0-2.0-0.53","1863","2","2","""event"",""trial"",""time""
""fullscreenenter"",""1"",""3356""
","
","
","""event"",""trial"",""time""
""fullscreenenter"",""1"",""3356""
","
","","","","","","null","<div style=""font-size:60px;"">+</div>","null","","fixation","","","","","","","","","","","","","",""
"learning-trial","193","744710","0.0-9.0-2.0-1.53","1863","2","2","""event"",""trial"",""time""
""fullscreenenter"",""1"",""3356""
","
","
","""event"",""trial"",""time""
""fullscreenenter"",""1"",""3356""
","
","","","","","","1149.8999996185303","images/goat1.png","","","learning","images/animals_choice3.png","images/animals_choice1.png","images/animals_choice2.png","[2,0,1]","1","2","1","images/animals_choice3.png","-1","animals","","goat","2","0"
"html-keyboard-response","194","745220","0.0-9.0-2.0-0.54","1863","2","2","""event"",""trial"",""time""
""fullscreenenter"",""1"",""3356""
","
","
","""event"",""trial"",""time""
""fullscreenenter"",""1"",""3356""
","
","","","","","","null","<div style=""font-size:60px;"">+</div>","null","","fixation","","","","","","","","","","","","","",""
"learning-trial","195","749230","0.0-9.0-2.0-1.54","1863","2","2","""event"",""trial"",""time""
""fullscreenenter"",""1"",""3356""
","
","
","""event"",""trial"",""time""
""fullscreenenter"",""1"",""3356""
","
","","","","","","1269.3999996185303","images/cow1.png","","","learning","images/animals_choice2.png","images/animals_choice3.png","images/animals_choice1.png","[1,2,0]","2","1","2","images/animals_choice3.png","1","animals","","cow","2","0"
"html-keyboard-response","196","749737","0.0-9.0-2.0-0.55","1863","2","2","""event"",""trial"",""time""
""fullscreenenter"",""1"",""3356""
","
","
","""event"",""trial"",""time""
""fullscreenenter"",""1"",""3356""
","
","","","","","","null","<div style=""font-size:60px;"">+</div>","null","","fixation","","","","","","","","","","","","","",""
"learning-trial","197","753745","0.0-9.0-2.0-1.55","1863","2","2","""event"",""trial"",""time""
""fullscreenenter"",""1"",""3356""
","
","
","""event"",""trial"",""time""
""fullscreenenter"",""1"",""3356""
","
","","","","","","1307.5999994277954","images/goat3.png","","","learning","images/animals_choice3.png","images/animals_choice2.png","images/animals_choice1.png","[2,1,0]","2","0","1","images/animals_choice3.png","-1","animals","","goat","2","0"
"html-keyboard-response","198","754252","0.0-9.0-2.0-0.56","1863","2","2","""event"",""trial"",""time""
""fullscreenenter"",""1"",""3356""
","
","
","""event"",""trial"",""time""
""fullscreenenter"",""1"",""3356""
","
","","","","","","null","<div style=""font-size:60px;"">+</div>","null","","fixation","","","","","","","","","","","","","",""
"learning-trial","199","758263","0.0-9.0-2.0-1.56","1863","2","2","""event"",""trial"",""time""
""fullscreenenter"",""1"",""3356""
","
","
","""event"",""trial"",""time""
""fullscreenenter"",""1"",""3356""
","
","","","","","","807.0999994277954","images/cow4.png","","","learning","images/animals_choice2.png","images/animals_choice1.png","images/animals_choice3.png","[1,0,2]","1","0","1","images/animals_choice2.png","1","animals","","cow","2","0"
"html-keyboard-response","200","758779","0.0-9.0-2.0-0.57","1863","2","2","""event"",""trial"",""time""
""fullscreenenter"",""1"",""3356""
","
","
","""event"",""trial"",""time""
""fullscreenenter"",""1"",""3356""
","
","","","","","","null","<div style=""font-size:60px;"">+</div>","null","","fixation","","","","","","","","","","","","","",""
"learning-trial","201","762790","0.0-9.0-2.0-1.57","1863","2","2","""event"",""trial"",""time""
""fullscreenenter"",""1"",""3356""
","
","
","""event"",""trial"",""time""
""fullscreenenter"",""1"",""3356""
","
","","","","","","1205.9000005722046","images/sheep5.png","","","learning","images/animals_choice3.png","images/animals_choice1.png","images/animals_choice2.png","[2,0,1]","0","1","1","images/animals_choice3.png","1","animals","","sheep","2","0"
"html-keyboard-response","202","763299","0.0-9.0-2.0-0.58","1863","2","2","""event"",""trial"",""time""
""fullscreenenter"",""1"",""3356""
","
","
","""event"",""trial"",""time""
""fullscreenenter"",""1"",""3356""
","
","","","","","","null","<div style=""font-size:60px;"">+</div>","null","","fixation","","","","","","","","","","","","","",""
"learning-trial","203","767307","0.0-9.0-2.0-1.58","1863","2","2","""event"",""trial"",""time""
""fullscreenenter"",""1"",""3356""
","
","
","""event"",""trial"",""time""
""fullscreenenter"",""1"",""3356""
","
","","","","","","1188.6999998092651","images/cow2.png","","","learning","images/animals_choice3.png","images/animals_choice1.png","images/animals_choice2.png","[2,0,1]","0","1","3","images/animals_choice2.png","-1","animals","","cow","2","0"
"html-keyboard-response","204","767813","0.0-9.0-2.0-0.59","1863","2","2","""event"",""trial"",""time""
""fullscreenenter"",""1"",""3356""
","
","
","""event"",""trial"",""time""
""fullscreenenter"",""1"",""3356""
","
","","","","","","null","<div style=""font-size:60px;"">+</div>","null","","fixation","","","","","","","","","","","","","",""
"learning-trial","205","771818","0.0-9.0-2.0-1.59","1863","2","2","""event"",""trial"",""time""
""fullscreenenter"",""1"",""3356""
","
","
","""event"",""trial"",""time""
""fullscreenenter"",""1"",""3356""
","
","","","","","","827.3999996185303","images/sheep5.png","","","learning","images/animals_choice3.png","images/animals_choice2.png","images/animals_choice1.png","[2,1,0]","0","2","1","images/animals_choice3.png","-1","animals","","sheep","2","0"
"html-keyboard-response","206","772324","0.0-9.0-2.0-0.60","1863","2","2","""event"",""trial"",""time""
""fullscreenenter"",""1"",""3356""
","
","
","""event"",""trial"",""time""
""fullscreenenter"",""1"",""3356""
","
","","","","","","null","<div style=""font-size:60px;"">+</div>","null","","fixation","","","","","","","","","","","","","",""
"learning-trial","207","776334","0.0-9.0-2.0-1.60","1863","2","2","""event"",""trial"",""time""
""fullscreenenter"",""1"",""3356""
","
","
","""event"",""trial"",""time""
""fullscreenenter"",""1"",""3356""
","
","","","","","","1747","images/cow4.png","","","learning","images/animals_choice2.png","images/animals_choice1.png","images/animals_choice3.png","[1,0,2]","1","0","1","images/animals_choice2.png","1","animals","","cow","2","0"
"html-keyboard-response","208","776844","0.0-9.0-2.0-0.61","1863","2","2","""event"",""trial"",""time""
""fullscreenenter"",""1"",""3356""
","
","
","""event"",""trial"",""time""
""fullscreenenter"",""1"",""3356""
","
","","","","","","null","<div style=""font-size:60px;"">+</div>","null","","fixation","","","","","","","","","","","","","",""
"learning-trial","209","780847","0.0-9.0-2.0-1.61","1863","2","2","""event"",""trial"",""time""
""fullscreenenter"",""1"",""3356""
","
","
","""event"",""trial"",""time""
""fullscreenenter"",""1"",""3356""
","
","","","","","","1223.4000005722046","images/cow1.png","","","learning","images/animals_choice2.png","images/animals_choice1.png","images/animals_choice3.png","[1,0,2]","2","2","2","images/animals_choice1.png","-1","animals","","cow","2","0"
"html-keyboard-response","210","781356","0.0-9.0-2.0-0.62","1863","2","2","""event"",""trial"",""time""
""fullscreenenter"",""1"",""3356""
","
","
","""event"",""trial"",""time""
""fullscreenenter"",""1"",""3356""
","
","","","","","","null","<div style=""font-size:60px;"">+</div>","null","","fixation","","","","","","","","","","","","","",""
"learning-trial","211","785366","0.0-9.0-2.0-1.62","1863","2","2","""event"",""trial"",""time""
""fullscreenenter"",""1"",""3356""
","
","
","""event"",""trial"",""time""
""fullscreenenter"",""1"",""3356""
","
","","","","","","1655","images/cow2.png","","","learning","images/animals_choice3.png","images/animals_choice2.png","images/animals_choice1.png","[2,1,0]","0","2","1","images/animals_choice3.png","-1","animals","","cow","2","0"
"html-keyboard-response","212","785874","0.0-9.0-2.0-0.63","1863","2","2","""event"",""trial"",""time""
""fullscreenenter"",""1"",""3356""
","
","
","""event"",""trial"",""time""
""fullscreenenter"",""1"",""3356""
","
","","","","","","null","<div style=""font-size:60px;"">+</div>","null","","fixation","","","","","","","","","","","","","",""
"learning-trial","213","789883","0.0-9.0-2.0-1.63","1863","2","2","""event"",""trial"",""time""
""fullscreenenter"",""1"",""3356""
","
","
","""event"",""trial"",""time""
""fullscreenenter"",""1"",""3356""
","
","","","","","","1311.1999998092651","images/cow2.png","","","learning","images/animals_choice3.png","images/animals_choice1.png","images/animals_choice2.png","[2,0,1]","0","1","2","images/animals_choice1.png","1","animals","","cow","2","0"
"html-keyboard-response","214","790389","0.0-9.0-2.0-0.64","1863","2","2","""event"",""trial"",""time""
""fullscreenenter"",""1"",""3356""
","
","
","""event"",""trial"",""time""
""fullscreenenter"",""1"",""3356""
","
","","","","","","null","<div style=""font-size:60px;"">+</div>","null","","fixation","","","","","","","","","","","","","",""
"learning-trial","215","794398","0.0-9.0-2.0-1.64","1863","2","2","""event"",""trial"",""time""
""fullscreenenter"",""1"",""3356""
","
","
","""event"",""trial"",""time""
""fullscreenenter"",""1"",""3356""
","
","","","","","","1473.6000003814697","images/cow1.png","","","learning","images/animals_choice2.png","images/animals_choice1.png","images/animals_choice3.png","[1,0,2]","2","2","2","images/animals_choice1.png","-1","animals","","cow","2","0"
"html-keyboard-response","216","794903","0.0-9.0-2.0-0.65","1863","2","2","""event"",""trial"",""time""
""fullscreenenter"",""1"",""3356""
","
","
","""event"",""trial"",""time""
""fullscreenenter"",""1"",""3356""
","
","","","","","","null","<div style=""font-size:60px;"">+</div>","null","","fixation","","","","","","","","","","","","","",""
"learning-trial","217","798914","0.0-9.0-2.0-1.65","1863","2","2","""event"",""trial"",""time""
""fullscreenenter"",""1"",""3356""
","
","
","""event"",""trial"",""time""
""fullscreenenter"",""1"",""3356""
","
","","","","","","1767.5999994277954","images/sheep3.png","","","learning","images/animals_choice2.png","images/animals_choice1.png","images/animals_choice3.png","[1,0,2]","2","2","3","images/animals_choice3.png","-1","animals","","sheep","2","0"
"html-keyboard-response","218","799423","0.0-9.0-2.0-0.66","1863","2","2","""event"",""trial"",""time""
""fullscreenenter"",""1"",""3356""
","
","
","""event"",""trial"",""time""
""fullscreenenter"",""1"",""3356""
","
","","","","","","null","<div style=""font-size:60px;"">+</div>","null","","fixation","","","","","","","","","","","","","",""
"learning-trial","219","803432","0.0-9.0-2.0-1.66","1863","2","2","""event"",""trial"",""time""
""fullscreenenter"",""1"",""3356""
","
","
","""event"",""trial"",""time""
""fullscreenenter"",""1"",""3356""
","
","","","","","","2058.6000003814697","images/goat5.png","","","learning","images/animals_choice1.png","images/animals_choice2.png","images/animals_choice3.png","[0,1,2]","0","0","1","images/animals_choice1.png","1","animals","","goat","2","0"
"html-keyboard-response","220","803937","0.0-9.0-2.0-0.67","1863","2","2","""event"",""trial"",""time""
""fullscreenenter"",""1"",""3356""
","
","
","""event"",""trial"",""time""
""fullscreenenter"",""1"",""3356""
","
","","","","","","null","<div style=""font-size:60px;"">+</div>","null","","fixation","","","","","","","","","","","","","",""
"learning-trial","221","807951","0.0-9.0-2.0-1.67","1863","2","2","""event"",""trial"",""time""
""fullscreenenter"",""1"",""3356""
","
","
","""event"",""trial"",""time""
""fullscreenenter"",""1"",""3356""
","
","","","","","","1511.8000001907349","images/cow2.png","","","learning","images/animals_choice1.png","images/animals_choice2.png","images/animals_choice3.png","[0,1,2]","0","0","2","images/animals_choice2.png","-1","animals","","cow","2","0"
"html-keyboard-response","222","808465","0.0-9.0-2.0-0.68","1863","2","2","""event"",""trial"",""time""
""fullscreenenter"",""1"",""3356""
","
","
","""event"",""trial"",""time""
""fullscreenenter"",""1"",""3356""
","
","","","","","","null","<div style=""font-size:60px;"">+</div>","null","","fixation","","","","","","","","","","","","","",""
"learning-trial","223","812469","0.0-9.0-2.0-1.68","1863","2","2","""event"",""trial"",""time""
""fullscreenenter"",""1"",""3356""
","
","
","""event"",""trial"",""time""
""fullscreenenter"",""1"",""3356""
","
","","","","","","972.5999994277954","images/goat1.png","","","learning","images/animals_choice1.png","images/animals_choice3.png","images/animals_choice2.png","[0,2,1]","1","2","1","images/animals_choice1.png","-1","animals","","goat","2","0"
"html-keyboard-response","224","812973","0.0-9.0-2.0-0.69","1863","2","2","""event"",""trial"",""time""
""fullscreenenter"",""1"",""3356""
","
","
","""event"",""trial"",""time""
""fullscreenenter"",""1"",""3356""
","
","","","","","","null","<div style=""font-size:60px;"">+</div>","null","","fixation","","","","","","","","","","","","","",""
"learning-trial","225","816990","0.0-9.0-2.0-1.69","1863","2","2","""event"",""trial"",""time""
""fullscreenenter"",""1"",""3356""
","
","
","""event"",""trial"",""time""
""fullscreenenter"",""1"",""3356""
","
","","","","","","516.9000005722046","images/sheep1.png","","","learning","images/animals_choice3.png","images/animals_choice1.png","images/animals_choice2.png","[2,0,1]","1","2","3","images/animals_choice2.png","1","animals","","sheep","2","0"
"html-keyboard-response","226","817496","0.0-9.0-2.0-0.70","1863","2","2","""event"",""trial"",""time""
""fullscreenenter"",""1"",""3356""
","
","
","""event"",""trial"",""time""
""fullscreenenter"",""1"",""3356""
","
","","","","","","null","<div style=""font-size:60px;"">+</div>","null","","fixation","","","","","","","","","","","","","",""
"learning-trial","227","821504","0.0-9.0-2.0-1.70","1863","2","2","""event"",""trial"",""time""
""fullscreenenter"",""1"",""3356""
","
","
","""event"",""trial"",""time""
""fullscreenenter"",""1"",""3356""
","
","","","","","","490.6000003814697","images/sheep1.png","","","learning","images/animals_choice3.png","images/animals_choice2.png","images/animals_choice1.png","[2,1,0]","1","1","3","images/animals_choice1.png","-1","animals","","sheep","2","0"
"html-keyboard-response","228","822012","0.0-9.0-2.0-0.71","1863","2","2","""event"",""trial"",""time""
""fullscreenenter"",""1"",""3356""
","
","
","""event"",""trial"",""time""
""fullscreenenter"",""1"",""3356""
","
","","","","","","null","<div style=""font-size:60px;"">+</div>","null","","fixation","","","","","","","","","","","","","",""
"learning-trial","229","826022","0.0-9.0-2.0-1.71","1863","2","2","""event"",""trial"",""time""
""fullscreenenter"",""1"",""3356""
","
","
","""event"",""trial"",""time""
""fullscreenenter"",""1"",""3356""
","
","","","","","","1172.8000001907349","images/sheep3.png","","","learning","images/animals_choice2.png","images/animals_choice1.png","images/animals_choice3.png","[1,0,2]","2","2","1","images/animals_choice2.png","-1","animals","","sheep","2","0"
"html-button-response","230","842477","0.0-9.0-3.0","1863","2","2","""event"",""trial"",""time""
""fullscreenenter"",""1"",""3356""
","
","
","""event"",""trial"",""time""
""fullscreenenter"",""1"",""3356""
","
","","","","","","16450.699999809265","<p> You have completed the round! <p> In this round, you earned -16 points! </p>","0","","break","","","","","","","","","","","","","",""
"html-button-response","231","844100","0.0-10.0","1863","2","2","""event"",""trial"",""time""
""fullscreenenter"",""1"",""3356""
","
","
","""event"",""trial"",""time""
""fullscreenenter"",""1"",""3356""
","
","","","","","","1621.3999996185303","<p> Now it's time to play another round. </p>","0","","transition_screen","","","","","","","","","","","","","",""
"preload","232","855695","0.0-11.0-0.0","1863","2","2","""event"",""trial"",""time""
""fullscreenenter"",""1"",""3356""
","
","
","""event"",""trial"",""time""
""fullscreenenter"",""1"",""3356""
","
","true","false","[]","[]","[]","","","","","","","","","","","","","","","","","","",""
"learning-instructions","233","864566","0.0-11.0-1.0-0.0","1863","2","2","""event"",""trial"",""time""
""fullscreenenter"",""1"",""3356""
","
","
","""event"",""trial"",""time""
""fullscreenenter"",""1"",""3356""
","
","","","","","","2078.300000190735","<p> Your goal in this round is to buy different types of fruits. </p><p> You will try to purchase many fruits from different stores. </p></div>","","0","instructions","","","","","","","","","","","","","",""
"learning-instructions","234","873807","0.0-11.0-1.0-0.1","1863","2","2","""event"",""trial"",""time""
""fullscreenenter"",""1"",""3356""
","
","
","""event"",""trial"",""time""
""fullscreenenter"",""1"",""3356""
","
","","","","","","739","<p> On each turn, you will see a picture of a fruit and three different stores.  </p><p> You need to select the store where you can buy that fruit.  </p>","","0","instructions","","","","","","","","","","","","","",""
"learning-instructions","235","882290","0.0-11.0-1.0-0.2","1863","2","2","""event"",""trial"",""time""
""fullscreenenter"",""1"",""3356""
","
","
","""event"",""trial"",""time""
""fullscreenenter"",""1"",""3356""
","
