"trial_type","trial_index","time_elapsed","internal_node_id","subject_id","condition","task_version","interactions","blur_events","focus_events","fullscreenenter_events","fullscreenexit_events","success","timeout","failed_images","failed_audio","failed_video","rt","stimulus","response","button_pressed","task_part","left_choice","middle_choice","right_choice","choice_positions","correct_response","correct_position","key_press","option_selected","points","task_block","correct","stim_cat","block_condition","block_number"
"pavlovia","0","4","0.0-0.0","1420","2","2","""event"",""trial"",""time""
""fullscreenenter"",""1"",""2190""
","
","
","""event"",""trial"",""time""
""fullscreenenter"",""1"",""2190""
","
","","","","","","","","","","","","","","","","","","","","","","","",""
"fullscreen","1","3182","0.0-1.0","1420","2","2","""event"",""trial"",""time""
""fullscreenenter"",""1"",""2190""
","
","
","""event"",""trial"",""time""
""fullscreenenter"",""1"",""2190""
","
","true","","","","","","","","","","","","","","","","","","","","","","",""
"preload","2","8144","0.0-2.0","1420","2","2","""event"",""trial"",""time""
""fullscreenenter"",""1"",""2190""
","
","
","""event"",""trial"",""time""
""fullscreenenter"",""1"",""2190""
","
","true","false","[]","[]","[]","","","","","","","","","","","","","","","","","","",""
"audio-keyboard-response","3","16307","0.0-3.0","1420","2","2","""event"",""trial"",""time""
""fullscreenenter"",""1"",""2190""
","
","
","""event"",""trial"",""time""
""fullscreenenter"",""1"",""2190""
","
","","","","","","8170.666666666666","audio/beep_loop.wav"," ","","","","","","","","","","","","","","","",""
"audio-button-response","4","19386","0.0-4.0","1420","2","2","""event"",""trial"",""time""
""fullscreenenter"",""1"",""2190""
","
","
","""event"",""trial"",""time""
""fullscreenenter"",""1"",""2190""
","
","","","","","","3072","audio/shark.wav","4","","","","","","","","","","","","","","","",""
"audio-button-response","5","23548","0.0-5.0","1420","2","2","""event"",""trial"",""time""
""fullscreenenter"",""1"",""2190""
","
","
","""event"",""trial"",""time""
""fullscreenenter"",""1"",""2190""
","
","","","","","","3136","audio/turtle.wav","1","","","","","","","","","","","","","","","",""
"preload","6","28997","0.0-6.0","1420","2","2","""event"",""trial"",""time""
""fullscreenenter"",""1"",""2190""
","
","
","""event"",""trial"",""time""
""fullscreenenter"",""1"",""2190""
","
","true","false","[]","[]","[]","","","","","","","","","","","","","","","","","","",""
"html-keyboard-response","7","32419","0.0-7.0","1420","2","2","""event"",""trial"",""time""
""fullscreenenter"",""1"",""2190""
","
","
","""event"",""trial"",""time""
""fullscreenenter"",""1"",""2190""
","
","","","","","","3420.220000000001","Welcome to the experiment. Press any key to begin and to advance the instructions."," ","","","","","","","","","","","","","","","",""
"learning-instructions","8","42146","0.0-8.0-0.0-0.0","1420","2","2","""event"",""trial"",""time""
""fullscreenenter"",""1"",""2190""
","
","
","""event"",""trial"",""time""
""fullscreenenter"",""1"",""2190""
","
","","","","","","1976.24500000001","<p> Welcome! Today you are going to play 6 different rounds of a decision-making game. </p><p> Use the mouse to click next to continue. </p>","","0","instructions","","","","","","","","","","","","","",""
"learning-instructions","9","47162","0.0-8.0-0.0-0.1","1420","2","2","""event"",""trial"",""time""
""fullscreenenter"",""1"",""2190""
","
","
","""event"",""trial"",""time""
""fullscreenenter"",""1"",""2190""
","
","","","","","","2011.034999999989","<p> You will start with a practice round to learn the rules. </p>","","0","instructions","","","","","","","","","","","","","",""
"learning-instructions","10","56778","0.0-8.0-0.0-0.2","1420","2","2","""event"",""trial"",""time""
""fullscreenenter"",""1"",""2190""
","
","
","""event"",""trial"",""time""
""fullscreenenter"",""1"",""2190""
","
","","","","","","1867.5200000000186","<p> Your goal in this round is to deliver sports equipment to three different parks. </p><p> You will need to deliver many types of equipment. </p></div>","","0","instructions","","","","","","","","","","","","","",""
"learning-instructions","11","66213","0.0-8.0-0.0-0.3","1420","2","2","""event"",""trial"",""time""
""fullscreenenter"",""1"",""2190""
","
","
","""event"",""trial"",""time""
""fullscreenenter"",""1"",""2190""
","
","","","","","","942.1049999999668","<p> On each turn, you will see one piece of sports equipment and three different parks.  </p><p> You need to select which park to deliver the equipment to.  </p>","","0","instructions","","","","","","","","","","","","","",""
"learning-instructions","12","82636","0.0-8.0-0.0-0.4","1420","2","2","""event"",""trial"",""time""
""fullscreenenter"",""1"",""2190""
","
","
","""event"",""trial"",""time""
""fullscreenenter"",""1"",""2190""
","
","","","","","","3124.835000000021","<p> You can select the park on the left by pressing the '1' key on your keyboard. <br>You can select the park in the middle by pressing the '2' key on your keyboard. <br>You can select the park on the right by pressing the '3' key on your keyboard.  </p><br><div class=""choice-instructions-grid""> <div class=""choice-option""><img src=""images/park1.png"" class=""choice-option-img"" stage=""instructions"" position=""0"" ><div class=""choice-option-text""> Press ""1."" </div></div><div class=""choice-option""><img src=""images/park2.png"" class=""choice-option-img"" stage=""instructions"" position=""1"" ><div class=""choice-option-text""> Press ""2."" </div></div><div class=""choice-option""><img src=""images/park3.png"" class=""choice-option-img"" stage=""instructions"" position=""2"" ><div class=""choice-option-text""> Press ""3."" </div></div></div>","","0","instructions","","","","","","","","","","","","","",""
"learning-instructions","13","89461","0.0-8.0-0.0-0.5","1420","2","2","""event"",""trial"",""time""
""fullscreenenter"",""1"",""2190""
","
","
","""event"",""trial"",""time""
""fullscreenenter"",""1"",""2190""
","
","","","","","","1437.8399999999965","<p> If the kids in the park you chose like the equipment, they will be very happy! </p><div style='float: center;'><img src='images/check.png' width = '200' height = '200'></img>","","0","instructions","","","","","","","","","","","","","",""
"learning-instructions","14","96844","0.0-8.0-0.0-0.6","1420","2","2","""event"",""trial"",""time""
""fullscreenenter"",""1"",""2190""
","
","
","""event"",""trial"",""time""
""fullscreenenter"",""1"",""2190""
","
","","","","","","1792.0849999999919","<p> But, if the kids in the park you chose do not like the equipment, they will be sad. </p><div style='float: center;'><img src='images/x.png' width = '200' height = '200'></img>","","0","instructions","","","","","","","","","","","","","",""
"learning-instructions","15","104420","0.0-8.0-0.0-0.7","1420","2","2","""event"",""trial"",""time""
""fullscreenenter"",""1"",""2190""
","
","
","""event"",""trial"",""time""
""fullscreenenter"",""1"",""2190""
","
","","","","","","1144.594999999972","<p> Importantly, the kids in each park like some pieces of sports equipment more than others. </p>","","0","instructions","","","","","","","","","","","","","",""
"learning-instructions","16","112469","0.0-8.0-0.0-0.8","1420","2","2","""event"",""trial"",""time""
""fullscreenenter"",""1"",""2190""
","
","
","""event"",""trial"",""time""
""fullscreenenter"",""1"",""2190""
","
","","","","","","1992.9850000000297","<p> If you choose the best park for each piece of equipment, the kids there will usually be happy. </p>","","0","instructions","","","","","","","","","","","","","",""
"learning-instructions","17","121476","0.0-8.0-0.0-0.9","1420","2","2","""event"",""trial"",""time""
""fullscreenenter"",""1"",""2190""
","
","
","""event"",""trial"",""time""
""fullscreenenter"",""1"",""2190""
","
","","","","","","2349.9850000000006","<p> However, even if you choose the best park for the equipment, the kids may sometimes be sad. </p>","","0","instructions","","","","","","","","","","","","","",""
"learning-instructions","18","130964","0.0-8.0-0.0-0.10","1420","2","2","""event"",""trial"",""time""
""fullscreenenter"",""1"",""2190""
","
","
","""event"",""trial"",""time""
""fullscreenenter"",""1"",""2190""
","
","","","","","","2259.15999999996","<p> Similarly, even if you choose the <i>wrong</i> park for the equipment, the kids may still be happy sometimes.","","0","instructions","","","","","","","","","","","","","",""
"learning-instructions","19","137556","0.0-8.0-0.0-0.11","1420","2","2","""event"",""trial"",""time""
""fullscreenenter"",""1"",""2190""
","
","
","""event"",""trial"",""time""
""fullscreenenter"",""1"",""2190""
","
","","","","","","1534.1599999999744","<p> For example, the best park for this soccer ball is this one.<div style='float: center;'><img src='images/i1.png' width = '500' height = '268'></img>","","0","instructions","","","","","","","","","","","","","",""
"learning-instructions","20","144588","0.0-8.0-0.0-0.12","1420","2","2","""event"",""trial"",""time""
""fullscreenenter"",""1"",""2190""
","
","
","""event"",""trial"",""time""
""fullscreenenter"",""1"",""2190""
","
","","","","","","1739.109999999986","<p> Let's see what happens if you choose this park for the soccer ball five times.","","0","instructions","","","","","","","","","","","","","",""
"learning-instructions","21","148459","0.0-8.0-0.0-0.13","1420","2","2","""event"",""trial"",""time""
""fullscreenenter"",""1"",""2190""
","
","
","""event"",""trial"",""time""
""fullscreenenter"",""1"",""2190""
","
","","","","","","1685.3800000000047","<p> The kids are happy.<div style='float: left;'><img src='images/i2.png' width = '640' height = '360'></img>","","0","instructions","","","","","","","","","","","","","",""
"learning-instructions","22","151700","0.0-8.0-0.0-0.14","1420","2","2","""event"",""trial"",""time""
""fullscreenenter"",""1"",""2190""
","
","
","""event"",""trial"",""time""
""fullscreenenter"",""1"",""2190""
","
","","","","","","1053.609999999986","<p> The kids are happy.<div style='float: left;'><img src='images/i3.png' width = '640' height = '360'></img>","","0","instructions","","","","","","","","","","","","","",""
"learning-instructions","23","155348","0.0-8.0-0.0-0.15","1420","2","2","""event"",""trial"",""time""
""fullscreenenter"",""1"",""2190""
","
","
","""event"",""trial"",""time""
""fullscreenenter"",""1"",""2190""
","
","","","","","","1470.0499999999593","<p> The kids are happy.<div style='float: left;'><img src='images/i4.png' width = '640' height = '360'></img>","","0","instructions","","","","","","","","","","","","","",""
"learning-instructions","24","158276","0.0-8.0-0.0-0.16","1420","2","2","""event"",""trial"",""time""
""fullscreenenter"",""1"",""2190""
","
","
","""event"",""trial"",""time""
""fullscreenenter"",""1"",""2190""
","
","","","","","","717.7200000000012","<p> The kids are sad.<div style='float: left;'><img src='images/i5.png' width = '640' height = '360'></img>","","0","instructions","","","","","","","","","","","","","",""
"learning-instructions","25","161036","0.0-8.0-0.0-0.17","1420","2","2","""event"",""trial"",""time""
""fullscreenenter"",""1"",""2190""
","
","
","""event"",""trial"",""time""
""fullscreenenter"",""1"",""2190""
","
","","","","","","586.75","<p> The kids are happy.<div style='float: left;'><img src='images/i6.png' width = '640' height = '360'></img>","","0","instructions","","","","","","","","","","","","","",""
"learning-instructions","26","175332","0.0-8.0-0.0-0.18","1420","2","2","""event"",""trial"",""time""
""fullscreenenter"",""1"",""2190""
","
","
","""event"",""trial"",""time""
""fullscreenenter"",""1"",""2190""
","
","","","","","","7011.219999999972","<p> As you can see, selecting that park for the soccer ball made the kids happy most of the time, but not all the time.","","0","instructions","","","","","","","","","","","","","",""
"learning-instructions","27","182667","0.0-8.0-0.0-0.19","1420","2","2","""event"",""trial"",""time""
""fullscreenenter"",""1"",""2190""
","
","
","""event"",""trial"",""time""
""fullscreenenter"",""1"",""2190""
","
","","","","","","1333.8399999999965","<p> Now let's see what happens if you choose a DIFFERENT park for the soccer ball 5 times.","","0","instructions","","","","","","","","","","","","","",""
"learning-instructions","28","192170","0.0-8.0-0.0-0.20","1420","2","2","""event"",""trial"",""time""
""fullscreenenter"",""1"",""2190""
","
","
","""event"",""trial"",""time""
""fullscreenenter"",""1"",""2190""
","
","","","","","","7295.779999999999","<p> The kids are sad.<div style='float: left;'><img src='images/i7.png' width = '640' height = '360'></img>","","0","instructions","","","","","","","","","","","","","",""
"learning-instructions","29","195187","0.0-8.0-0.0-0.21","1420","2","2","""event"",""trial"",""time""
""fullscreenenter"",""1"",""2190""
","
","
","""event"",""trial"",""time""
""fullscreenenter"",""1"",""2190""
","
","","","","","","808.7050000000454","<p> The kids are sad.<div style='float: left;'><img src='images/i8.png' width = '640' height = '360'></img>","","0","instructions","","","","","","","","","","","","","",""
"learning-instructions","30","198282","0.0-8.0-0.0-0.22","1420","2","2","""event"",""trial"",""time""
""fullscreenenter"",""1"",""2190""
","
","
","""event"",""trial"",""time""
""fullscreenenter"",""1"",""2190""
","
","","","","","","906.8550000000105","<p> The kids are happy.<div style='float: left;'><img src='images/i9.png' width = '640' height = '360'></img>","","0","instructions","","","","","","","","","","","","","",""
"learning-instructions","31","201187","0.0-8.0-0.0-0.23","1420","2","2","""event"",""trial"",""time""
""fullscreenenter"",""1"",""2190""
","
","
","""event"",""trial"",""time""
""fullscreenenter"",""1"",""2190""
","
","","","","","","686.4099999999744","<p> The kids are sad.<div style='float: left;'><img src='images/i10.png' width = '640' height = '360'></img>","","0","instructions","","","","","","","","","","","","","",""
"learning-instructions","32","205580","0.0-8.0-0.0-0.24","1420","2","2","""event"",""trial"",""time""
""fullscreenenter"",""1"",""2190""
","
","
","""event"",""trial"",""time""
""fullscreenenter"",""1"",""2190""
","
","","","","","","2176.100000000035","<p> The kids are sad.<div style='float: left;'><img src='images/i11.png' width = '640' height = '360'></img>","","0","instructions","","","","","","","","","","","","","",""
"learning-instructions","33","215819","0.0-8.0-0.0-0.25","1420","2","2","""event"",""trial"",""time""
""fullscreenenter"",""1"",""2190""
","
","
","""event"",""trial"",""time""
""fullscreenenter"",""1"",""2190""
","
","","","","","","2101.5599999999977","<p> As you can see, selecting the wrong park for the soccer ball made the kids sad most of the time, but not all the time.","","0","instructions","","","","","","","","","","","","","",""
"learning-instructions","34","227251","0.0-8.0-0.0-0.26","1420","2","2","""event"",""trial"",""time""
""fullscreenenter"",""1"",""2190""
","
","
","""event"",""trial"",""time""
""fullscreenenter"",""1"",""2190""
","
","","","","","","2312.50999999998","<p> The different pieces of equipment belong in different parks. You need to try to learn which is the best park for each piece of equipment.","","0","instructions","","","","","","","","","","","","","",""
"learning-instructions","35","245603","0.0-8.0-0.0-0.27","1420","2","2","""event"",""trial"",""time""
""fullscreenenter"",""1"",""2190""
","
","
","""event"",""trial"",""time""
""fullscreenenter"",""1"",""2190""
","
","","","","","","1944.4550000000163","<p> Try to choose the best park for each piece of equipment, because you will <b> WIN </b> 1 point for each time you make the kids happy and <b>LOSE</b> 1 point for each time you make them sad. </p><p> Remember, if you make the best choice, you will win 1 point most of the time, but not all the time. </p>","","0","instructions","","","","","","","","","","","","","",""
"learning-instructions","36","253227","0.0-8.0-0.0-0.28","1420","2","2","""event"",""trial"",""time""
""fullscreenenter"",""1"",""2190""
","
","
","""event"",""trial"",""time""
""fullscreenenter"",""1"",""2190""
","
","","","","","","2133.7149999999965","<p> This is just a practice round, but in the real game, your bonus payment will depend on your total number of points.","","0","instructions","","","","","","","","","","","","","",""
"learning-instructions","37","264539","0.0-8.0-0.0-0.29","1420","2","2","""event"",""trial"",""time""
""fullscreenenter"",""1"",""2190""
","
","
","""event"",""trial"",""time""
""fullscreenenter"",""1"",""2190""
","
","","","","","","986.9200000000419","<p> The position where each park appears will change throughout the game. </p><p> The position where the park appears <i> does not </i> influence how likely the kids are to be happy or sad. </p>","","0","instructions","","","","","","","","","","","","","",""
"learning-instructions","38","276451","0.0-8.0-0.0-0.30","1420","2","2","""event"",""trial"",""time""
""fullscreenenter"",""1"",""2190""
","
","
","""event"",""trial"",""time""
""fullscreenenter"",""1"",""2190""
","
","","","","","","974.2200000000303","<p> You will have 4 seconds to make each choice. Try to respond before time runs out! </p><p> You will lose 1 point each time you do not make a response. </p>","","0","instructions","","","","","","","","","","","","","",""
"learning-instructions","39","284563","0.0-8.0-0.0-0.31","1420","2","2","""event"",""trial"",""time""
""fullscreenenter"",""1"",""2190""
","
","
","""event"",""trial"",""time""
""fullscreenenter"",""1"",""2190""
","
","","","","","","1309.4700000000303","<p> Remember, you should use the 1, 2, and 3 keys to select the park for each piece of equipment. </p><br><div class=""choice-instructions-grid""> <div class=""choice-option""><img src=""images/park1.png"" class=""choice-option-img"" stage=""instructions"" position=""0"" ><div class=""choice-option-text""> Press ""1."" </div></div><div class=""choice-option""><img src=""images/park2.png"" class=""choice-option-img"" stage=""instructions"" position=""1"" ><div class=""choice-option-text""> Press ""2."" </div></div><div class=""choice-option""><img src=""images/park3.png"" class=""choice-option-img"" stage=""instructions"" position=""2"" ><div class=""choice-option-text""> Press ""3."" </div></div></div>","","0","instructions","","","","","","","","","","","","","",""
"html-button-response","40","286443","0.0-8.0-1.0","1420","2","2","""event"",""trial"",""time""
""fullscreenenter"",""1"",""2190""
","
","
","""event"",""trial"",""time""
""fullscreenenter"",""1"",""2190""
","
","","","","","","1760.5899999999674","<p> Ready to practice? </p>","0","","","","","","","","","","","","","","","",""
"html-keyboard-response","41","287070","0.0-8.0-2.0-0.0","1420","2","2","""event"",""trial"",""time""
""fullscreenenter"",""1"",""2190""
","
","
","""event"",""trial"",""time""
""fullscreenenter"",""1"",""2190""
","
","","","","","","null","<div style=""font-size:60px;"">+</div>","null","","fixation","","","","","","","","","","","","","",""
"learning-trial","42","291081","0.0-8.0-2.0-1.0","1420","2","2","""event"",""trial"",""time""
""fullscreenenter"",""1"",""2190""
","
","
","""event"",""trial"",""time""
""fullscreenenter"",""1"",""2190""
","
","","","","","","3403.564999999944","images/ball3.png","","","practice","images/park2.png","images/park3.png","images/park1.png","[1,2,0]","1","0","2","images/park3.png","-1","practice","","","",""
"html-keyboard-response","43","291593","0.0-8.0-2.0-0.1","1420","2","2","""event"",""trial"",""time""
""fullscreenenter"",""1"",""2190""
","
","
","""event"",""trial"",""time""
""fullscreenenter"",""1"",""2190""
","
","","","","","","null","<div style=""font-size:60px;"">+</div>","null","","fixation","","","","","","","","","","","","","",""
"learning-trial","44","295614","0.0-8.0-2.0-1.1","1420","2","2","""event"",""trial"",""time""
""fullscreenenter"",""1"",""2190""
","
","
","""event"",""trial"",""time""
""fullscreenenter"",""1"",""2190""
","
","","","","","","null","images/ball1.png","","","practice","images/park1.png","images/park2.png","images/park3.png","[0,1,2]","2","2","null","null","-1","practice","","","",""
"html-keyboard-response","45","296126","0.0-8.0-2.0-0.2","1420","2","2","""event"",""trial"",""time""
""fullscreenenter"",""1"",""2190""
","
","
","""event"",""trial"",""time""
""fullscreenenter"",""1"",""2190""
","
","","","","","","null","<div style=""font-size:60px;"">+</div>","null","","fixation","","","","","","","","","","","","","",""
"learning-trial","46","300137","0.0-8.0-2.0-1.2","1420","2","2","""event"",""trial"",""time""
""fullscreenenter"",""1"",""2190""
","
","
","""event"",""trial"",""time""
""fullscreenenter"",""1"",""2190""
","
","","","","","","2647.5100000000093","images/racket1.png","","","practice","images/park3.png","images/park2.png","images/park1.png","[2,1,0]","1","1","1","images/park3.png","-1","practice","","","",""
"html-keyboard-response","47","300648","0.0-8.0-2.0-0.3","1420","2","2","""event"",""trial"",""time""
""fullscreenenter"",""1"",""2190""
","
","
","""event"",""trial"",""time""
""fullscreenenter"",""1"",""2190""
","
","","","","","","null","<div style=""font-size:60px;"">+</div>","null","","fixation","","","","","","","","","","","","","",""
"learning-trial","48","304662","0.0-8.0-2.0-1.3","1420","2","2","""event"",""trial"",""time""
""fullscreenenter"",""1"",""2190""
","
","
","""event"",""trial"",""time""
""fullscreenenter"",""1"",""2190""
","
","","","","","","3288.4249999999884","images/racket3.png","","","practice","images/park3.png","images/park1.png","images/park2.png","[2,0,1]","0","1","3","images/park2.png","-1","practice","","","",""
"html-keyboard-response","49","305167","0.0-8.0-2.0-0.4","1420","2","2","""event"",""trial"",""time""
""fullscreenenter"",""1"",""2190""
","
","
","""event"",""trial"",""time""
""fullscreenenter"",""1"",""2190""
","
","","","","","","null","<div style=""font-size:60px;"">+</div>","null","","fixation","","","","","","","","","","","","","",""
"learning-trial","50","309189","0.0-8.0-2.0-1.4","1420","2","2","""event"",""trial"",""time""
""fullscreenenter"",""1"",""2190""
","
","
","""event"",""trial"",""time""
""fullscreenenter"",""1"",""2190""
","
","","","","","","2481.5650000000023","images/racket4.png","","","practice","images/park1.png","images/park3.png","images/park2.png","[0,2,1]","0","0","2","images/park3.png","-1","practice","","","",""
"html-keyboard-response","51","309708","0.0-8.0-2.0-0.5","1420","2","2","""event"",""trial"",""time""
""fullscreenenter"",""1"",""2190""
","
","
","""event"",""trial"",""time""
""fullscreenenter"",""1"",""2190""
","
","","","","","","null","<div style=""font-size:60px;"">+</div>","null","","fixation","","","","","","","","","","","","","",""
"learning-trial","52","313714","0.0-8.0-2.0-1.5","1420","2","2","""event"",""trial"",""time""
""fullscreenenter"",""1"",""2190""
","
","
","""event"",""trial"",""time""
""fullscreenenter"",""1"",""2190""
","
","","","","","","1465.100000000035","images/racket4.png","","","practice","images/park3.png","images/park1.png","images/park2.png","[2,0,1]","0","1","3","images/park2.png","-1","practice","","","",""
"html-keyboard-response","53","314219","0.0-8.0-2.0-0.6","1420","2","2","""event"",""trial"",""time""
""fullscreenenter"",""1"",""2190""
","
","
","""event"",""trial"",""time""
""fullscreenenter"",""1"",""2190""
","
","","","","","","null","<div style=""font-size:60px;"">+</div>","null","","fixation","","","","","","","","","","","","","",""
"learning-trial","54","318231","0.0-8.0-2.0-1.6","1420","2","2","""event"",""trial"",""time""
""fullscreenenter"",""1"",""2190""
","
","
","""event"",""trial"",""time""
""fullscreenenter"",""1"",""2190""
","
","","","","","","1498.9350000000559","images/ball4.png","","","practice","images/park2.png","images/park1.png","images/park3.png","[1,0,2]","2","2","2","images/park1.png","-1","practice","","","",""
"html-keyboard-response","55","318743","0.0-8.0-2.0-0.7","1420","2","2","""event"",""trial"",""time""
""fullscreenenter"",""1"",""2190""
","
","
","""event"",""trial"",""time""
""fullscreenenter"",""1"",""2190""
","
","","","","","","null","<div style=""font-size:60px;"">+</div>","null","","fixation","","","","","","","","","","","","","",""
"learning-trial","56","322746","0.0-8.0-2.0-1.7","1420","2","2","""event"",""trial"",""time""
""fullscreenenter"",""1"",""2190""
","
","
","""event"",""trial"",""time""
""fullscreenenter"",""1"",""2190""
","
","","","","","","1768.6149999999907","images/racket3.png","","","practice","images/park1.png","images/park2.png","images/park3.png","[0,1,2]","0","0","1","images/park1.png","-1","practice","","","",""
"html-keyboard-response","57","323254","0.0-8.0-2.0-0.8","1420","2","2","""event"",""trial"",""time""
""fullscreenenter"",""1"",""2190""
","
","
","""event"",""trial"",""time""
""fullscreenenter"",""1"",""2190""
","
","","","","","","null","<div style=""font-size:60px;"">+</div>","null","","fixation","","","","","","","","","","","","","",""
"learning-trial","58","327265","0.0-8.0-2.0-1.8","1420","2","2","""event"",""trial"",""time""
""fullscreenenter"",""1"",""2190""
","
","
","""event"",""trial"",""time""
""fullscreenenter"",""1"",""2190""
","
","","","","","","948.0750000000116","images/racket1.png","","","practice","images/park2.png","images/park1.png","images/park3.png","[1,0,2]","1","0","2","images/park1.png","1","practice","","","",""
"html-keyboard-response","59","327773","0.0-8.0-2.0-0.9","1420","2","2","""event"",""trial"",""time""
""fullscreenenter"",""1"",""2190""
","
","
","""event"",""trial"",""time""
""fullscreenenter"",""1"",""2190""
","
","","","","","","null","<div style=""font-size:60px;"">+</div>","null","","fixation","","","","","","","","","","","","","",""
"learning-trial","60","331781","0.0-8.0-2.0-1.9","1420","2","2","""event"",""trial"",""time""
""fullscreenenter"",""1"",""2190""
","
","
","""event"",""trial"",""time""
""fullscreenenter"",""1"",""2190""
","
","","","","","","1154.3899999998976","images/ball4.png","","","practice","images/park1.png","images/park2.png","images/park3.png","[0,1,2]","2","2","1","images/park1.png","-1","practice","","","",""
"html-keyboard-response","61","332288","0.0-8.0-2.0-0.10","1420","2","2","""event"",""trial"",""time""
""fullscreenenter"",""1"",""2190""
","
","
","""event"",""trial"",""time""
""fullscreenenter"",""1"",""2190""
","
","","","","","","null","<div style=""font-size:60px;"">+</div>","null","","fixation","","","","","","","","","","","","","",""
"learning-trial","62","336293","0.0-8.0-2.0-1.10","1420","2","2","""event"",""trial"",""time""
""fullscreenenter"",""1"",""2190""
","
","
","""event"",""trial"",""time""
""fullscreenenter"",""1"",""2190""
","
","","","","","","1920.210000000021","images/ball3.png","","","practice","images/park1.png","images/park3.png","images/park2.png","[0,2,1]","1","2","2","images/park3.png","-1","practice","","","",""
"html-keyboard-response","63","336802","0.0-8.0-2.0-0.11","1420","2","2","""event"",""trial"",""time""
""fullscreenenter"",""1"",""2190""
","
","
","""event"",""trial"",""time""
""fullscreenenter"",""1"",""2190""
","
","","","","","","null","<div style=""font-size:60px;"">+</div>","null","","fixation","","","","","","","","","","","","","",""
"learning-trial","64","340811","0.0-8.0-2.0-1.11","1420","2","2","""event"",""trial"",""time""
""fullscreenenter"",""1"",""2190""
","
","
","""event"",""trial"",""time""
""fullscreenenter"",""1"",""2190""
","
","","","","","","996.9799999999814","images/ball1.png","","","practice","images/park1.png","images/park3.png","images/park2.png","[0,2,1]","2","1","3","images/park2.png","-1","practice","","","",""
"html-button-response","65","343695","0.0-8.0-3.0","1420","2","2","""event"",""trial"",""time""
""fullscreenenter"",""1"",""2190""
","
","
","""event"",""trial"",""time""
""fullscreenenter"",""1"",""2190""
","
","","","","","","2881.4250000000466","<p> You earned -10 points in the practice round! </p>","0","","break","","","","","","","","","","","","","",""
"learning-instructions","66","355463","0.0-8.0-4.0-0.0","1420","2","2","""event"",""trial"",""time""
""fullscreenenter"",""1"",""2190""
","
","
","""event"",""trial"",""time""
""fullscreenenter"",""1"",""2190""
","
","","","","","","3402.1049999999814","<p> It's almost time to start the real game. </p><p> Before you start, we're going to ask you a few questions about how the game works. </p>","","0","instructions","","","","","","","","","","","","","",""
"preload","67","357343","0.0-8.0-5.0","1420","2","2","""event"",""trial"",""time""
""fullscreenenter"",""1"",""2190""
","
","
","""event"",""trial"",""time""
""fullscreenenter"",""1"",""2190""
","
","true","false","[]","[]","[]","","","","","","","","","","","","","","","","","","",""
"comp-q","68","365925","0.0-8.0-6.0-0.0","1420","2","2","""event"",""trial"",""time""
""fullscreenenter"",""1"",""2190""
","
","
","""event"",""trial"",""time""
""fullscreenenter"",""1"",""2190""
","
","","","","","","3127.944999999949","<p> <b> True or False? </b> </p><p> If you choose the best option, you will always earn 1 point. </p>","","0","comp_question","","","","","","","","","","","false","","",""
"comp-q","69","373132","0.0-8.0-6.0-1.0","1420","2","2","""event"",""trial"",""time""
""fullscreenenter"",""1"",""2190""
","
","
","""event"",""trial"",""time""
""fullscreenenter"",""1"",""2190""
","
","","","","","","1653.6050000000978","<p><b> Incorrect. </b> Sometimes you will lose 1 point, even if you choose the best option. </p>","","0","comp_answer","","","","","","","","","","","","","",""
"comp-q","70","378565","0.0-8.0-6.0-0.1","1420","2","2","""event"",""trial"",""time""
""fullscreenenter"",""1"",""2190""
","
","
","""event"",""trial"",""time""
""fullscreenenter"",""1"",""2190""
","
","","","","","","781.7449999999953","<p> <b> True or False? </b> </p><p> You will have as much time as you want to make each choice. </p>","","1","comp_question","","","","","","","","","","","true","","",""
"comp-q","71","385372","0.0-8.0-6.0-1.1","1420","2","2","""event"",""trial"",""time""
""fullscreenenter"",""1"",""2190""
","
","
","""event"",""trial"",""time""
""fullscreenenter"",""1"",""2190""
","
","","","","","","1988.8899999999558","<p> <b> That's right! </b> You will only have 4 seconds to make each choice. </p>","","0","comp_answer","","","","","","","","","","","","","",""
"comp-q","72","392612","0.0-8.0-6.0-0.2","1420","2","2","""event"",""trial"",""time""
""fullscreenenter"",""1"",""2190""
","
","
","""event"",""trial"",""time""
""fullscreenenter"",""1"",""2190""
","
","","","","","","1079.4499999999534","<p> <b> True or False? </b> </p><p> You should use the '1', '2', and '3' keys to make your choices. </p>","","0","comp_question","","","","","","","","","","","true","","",""
"comp-q","73","399116","0.0-8.0-6.0-1.2","1420","2","2","""event"",""trial"",""time""
""fullscreenenter"",""1"",""2190""
","
","
","""event"",""trial"",""time""
""fullscreenenter"",""1"",""2190""
","
","","","","","","1642.7099999999627","<p> <b> That's right! </b> You should use the '1', '2', and '3' keys to make each choice. </p>","","0","comp_answer","","","","","","","","","","","","","",""
"learning-instructions","74","409036","0.0-8.0-7.0-0.0","1420","2","2","""event"",""trial"",""time""
""fullscreenenter"",""1"",""2190""
","
","
","""event"",""trial"",""time""
""fullscreenenter"",""1"",""2190""
","
","","","","","","1419.085000000021","<p> It's now time to start the real game. </p>Do your best, because the points you earn in the next rounds will influence your bonus payment. </p>","","0","instructions","","","","","","","","","","","","","",""
"preload","75","411362","0.0-9.0-0.0","1420","2","2","""event"",""trial"",""time""
""fullscreenenter"",""1"",""2190""
","
","
","""event"",""trial"",""time""
""fullscreenenter"",""1"",""2190""
","
","true","false","[]","[]","[]","","","","","","","","","","","","","","","","","","",""
"learning-instructions","76","419340","0.0-9.0-1.0-0.0","1420","2","2","""event"",""trial"",""time""
""fullscreenenter"",""1"",""2190""
","
","
","""event"",""trial"",""time""
""fullscreenenter"",""1"",""2190""
","
","","","","","","1482.4949999999953","<p> Your goal in this round is to buy different types of fruits. </p><p> You will try to purchase many fruits from different stores. </p></div>","","0","instructions","","","","","","","","","","","","","",""
"learning-instructions","77","429505","0.0-9.0-1.0-0.1","1420","2","2","""event"",""trial"",""time""
""fullscreenenter"",""1"",""2190""
","
","
","""event"",""trial"",""time""
""fullscreenenter"",""1"",""2190""
","
","","","","","","1656.429999999993","<p> On each turn, you will see a picture of a fruit and three different stores.  </p><p> You need to select the store where you can buy that fruit.  </p>","","0","instructions","","","","","","","","","","","","","",""
"learning-instructions","78","438809","0.0-9.0-1.0-0.2","1420","2","2","""event"",""trial"",""time""
""fullscreenenter"",""1"",""2190""
","
","
","""event"",""trial"",""time""
""fullscreenenter"",""1"",""2190""
","
","","","","","","1925.1850000000559","<p> You can select the store on the left by pressing 1, the store in the middle by pressing 2, and the store on the right by pressing 3. </p><br><div class=""choice-instructions-grid""> <div class=""choice-option""><img src=""images/fruit_choice1.png"" class=""choice-option-img"" stage=""instructions"" position=""0"" ><div class=""choice-option-text""> Press ""1."" </div></div><div class=""choice-option""><img src=""images/fruit_choice2.png"" class=""choice-option-img"" stage=""instructions"" position=""1"" ><div class=""choice-option-text""> Press ""2."" </div></div><div class=""choice-option""><img src=""images/fruit_choice3.png"" class=""choice-option-img"" stage=""instructions"" position=""2"" ><div class=""choice-option-text""> Press ""3."" </div></div></div>","","0","instructions","","","","","","","","","","","","","",""
"learning-instructions","79","445601","0.0-9.0-1.0-0.3","1420","2","2","""event"",""trial"",""time""
""fullscreenenter"",""1"",""2190""
","
","
","""event"",""trial"",""time""
""fullscreenenter"",""1"",""2190""
","
","","","","","","1826.0749999999534","<p> If you find the fruit in the store you chose, you will get to buy and eat it! </p><div style='float: center;'><img src='images/check.png' width = '200' height = '200'></img>","","0","instructions","","","","","","","","","","","","","",""
"learning-instructions","80","451209","0.0-9.0-1.0-0.4","1420","2","2","""event"",""trial"",""time""
""fullscreenenter"",""1"",""2190""
","
","
","""event"",""trial"",""time""
""fullscreenenter"",""1"",""2190""
","
","","","","","","1130.0750000000116","<p> But, if the fruit is not in that store, you will be hungry. </p><div style='float: center;'><img src='images/x.png' width = '200' height = '200'></img>","","0","instructions","","","","","","","","","","","","","",""
"learning-instructions","81","462641","0.0-9.0-1.0-0.5","1420","2","2","""event"",""trial"",""time""
""fullscreenenter"",""1"",""2190""
","
","
","""event"",""trial"",""time""
""fullscreenenter"",""1"",""2190""
","
","","","","","","1650.5299999999697","<p> Importantly, each fruit is more likely to be found in one of the stores. </p><p> If you choose the correct store, you will be more likely to be able to buy the fruit! </p>","","0","instructions","","","","","","","","","","","","","",""
"learning-instructions","82","476305","0.0-9.0-1.0-0.6","1420","2","2","""event"",""trial"",""time""
""fullscreenenter"",""1"",""2190""
","
","
","""event"",""trial"",""time""
""fullscreenenter"",""1"",""2190""
","
","","","","","","3197.4000000000233","<p> However, even if you choose the best store for the fruit, the store might not have it sometimes. </p><p> Similarly, even if you choose the <i>wrong</i> store, it might still have the fruit.","","0","instructions","","","","","","","","","","","","","",""
"learning-instructions","83","495900","0.0-9.0-1.0-0.7","1420","2","2","""event"",""trial"",""time""
""fullscreenenter"",""1"",""2190""
","
","
","""event"",""trial"",""time""
""fullscreenenter"",""1"",""2190""
","
","","","","","","7397.51999999996","<p> Try to choose the best store for each fruit, because you will <b> WIN </b> 1 point for each fruit you eat and <b>LOSE</b> 1 point each time you are hungry. </p><p> Your bonus payment will depend on your total number of points.","","0","instructions","","","","","","","","","","","","","",""
"learning-instructions","84","507292","0.0-9.0-1.0-0.8","1420","2","2","""event"",""trial"",""time""
""fullscreenenter"",""1"",""2190""
","
","
","""event"",""trial"",""time""
""fullscreenenter"",""1"",""2190""
","
","","","","","","3184.1600000000326","<p> The position of each store will change throughout the round. </p><p> The store's position <i> does not </i> influence how likely you are to find the fruit. </p>","","0","instructions","","","","","","","","","","","","","",""
"learning-instructions","85","517484","0.0-9.0-1.0-0.9","1420","2","2","""event"",""trial"",""time""
""fullscreenenter"",""1"",""2190""
","
","
","""event"",""trial"",""time""
""fullscreenenter"",""1"",""2190""
","
","","","","","","874.9150000000373","<p> You will have 4 seconds to make each choice. Try to respond before time runs out! </p><p> You will lose 1 point each time you do not make a response. </p>","","0","instructions","","","","","","","","","","","","","",""
"html-keyboard-response","86","518099","0.0-9.0-2.0-0.0","1420","2","2","""event"",""trial"",""time""
""fullscreenenter"",""1"",""2190""
","
","
","""event"",""trial"",""time""
""fullscreenenter"",""1"",""2190""
","
","","","","","","null","<div style=""font-size:60px;"">+</div>","null","","fixation","","","","","","","","","","","","","",""
"learning-trial","87","522119","0.0-9.0-2.0-1.0","1420","2","2","""event"",""trial"",""time""
""fullscreenenter"",""1"",""2190""
","
","
","""event"",""trial"",""time""
""fullscreenenter"",""1"",""2190""
","
","","","","","","1847.6000000000931","images/straw4.png","","","learning","images/fruit_choice2.png","images/fruit_choice1.png","images/fruit_choice3.png","[1,0,2]","1","0","1","images/fruit_choice2.png","1","fruit","","straw","2","0"
"html-keyboard-response","88","522634","0.0-9.0-2.0-0.1","1420","2","2","""event"",""trial"",""time""
""fullscreenenter"",""1"",""2190""
","
","
","""event"",""trial"",""time""
""fullscreenenter"",""1"",""2190""
","
","","","","","","null","<div style=""font-size:60px;"">+</div>","null","","fixation","","","","","","","","","","","","","",""
"learning-trial","89","526645","0.0-9.0-2.0-1.1","1420","2","2","""event"",""trial"",""time""
""fullscreenenter"",""1"",""2190""
","
","
","""event"",""trial"",""time""
""fullscreenenter"",""1"",""2190""
","
","","","","","","3062.8249999999534","images/apple4.png","","","learning","images/fruit_choice2.png","images/fruit_choice1.png","images/fruit_choice3.png","[1,0,2]","0","1","3","images/fruit_choice3.png","-1","fruit","","apple","2","0"
"html-keyboard-response","90","527167","0.0-9.0-2.0-0.2","1420","2","2","""event"",""trial"",""time""
""fullscreenenter"",""1"",""2190""
","
","
","""event"",""trial"",""time""
""fullscreenenter"",""1"",""2190""
","
","","","","","","null","<div style=""font-size:60px;"">+</div>","null","","fixation","","","","","","","","","","","","","",""
"learning-trial","91","531189","0.0-9.0-2.0-1.2","1420","2","2","""event"",""trial"",""time""
""fullscreenenter"",""1"",""2190""
","
","
","""event"",""trial"",""time""
""fullscreenenter"",""1"",""2190""
","
","","","","","","2812.9899999999907","images/straw5.png","","","learning","images/fruit_choice3.png","images/fruit_choice1.png","images/fruit_choice2.png","[2,0,1]","0","1","3","images/fruit_choice2.png","-1","fruit","","straw","2","0"
"html-keyboard-response","92","531700","0.0-9.0-2.0-0.3","1420","2","2","""event"",""trial"",""time""
""fullscreenenter"",""1"",""2190""
","
","
","""event"",""trial"",""time""
""fullscreenenter"",""1"",""2190""
","
","","","","","","null","<div style=""font-size:60px;"">+</div>","null","","fixation","","","","","","","","","","","","","",""
"learning-trial","93","535712","0.0-9.0-2.0-1.3","1420","2","2","""event"",""trial"",""time""
""fullscreenenter"",""1"",""2190""
","
","
","""event"",""trial"",""time""
""fullscreenenter"",""1"",""2190""
","
","","","","","","1368.0699999999488","images/orange3.png","","","learning","images/fruit_choice1.png","images/fruit_choice3.png","images/fruit_choice2.png","[0,2,1]","1","2","1","images/fruit_choice1.png","-1","fruit","","orange","2","0"
"html-keyboard-response","94","536234","0.0-9.0-2.0-0.4","1420","2","2","""event"",""trial"",""time""
""fullscreenenter"",""1"",""2190""
","
","
","""event"",""trial"",""time""
""fullscreenenter"",""1"",""2190""
","
","","","","","","null","<div style=""font-size:60px;"">+</div>","null","","fixation","","","","","","","","","","","","","",""
"learning-trial","95","540245","0.0-9.0-2.0-1.4","1420","2","2","""event"",""trial"",""time""
""fullscreenenter"",""1"",""2190""
","
","
","""event"",""trial"",""time""
""fullscreenenter"",""1"",""2190""
","
","","","","","","2289.2550000000047","images/apple3.png","","","learning","images/fruit_choice2.png","images/fruit_choice1.png","images/fruit_choice3.png","[1,0,2]","2","2","2","images/fruit_choice1.png","-1","fruit","","apple","2","0"
"html-keyboard-response","96","540757","0.0-9.0-2.0-0.5","1420","2","2","""event"",""trial"",""time""
""fullscreenenter"",""1"",""2190""
","
","
","""event"",""trial"",""time""
""fullscreenenter"",""1"",""2190""
","
","","","","","","null","<div style=""font-size:60px;"">+</div>","null","","fixation","","","","","","","","","","","","","",""
"learning-trial","97","544769","0.0-9.0-2.0-1.5","1420","2","2","""event"",""trial"",""time""
""fullscreenenter"",""1"",""2190""
","
","
","""event"",""trial"",""time""
""fullscreenenter"",""1"",""2190""
","
","","","","","","1286.3549999999814","images/orange4.png","","","learning","images/fruit_choice3.png","images/fruit_choice1.png","images/fruit_choice2.png","[2,0,1]","2","0","3","images/fruit_choice2.png","-1","fruit","","orange","2","0"
"html-keyboard-response","98","545285","0.0-9.0-2.0-0.6","1420","2","2","""event"",""trial"",""time""
""fullscreenenter"",""1"",""2190""
","
","
","""event"",""trial"",""time""
""fullscreenenter"",""1"",""2190""
","
","","","","","","null","<div style=""font-size:60px;"">+</div>","null","","fixation","","","","","","","","","","","","","",""
"learning-trial","99","549292","0.0-9.0-2.0-1.6","1420","2","2","""event"",""trial"",""time""
""fullscreenenter"",""1"",""2190""
","
","
","""event"",""trial"",""time""
""fullscreenenter"",""1"",""2190""
","
","","","","","","421.36999999999534","images/straw5.png","","","learning","images/fruit_choice3.png","images/fruit_choice1.png","images/fruit_choice2.png","[2,0,1]","0","1","1","images/fruit_choice3.png","-1","fruit","","straw","2","0"
"html-keyboard-response","100","549804","0.0-9.0-2.0-0.7","1420","2","2","""event"",""trial"",""time""
""fullscreenenter"",""1"",""2190""
","
","
","""event"",""trial"",""time""
""fullscreenenter"",""1"",""2190""
","
","","","","","","null","<div style=""font-size:60px;"">+</div>","null","","fixation","","","","","","","","","","","","","",""
"learning-trial","101","553815","0.0-9.0-2.0-1.7","1420","2","2","""event"",""trial"",""time""
""fullscreenenter"",""1"",""2190""
","
","
","""event"",""trial"",""time""
""fullscreenenter"",""1"",""2190""
","
","","","","","","416.0250000000233","images/orange2.png","","","learning","images/fruit_choice1.png","images/fruit_choice2.png","images/fruit_choice3.png","[0,1,2]","0","0","2","images/fruit_choice2.png","-1","fruit","","orange","2","0"
"html-keyboard-response","102","554317","0.0-9.0-2.0-0.8","1420","2","2","""event"",""trial"",""time""
""fullscreenenter"",""1"",""2190""
","
","
","""event"",""trial"",""time""
""fullscreenenter"",""1"",""2190""
","
","","","","","","null","<div style=""font-size:60px;"">+</div>","null","","fixation","","","","","","","","","","","","","",""
"learning-trial","103","558325","0.0-9.0-2.0-1.8","1420","2","2","""event"",""trial"",""time""
""fullscreenenter"",""1"",""2190""
","
","
","""event"",""trial"",""time""
""fullscreenenter"",""1"",""2190""
","
","","","","","","681.484999999986","images/apple2.png","","","learning","images/fruit_choice1.png","images/fruit_choice2.png","images/fruit_choice3.png","[0,1,2]","1","1","3","images/fruit_choice3.png","-1","fruit","","apple","2","0"
"html-keyboard-response","104","558829","0.0-9.0-2.0-0.9","1420","2","2","""event"",""trial"",""time""
""fullscreenenter"",""1"",""2190""
","
","
","""event"",""trial"",""time""
""fullscreenenter"",""1"",""2190""
","
","","","","","","null","<div style=""font-size:60px;"">+</div>","null","","fixation","","","","","","","","","","","","","",""
"learning-trial","105","562838","0.0-9.0-2.0-1.9","1420","2","2","""event"",""trial"",""time""
""fullscreenenter"",""1"",""2190""
","
","
","""event"",""trial"",""time""
""fullscreenenter"",""1"",""2190""
","
","","","","","","1341.3050000000512","images/apple2.png","","","learning","images/fruit_choice1.png","images/fruit_choice3.png","images/fruit_choice2.png","[0,2,1]","1","2","2","images/fruit_choice3.png","-1","fruit","","apple","2","0"
"html-keyboard-response","106","563353","0.0-9.0-2.0-0.10","1420","2","2","""event"",""trial"",""time""
""fullscreenenter"",""1"",""2190""
","
","
","""event"",""trial"",""time""
""fullscreenenter"",""1"",""2190""
","
","","","","","","null","<div style=""font-size:60px;"">+</div>","null","","fixation","","","","","","","","","","","","","",""
"learning-trial","107","567358","0.0-9.0-2.0-1.10","1420","2","2","""event"",""trial"",""time""
""fullscreenenter"",""1"",""2190""
","
","
","""event"",""trial"",""time""
""fullscreenenter"",""1"",""2190""
","
","","","","","","676.8200000000652","images/straw1.png","","","learning","images/fruit_choice2.png","images/fruit_choice1.png","images/fruit_choice3.png","[1,0,2]","2","2","2","images/fruit_choice1.png","-1","fruit","","straw","2","0"
"html-keyboard-response","108","567861","0.0-9.0-2.0-0.11","1420","2","2","""event"",""trial"",""time""
""fullscreenenter"",""1"",""2190""
","
","
","""event"",""trial"",""time""
""fullscreenenter"",""1"",""2190""
","
","","","","","","null","<div style=""font-size:60px;"">+</div>","null","","fixation","","","","","","","","","","","","","",""
"learning-trial","109","571870","0.0-9.0-2.0-1.11","1420","2","2","""event"",""trial"",""time""
""fullscreenenter"",""1"",""2190""
","
","
","""event"",""trial"",""time""
""fullscreenenter"",""1"",""2190""
","
","","","","","","3634.640000000014","images/straw1.png","","","learning","images/fruit_choice1.png","images/fruit_choice2.png","images/fruit_choice3.png","[0,1,2]","2","2","2","images/fruit_choice2.png","-1","fruit","","straw","2","0"
"html-keyboard-response","110","572372","0.0-9.0-2.0-0.12","1420","2","2","""event"",""trial"",""time""
""fullscreenenter"",""1"",""2190""
","
","
","""event"",""trial"",""time""
""fullscreenenter"",""1"",""2190""
","
","","","","","","null","<div style=""font-size:60px;"">+</div>","null","","fixation","","","","","","","","","","","","","",""
"learning-trial","111","576381","0.0-9.0-2.0-1.12","1420","2","2","""event"",""trial"",""time""
""fullscreenenter"",""1"",""2190""
","
","
","""event"",""trial"",""time""
""fullscreenenter"",""1"",""2190""
","
","","","","","","2621.519999999902","images/apple3.png","","","learning","images/fruit_choice3.png","images/fruit_choice1.png","images/fruit_choice2.png","[2,0,1]","2","0","3","images/fruit_choice2.png","-1","fruit","","apple","2","0"
"html-keyboard-response","112","576888","0.0-9.0-2.0-0.13","1420","2","2","""event"",""trial"",""time""
""fullscreenenter"",""1"",""2190""
","
","
","""event"",""trial"",""time""
""fullscreenenter"",""1"",""2190""
","
","","","","","","null","<div style=""font-size:60px;"">+</div>","null","","fixation","","","","","","","","","","","","","",""
"learning-trial","113","580900","0.0-9.0-2.0-1.13","1420","2","2","""event"",""trial"",""time""
""fullscreenenter"",""1"",""2190""
","
","
","""event"",""trial"",""time""
""fullscreenenter"",""1"",""2190""
","
","","","","","","1093.6149999999907","images/orange3.png","","","learning","images/fruit_choice1.png","images/fruit_choice2.png","images/fruit_choice3.png","[0,1,2]","1","1","1","images/fruit_choice1.png","-1","fruit","","orange","2","0"
"html-keyboard-response","114","581407","0.0-9.0-2.0-0.14","1420","2","2","""event"",""trial"",""time""
""fullscreenenter"",""1"",""2190""
","
","
","""event"",""trial"",""time""
""fullscreenenter"",""1"",""2190""
","
","","","","","","null","<div style=""font-size:60px;"">+</div>","null","","fixation","","","","","","","","","","","","","",""
"learning-trial","115","585412","0.0-9.0-2.0-1.14","1420","2","2","""event"",""trial"",""time""
""fullscreenenter"",""1"",""2190""
","
","
","""event"",""trial"",""time""
""fullscreenenter"",""1"",""2190""
","
","","","","","","357.76499999989755","images/orange4.png","","","learning","images/fruit_choice2.png","images/fruit_choice3.png","images/fruit_choice1.png","[1,2,0]","2","1","3","images/fruit_choice1.png","-1","fruit","","orange","2","0"
"html-keyboard-response","116","585927","0.0-9.0-2.0-0.15","1420","2","2","""event"",""trial"",""time""
""fullscreenenter"",""1"",""2190""
","
","
","""event"",""trial"",""time""
""fullscreenenter"",""1"",""2190""
","
","","","","","","null","<div style=""font-size:60px;"">+</div>","null","","fixation","","","","","","","","","","","","","",""
"learning-trial","117","589934","0.0-9.0-2.0-1.15","1420","2","2","""event"",""trial"",""time""
""fullscreenenter"",""1"",""2190""
","
","
","""event"",""trial"",""time""
""fullscreenenter"",""1"",""2190""
","
","","","","","","1686.5299999999115","images/orange2.png","","","learning","images/fruit_choice2.png","images/fruit_choice3.png","images/fruit_choice1.png","[1,2,0]","0","2","2","images/fruit_choice3.png","-1","fruit","","orange","2","0"
"html-keyboard-response","118","590443","0.0-9.0-2.0-0.16","1420","2","2","""event"",""trial"",""time""
""fullscreenenter"",""1"",""2190""
","
","
","""event"",""trial"",""time""
""fullscreenenter"",""1"",""2190""
","
","","","","","","null","<div style=""font-size:60px;"">+</div>","null","","fixation","","","","","","","","","","","","","",""
"learning-trial","119","594452","0.0-9.0-2.0-1.16","1420","2","2","""event"",""trial"",""time""
""fullscreenenter"",""1"",""2190""
","
","
","""event"",""trial"",""time""
""fullscreenenter"",""1"",""2190""
","
","","","","","","1613.5649999999441","images/orange4.png","","","learning","images/fruit_choice1.png","images/fruit_choice3.png","images/fruit_choice2.png","[0,2,1]","2","1","1","images/fruit_choice1.png","-1","fruit","","orange","2","0"
"html-keyboard-response","120","594960","0.0-9.0-2.0-0.17","1420","2","2","""event"",""trial"",""time""
""fullscreenenter"",""1"",""2190""
","
","
","""event"",""trial"",""time""
""fullscreenenter"",""1"",""2190""
","
","","","","","","null","<div style=""font-size:60px;"">+</div>","null","","fixation","","","","","","","","","","","","","",""
"learning-trial","121","598966","0.0-9.0-2.0-1.17","1420","2","2","""event"",""trial"",""time""
""fullscreenenter"",""1"",""2190""
","
","
","""event"",""trial"",""time""
""fullscreenenter"",""1"",""2190""
","
","","","","","","309.8199999999488","images/straw4.png","","","learning","images/fruit_choice2.png","images/fruit_choice1.png","images/fruit_choice3.png","[1,0,2]","1","0","3","images/fruit_choice3.png","-1","fruit","","straw","2","0"
"html-keyboard-response","122","599478","0.0-9.0-2.0-0.18","1420","2","2","""event"",""trial"",""time""
""fullscreenenter"",""1"",""2190""
","
","
","""event"",""trial"",""time""
""fullscreenenter"",""1"",""2190""
","
","","","","","","null","<div style=""font-size:60px;"">+</div>","null","","fixation","","","","","","","","","","","","","",""
"learning-trial","123","603489","0.0-9.0-2.0-1.18","1420","2","2","""event"",""trial"",""time""
""fullscreenenter"",""1"",""2190""
","
","
","""event"",""trial"",""time""
""fullscreenenter"",""1"",""2190""
","
","","","","","","2305.305000000051","images/apple4.png","","","learning","images/fruit_choice2.png","images/fruit_choice3.png","images/fruit_choice1.png","[1,2,0]","0","2","3","images/fruit_choice1.png","1","fruit","","apple","2","0"
"html-keyboard-response","124","603992","0.0-9.0-2.0-0.19","1420","2","2","""event"",""trial"",""time""
""fullscreenenter"",""1"",""2190""
","
","
","""event"",""trial"",""time""
""fullscreenenter"",""1"",""2190""
","
","","","","","","null","<div style=""font-size:60px;"">+</div>","null","","fixation","","","","","","","","","","","","","",""
"learning-trial","125","607999","0.0-9.0-2.0-1.19","1420","2","2","""event"",""trial"",""time""
""fullscreenenter"",""1"",""2190""
","
","
","""event"",""trial"",""time""
""fullscreenenter"",""1"",""2190""
","
","","","","","","2565.314999999944","images/orange2.png","","","learning","images/fruit_choice2.png","images/fruit_choice1.png","images/fruit_choice3.png","[1,0,2]","0","1","1","images/fruit_choice2.png","-1","fruit","","orange","2","0"
"html-keyboard-response","126","608508","0.0-9.0-2.0-0.20","1420","2","2","""event"",""trial"",""time""
""fullscreenenter"",""1"",""2190""
","
","
","""event"",""trial"",""time""
""fullscreenenter"",""1"",""2190""
","
","","","","","","null","<div style=""font-size:60px;"">+</div>","null","","fixation","","","","","","","","","","","","","",""
"learning-trial","127","612519","0.0-9.0-2.0-1.20","1420","2","2","""event"",""trial"",""time""
""fullscreenenter"",""1"",""2190""
","
","
","""event"",""trial"",""time""
""fullscreenenter"",""1"",""2190""
","
","","","","","","1894.359999999986","images/orange3.png","","","learning","images/fruit_choice2.png","images/fruit_choice3.png","images/fruit_choice1.png","[1,2,0]","1","0","2","images/fruit_choice3.png","-1","fruit","","orange","2","0"
"html-keyboard-response","128","613021","0.0-9.0-2.0-0.21","1420","2","2","""event"",""trial"",""time""
""fullscreenenter"",""1"",""2190""
","
","
","""event"",""trial"",""time""
""fullscreenenter"",""1"",""2190""
","
","","","","","","null","<div style=""font-size:60px;"">+</div>","null","","fixation","","","","","","","","","","","","","",""
"learning-trial","129","617025","0.0-9.0-2.0-1.21","1420","2","2","""event"",""trial"",""time""
""fullscreenenter"",""1"",""2190""
","
","
","""event"",""trial"",""time""
""fullscreenenter"",""1"",""2190""
","
","","","","","","1466.3050000000512","images/orange3.png","","","learning","images/fruit_choice3.png","images/fruit_choice1.png","images/fruit_choice2.png","[2,0,1]","1","2","3","images/fruit_choice2.png","1","fruit","","orange","2","0"
"html-keyboard-response","130","617541","0.0-9.0-2.0-0.22","1420","2","2","""event"",""trial"",""time""
""fullscreenenter"",""1"",""2190""
","
","
","""event"",""trial"",""time""
""fullscreenenter"",""1"",""2190""
","
","","","","","","null","<div style=""font-size:60px;"">+</div>","null","","fixation","","","","","","","","","","","","","",""
"learning-trial","131","621550","0.0-9.0-2.0-1.22","1420","2","2","""event"",""trial"",""time""
""fullscreenenter"",""1"",""2190""
","
","
","""event"",""trial"",""time""
""fullscreenenter"",""1"",""2190""
","
","","","","","","1205.9000000000233","images/apple2.png","","","learning","images/fruit_choice1.png","images/fruit_choice2.png","images/fruit_choice3.png","[0,1,2]","1","1","1","images/fruit_choice1.png","1","fruit","","apple","2","0"
"html-keyboard-response","132","622058","0.0-9.0-2.0-0.23","1420","2","2","""event"",""trial"",""time""
""fullscreenenter"",""1"",""2190""
","
","
","""event"",""trial"",""time""
""fullscreenenter"",""1"",""2190""
","
","","","","","","null","<div style=""font-size:60px;"">+</div>","null","","fixation","","","","","","","","","","","","","",""
"learning-trial","133","626068","0.0-9.0-2.0-1.23","1420","2","2","""event"",""trial"",""time""
""fullscreenenter"",""1"",""2190""
","
","
","""event"",""trial"",""time""
""fullscreenenter"",""1"",""2190""
","
","","","","","","2963.769999999902","images/apple3.png","","","learning","images/fruit_choice2.png","images/fruit_choice3.png","images/fruit_choice1.png","[1,2,0]","2","1","3","images/fruit_choice1.png","1","fruit","","apple","2","0"
"html-keyboard-response","134","626578","0.0-9.0-2.0-0.24","1420","2","2","""event"",""trial"",""time""
""fullscreenenter"",""1"",""2190""
","
","
","""event"",""trial"",""time""
""fullscreenenter"",""1"",""2190""
","
","","","","","","null","<div style=""font-size:60px;"">+</div>","null","","fixation","","","","","","","","","","","","","",""
"learning-trial","135","630583","0.0-9.0-2.0-1.24","1420","2","2","""event"",""trial"",""time""
""fullscreenenter"",""1"",""2190""
","
","
","""event"",""trial"",""time""
""fullscreenenter"",""1"",""2190""
","
","","","","","","2380.375","images/apple2.png","","","learning","images/fruit_choice2.png","images/fruit_choice1.png","images/fruit_choice3.png","[1,0,2]","1","0","1","images/fruit_choice2.png","1","fruit","","apple","2","0"
"html-keyboard-response","136","631085","0.0-9.0-2.0-0.25","1420","2","2","""event"",""trial"",""time""
""fullscreenenter"",""1"",""2190""
","
","
","""event"",""trial"",""time""
""fullscreenenter"",""1"",""2190""
","
","","","","","","null","<div style=""font-size:60px;"">+</div>","null","","fixation","","","","","","","","","","","","","",""
"learning-trial","137","635091","0.0-9.0-2.0-1.25","1420","2","2","""event"",""trial"",""time""
""fullscreenenter"",""1"",""2190""
","
","
","""event"",""trial"",""time""
""fullscreenenter"",""1"",""2190""
","
","","","","","","1598.3100000000559","images/apple3.png","","","learning","images/fruit_choice3.png","images/fruit_choice2.png","images/fruit_choice1.png","[2,1,0]","2","0","2","images/fruit_choice2.png","-1","fruit","","apple","2","0"
"html-keyboard-response","138","635601","0.0-9.0-2.0-0.26","1420","2","2","""event"",""trial"",""time""
""fullscreenenter"",""1"",""2190""
","
","
","""event"",""trial"",""time""
""fullscreenenter"",""1"",""2190""
","
","","","","","","null","<div style=""font-size:60px;"">+</div>","null","","fixation","","","","","","","","","","","","","",""
"learning-trial","139","639610","0.0-9.0-2.0-1.26","1420","2","2","""event"",""trial"",""time""
""fullscreenenter"",""1"",""2190""
","
","
","""event"",""trial"",""time""
""fullscreenenter"",""1"",""2190""
","
","","","","","","1113.5899999999674","images/apple3.png","","","learning","images/fruit_choice2.png","images/fruit_choice1.png","images/fruit_choice3.png","[1,0,2]","2","2","3","images/fruit_choice3.png","1","fruit","","apple","2","0"
"html-keyboard-response","140","640119","0.0-9.0-2.0-0.27","1420","2","2","""event"",""trial"",""time""
""fullscreenenter"",""1"",""2190""
","
","
","""event"",""trial"",""time""
""fullscreenenter"",""1"",""2190""
","
","","","","","","null","<div style=""font-size:60px;"">+</div>","null","","fixation","","","","","","","","","","","","","",""
"learning-trial","141","644128","0.0-9.0-2.0-1.27","1420","2","2","""event"",""trial"",""time""
""fullscreenenter"",""1"",""2190""
","
","
","""event"",""trial"",""time""
""fullscreenenter"",""1"",""2190""
","
","","","","","","1041.9299999999348","images/apple3.png","","","learning","images/fruit_choice1.png","images/fruit_choice2.png","images/fruit_choice3.png","[0,1,2]","2","2","3","images/fruit_choice3.png","1","fruit","","apple","2","0"
"html-keyboard-response","142","644640","0.0-9.0-2.0-0.28","1420","2","2","""event"",""trial"",""time""
""fullscreenenter"",""1"",""2190""
","
","
","""event"",""trial"",""time""
""fullscreenenter"",""1"",""2190""
","
","","","","","","null","<div style=""font-size:60px;"">+</div>","null","","fixation","","","","","","","","","","","","","",""
"learning-trial","143","648655","0.0-9.0-2.0-1.28","1420","2","2","""event"",""trial"",""time""
""fullscreenenter"",""1"",""2190""
","
","
","""event"",""trial"",""time""
""fullscreenenter"",""1"",""2190""
","
","","","","","","435.6549999999115","images/straw4.png","","","learning","images/fruit_choice3.png","images/fruit_choice1.png","images/fruit_choice2.png","[2,0,1]","1","2","1","images/fruit_choice3.png","-1","fruit","","straw","2","0"
"html-keyboard-response","144","649156","0.0-9.0-2.0-0.29","1420","2","2","""event"",""trial"",""time""
""fullscreenenter"",""1"",""2190""
","
","
","""event"",""trial"",""time""
""fullscreenenter"",""1"",""2190""
","
","","","","","","null","<div style=""font-size:60px;"">+</div>","null","","fixation","","","","","","","","","","","","","",""
"learning-trial","145","653170","0.0-9.0-2.0-1.29","1420","2","2","""event"",""trial"",""time""
""fullscreenenter"",""1"",""2190""
","
","
","""event"",""trial"",""time""
""fullscreenenter"",""1"",""2190""
","
","","","","","","385.2300000000978","images/straw4.png","","","learning","images/fruit_choice1.png","images/fruit_choice2.png","images/fruit_choice3.png","[0,1,2]","1","1","3","images/fruit_choice3.png","-1","fruit","","straw","2","0"
"html-keyboard-response","146","653677","0.0-9.0-2.0-0.30","1420","2","2","""event"",""trial"",""time""
""fullscreenenter"",""1"",""2190""
","
","
","""event"",""trial"",""time""
""fullscreenenter"",""1"",""2190""
","
","","","","","","null","<div style=""font-size:60px;"">+</div>","null","","fixation","","","","","","","","","","","","","",""
"learning-trial","147","657686","0.0-9.0-2.0-1.30","1420","2","2","""event"",""trial"",""time""
""fullscreenenter"",""1"",""2190""
","
","
","""event"",""trial"",""time""
""fullscreenenter"",""1"",""2190""
","
","","","","","","1946.344999999972","images/straw5.png","","","learning","images/fruit_choice3.png","images/fruit_choice1.png","images/fruit_choice2.png","[2,0,1]","0","1","1","images/fruit_choice3.png","1","fruit","","straw","2","0"
"html-keyboard-response","148","658201","0.0-9.0-2.0-0.31","1420","2","2","""event"",""trial"",""time""
""fullscreenenter"",""1"",""2190""
","
","
","""event"",""trial"",""time""
""fullscreenenter"",""1"",""2190""
","
","","","","","","null","<div style=""font-size:60px;"">+</div>","null","","fixation","","","","","","","","","","","","","",""
"learning-trial","149","662211","0.0-9.0-2.0-1.31","1420","2","2","""event"",""trial"",""time""
""fullscreenenter"",""1"",""2190""
","
","
","""event"",""trial"",""time""
""fullscreenenter"",""1"",""2190""
","
","","","","","","1306.9099999997998","images/apple4.png","","","learning","images/fruit_choice2.png","images/fruit_choice3.png","images/fruit_choice1.png","[1,2,0]","0","2","3","images/fruit_choice1.png","1","fruit","","apple","2","0"
"html-keyboard-response","150","662717","0.0-9.0-2.0-0.32","1420","2","2","""event"",""trial"",""time""
""fullscreenenter"",""1"",""2190""
","
","
","""event"",""trial"",""time""
""fullscreenenter"",""1"",""2190""
","
","","","","","","null","<div style=""font-size:60px;"">+</div>","null","","fixation","","","","","","","","","","","","","",""
"learning-trial","151","666729","0.0-9.0-2.0-1.32","1420","2","2","""event"",""trial"",""time""
""fullscreenenter"",""1"",""2190""
","
","
","""event"",""trial"",""time""
""fullscreenenter"",""1"",""2190""
","
","","","","","","1070.0000000001164","images/straw4.png","","","learning","images/fruit_choice1.png","images/fruit_choice3.png","images/fruit_choice2.png","[0,2,1]","1","2","3","images/fruit_choice2.png","1","fruit","","straw","2","0"
"html-keyboard-response","152","667237","0.0-9.0-2.0-0.33","1420","2","2","""event"",""trial"",""time""
""fullscreenenter"",""1"",""2190""
","
","
","""event"",""trial"",""time""
""fullscreenenter"",""1"",""2190""
","
","","","","","","null","<div style=""font-size:60px;"">+</div>","null","","fixation","","","","","","","","","","","","","",""
"learning-trial","153","671245","0.0-9.0-2.0-1.33","1420","2","2","""event"",""trial"",""time""
""fullscreenenter"",""1"",""2190""
","
","
","""event"",""trial"",""time""
""fullscreenenter"",""1"",""2190""
","
","","","","","","2232.4649999999674","images/orange4.png","","","learning","images/fruit_choice2.png","images/fruit_choice1.png","images/fruit_choice3.png","[1,0,2]","2","2","3","images/fruit_choice3.png","1","fruit","","orange","2","0"
"html-keyboard-response","154","671757","0.0-9.0-2.0-0.34","1420","2","2","""event"",""trial"",""time""
""fullscreenenter"",""1"",""2190""
","
","
","""event"",""trial"",""time""
""fullscreenenter"",""1"",""2190""
","
","","","","","","null","<div style=""font-size:60px;"">+</div>","null","","fixation","","","","","","","","","","","","","",""
"learning-trial","155","675764","0.0-9.0-2.0-1.34","1420","2","2","""event"",""trial"",""time""
""fullscreenenter"",""1"",""2190""
","
","
","""event"",""trial"",""time""
""fullscreenenter"",""1"",""2190""
","
","","","","","","1492.5650000000605","images/straw1.png","","","learning","images/fruit_choice3.png","images/fruit_choice1.png","images/fruit_choice2.png","[2,0,1]","2","0","1","images/fruit_choice3.png","1","fruit","","straw","2","0"
"html-keyboard-response","156","676267","0.0-9.0-2.0-0.35","1420","2","2","""event"",""trial"",""time""
""fullscreenenter"",""1"",""2190""
","
","
","""event"",""trial"",""time""
""fullscreenenter"",""1"",""2190""
","
","","","","","","null","<div style=""font-size:60px;"">+</div>","null","","fixation","","","","","","","","","","","","","",""
"learning-trial","157","680277","0.0-9.0-2.0-1.35","1420","2","2","""event"",""trial"",""time""
""fullscreenenter"",""1"",""2190""
","
","
","""event"",""trial"",""time""
""fullscreenenter"",""1"",""2190""
","
","","","","","","1659.2249999999767","images/straw4.png","","","learning","images/fruit_choice2.png","images/fruit_choice3.png","images/fruit_choice1.png","[1,2,0]","1","0","2","images/fruit_choice3.png","-1","fruit","","straw","2","0"
"html-keyboard-response","158","680786","0.0-9.0-2.0-0.36","1420","2","2","""event"",""trial"",""time""
""fullscreenenter"",""1"",""2190""
","
","
","""event"",""trial"",""time""
""fullscreenenter"",""1"",""2190""
","
","","","","","","null","<div style=""font-size:60px;"">+</div>","null","","fixation","","","","","","","","","","","","","",""
"learning-trial","159","684794","0.0-9.0-2.0-1.36","1420","2","2","""event"",""trial"",""time""
""fullscreenenter"",""1"",""2190""
","
","
","""event"",""trial"",""time""
""fullscreenenter"",""1"",""2190""
","
","","","","","","1161.9300000000512","images/apple4.png","","","learning","images/fruit_choice3.png","images/fruit_choice2.png","images/fruit_choice1.png","[2,1,0]","0","2","3","images/fruit_choice1.png","1","fruit","","apple","2","0"
"html-keyboard-response","160","685301","0.0-9.0-2.0-0.37","1420","2","2","""event"",""trial"",""time""
""fullscreenenter"",""1"",""2190""
","
","
","""event"",""trial"",""time""
""fullscreenenter"",""1"",""2190""
","
","","","","","","null","<div style=""font-size:60px;"">+</div>","null","","fixation","","","","","","","","","","","","","",""
"learning-trial","161","689307","0.0-9.0-2.0-1.37","1420","2","2","""event"",""trial"",""time""
""fullscreenenter"",""1"",""2190""
","
","
","""event"",""trial"",""time""
""fullscreenenter"",""1"",""2190""
","
","","","","","","1338.515000000014","images/apple2.png","","","learning","images/fruit_choice2.png","images/fruit_choice1.png","images/fruit_choice3.png","[1,0,2]","1","0","1","images/fruit_choice2.png","1","fruit","","apple","2","0"
"html-keyboard-response","162","689808","0.0-9.0-2.0-0.38","1420","2","2","""event"",""trial"",""time""
""fullscreenenter"",""1"",""2190""
","
","
","""event"",""trial"",""time""
""fullscreenenter"",""1"",""2190""
","
","","","","","","null","<div style=""font-size:60px;"">+</div>","null","","fixation","","","","","","","","","","","","","",""
"learning-trial","163","693814","0.0-9.0-2.0-1.38","1420","2","2","""event"",""trial"",""time""
""fullscreenenter"",""1"",""2190""
","
","
","""event"",""trial"",""time""
""fullscreenenter"",""1"",""2190""
","
","","","","","","1030.420000000042","images/straw5.png","","","learning","images/fruit_choice2.png","images/fruit_choice1.png","images/fruit_choice3.png","[1,0,2]","0","1","3","images/fruit_choice3.png","-1","fruit","","straw","2","0"
"html-keyboard-response","164","694316","0.0-9.0-2.0-0.39","1420","2","2","""event"",""trial"",""time""
""fullscreenenter"",""1"",""2190""
","
","
","""event"",""trial"",""time""
""fullscreenenter"",""1"",""2190""
","
","","","","","","null","<div style=""font-size:60px;"">+</div>","null","","fixation","","","","","","","","","","","","","",""
"learning-trial","165","698326","0.0-9.0-2.0-1.39","1420","2","2","""event"",""trial"",""time""
""fullscreenenter"",""1"",""2190""
","
","
","""event"",""trial"",""time""
""fullscreenenter"",""1"",""2190""
","
","","","","","","null","images/orange2.png","","","learning","images/fruit_choice1.png","images/fruit_choice3.png","images/fruit_choice2.png","[0,2,1]","0","0","null","null","-1","fruit","","orange","2","0"
"html-keyboard-response","166","698841","0.0-9.0-2.0-0.40","1420","2","2","""event"",""trial"",""time""
""fullscreenenter"",""1"",""2190""
","
","
","""event"",""trial"",""time""
""fullscreenenter"",""1"",""2190""
","
","","","","","","null","<div style=""font-size:60px;"">+</div>","null","","fixation","","","","","","","","","","","","","",""
"learning-trial","167","702850","0.0-9.0-2.0-1.40","1420","2","2","""event"",""trial"",""time""
""fullscreenenter"",""1"",""2190""
","
","
","""event"",""trial"",""time""
""fullscreenenter"",""1"",""2190""
","
","","","","","","1954.714999999851","images/orange3.png","","","learning","images/fruit_choice2.png","images/fruit_choice1.png","images/fruit_choice3.png","[1,0,2]","1","0","2","images/fruit_choice1.png","-1","fruit","","orange","2","0"
"html-keyboard-response","168","703356","0.0-9.0-2.0-0.41","1420","2","2","""event"",""trial"",""time""
""fullscreenenter"",""1"",""2190""
","
","
","""event"",""trial"",""time""
""fullscreenenter"",""1"",""2190""
","
","","","","","","null","<div style=""font-size:60px;"">+</div>","null","","fixation","","","","","","","","","","","","","",""
"learning-trial","169","707364","0.0-9.0-2.0-1.41","1420","2","2","""event"",""trial"",""time""
""fullscreenenter"",""1"",""2190""
","
","
","""event"",""trial"",""time""
""fullscreenenter"",""1"",""2190""
","
","","","","","","987.0949999999721","images/orange2.png","","","learning","images/fruit_choice2.png","images/fruit_choice1.png","images/fruit_choice3.png","[1,0,2]","0","1","1","images/fruit_choice2.png","-1","fruit","","orange","2","0"
"html-keyboard-response","170","707870","0.0-9.0-2.0-0.42","1420","2","2","""event"",""trial"",""time""
""fullscreenenter"",""1"",""2190""
","
","
","""event"",""trial"",""time""
""fullscreenenter"",""1"",""2190""
","
","","","","","","null","<div style=""font-size:60px;"">+</div>","null","","fixation","","","","","","","","","","","","","",""
"learning-trial","171","711874","0.0-9.0-2.0-1.42","1420","2","2","""event"",""trial"",""time""
""fullscreenenter"",""1"",""2190""
","
","
","""event"",""trial"",""time""
""fullscreenenter"",""1"",""2190""
","
","","","","","","1416.8099999999395","images/apple4.png","","","learning","images/fruit_choice2.png","images/fruit_choice3.png","images/fruit_choice1.png","[1,2,0]","0","2","3","images/fruit_choice1.png","1","fruit","","apple","2","0"
"html-keyboard-response","172","712384","0.0-9.0-2.0-0.43","1420","2","2","""event"",""trial"",""time""
""fullscreenenter"",""1"",""2190""
","
","
","""event"",""trial"",""time""
""fullscreenenter"",""1"",""2190""
","
","","","","","","null","<div style=""font-size:60px;"">+</div>","null","","fixation","","","","","","","","","","","","","",""
"learning-trial","173","716395","0.0-9.0-2.0-1.43","1420","2","2","""event"",""trial"",""time""
""fullscreenenter"",""1"",""2190""
","
","
","""event"",""trial"",""time""
""fullscreenenter"",""1"",""2190""
","
","","","","","","1656.1199999999953","images/orange2.png","","","learning","images/fruit_choice2.png","images/fruit_choice1.png","images/fruit_choice3.png","[1,0,2]","0","1","3","images/fruit_choice3.png","-1","fruit","","orange","2","0"
"html-keyboard-response","174","716902","0.0-9.0-2.0-0.44","1420","2","2","""event"",""trial"",""time""
""fullscreenenter"",""1"",""2190""
","
","
","""event"",""trial"",""time""
""fullscreenenter"",""1"",""2190""
","
","","","","","","null","<div style=""font-size:60px;"">+</div>","null","","fixation","","","","","","","","","","","","","",""
"learning-trial","175","720918","0.0-9.0-2.0-1.44","1420","2","2","""event"",""trial"",""time""
""fullscreenenter"",""1"",""2190""
","
","
","""event"",""trial"",""time""
""fullscreenenter"",""1"",""2190""
","
","","","","","","1629.3300000000745","images/straw5.png","","","learning","images/fruit_choice3.png","images/fruit_choice2.png","images/fruit_choice1.png","[2,1,0]","0","2","1","images/fruit_choice3.png","1","fruit","","straw","2","0"
"html-keyboard-response","176","721429","0.0-9.0-2.0-0.45","1420","2","2","""event"",""trial"",""time""
""fullscreenenter"",""1"",""2190""
","
","
","""event"",""trial"",""time""
""fullscreenenter"",""1"",""2190""
","
","","","","","","null","<div style=""font-size:60px;"">+</div>","null","","fixation","","","","","","","","","","","","","",""
"learning-trial","177","725434","0.0-9.0-2.0-1.45","1420","2","2","""event"",""trial"",""time""
""fullscreenenter"",""1"",""2190""
","
","
","""event"",""trial"",""time""
""fullscreenenter"",""1"",""2190""
","
","","","","","","1386.234999999986","images/orange2.png","","","learning","images/fruit_choice2.png","images/fruit_choice1.png","images/fruit_choice3.png","[1,0,2]","0","1","3","images/fruit_choice3.png","-1","fruit","","orange","2","0"
"html-keyboard-response","178","725943","0.0-9.0-2.0-0.46","1420","2","2","""event"",""trial"",""time""
""fullscreenenter"",""1"",""2190""
","
","
","""event"",""trial"",""time""
""fullscreenenter"",""1"",""2190""
","
","","","","","","null","<div style=""font-size:60px;"">+</div>","null","","fixation","","","","","","","","","","","","","",""
"learning-trial","179","729946","0.0-9.0-2.0-1.46","1420","2","2","""event"",""trial"",""time""
""fullscreenenter"",""1"",""2190""
","
","
","""event"",""trial"",""time""
""fullscreenenter"",""1"",""2190""
","
","","","","","","896.765000000014","images/straw5.png","","","learning","images/fruit_choice3.png","images/fruit_choice2.png","images/fruit_choice1.png","[2,1,0]","0","2","1","images/fruit_choice3.png","-1","fruit","","straw","2","0"
"html-keyboard-response","180","730448","0.0-9.0-2.0-0.47","1420","2","2","""event"",""trial"",""time""
""fullscreenenter"",""1"",""2190""
","
","
","""event"",""trial"",""time""
""fullscreenenter"",""1"",""2190""
","
","","","","","","null","<div style=""font-size:60px;"">+</div>","null","","fixation","","","","","","","","","","","","","",""
"learning-trial","181","734454","0.0-9.0-2.0-1.47","1420","2","2","""event"",""trial"",""time""
""fullscreenenter"",""1"",""2190""
","
","
","""event"",""trial"",""time""
""fullscreenenter"",""1"",""2190""
","
","","","","","","1303.2449999999953","images/apple2.png","","","learning","images/fruit_choice1.png","images/fruit_choice2.png","images/fruit_choice3.png","[0,1,2]","1","1","2","images/fruit_choice2.png","1","fruit","","apple","2","0"
"html-keyboard-response","182","734962","0.0-9.0-2.0-0.48","1420","2","2","""event"",""trial"",""time""
""fullscreenenter"",""1"",""2190""
","
","
","""event"",""trial"",""time""
""fullscreenenter"",""1"",""2190""
","
","","","","","","null","<div style=""font-size:60px;"">+</div>","null","","fixation","","","","","","","","","","","","","",""
"learning-trial","183","738973","0.0-9.0-2.0-1.48","1420","2","2","""event"",""trial"",""time""
""fullscreenenter"",""1"",""2190""
","
","
","""event"",""trial"",""time""
""fullscreenenter"",""1"",""2190""
","
","","","","","","1143.494999999879","images/apple4.png","","","learning","images/fruit_choice3.png","images/fruit_choice2.png","images/fruit_choice1.png","[2,1,0]","0","2","3","images/fruit_choice1.png","1","fruit","","apple","2","0"
"html-keyboard-response","184","739480","0.0-9.0-2.0-0.49","1420","2","2","""event"",""trial"",""time""
""fullscreenenter"",""1"",""2190""
","
","
","""event"",""trial"",""time""
""fullscreenenter"",""1"",""2190""
","
","","","","","","null","<div style=""font-size:60px;"">+</div>","null","","fixation","","","","","","","","","","","","","",""
"learning-trial","185","743485","0.0-9.0-2.0-1.49","1420","2","2","""event"",""trial"",""time""
""fullscreenenter"",""1"",""2190""
","
","
","""event"",""trial"",""time""
""fullscreenenter"",""1"",""2190""
","
","","","","","","3047.685000000056","images/orange3.png","","","learning","images/fruit_choice2.png","images/fruit_choice1.png","images/fruit_choice3.png","[1,0,2]","1","0","1","images/fruit_choice2.png","1","fruit","","orange","2","0"
"html-keyboard-response","186","743992","0.0-9.0-2.0-0.50","1420","2","2","""event"",""trial"",""time""
""fullscreenenter"",""1"",""2190""
","
","
","""event"",""trial"",""time""
""fullscreenenter"",""1"",""2190""
","
","","","","","","null","<div style=""font-size:60px;"">+</div>","null","","fixation","","","","","","","","","","","","","",""
"learning-trial","187","748003","0.0-9.0-2.0-1.50","1420","2","2","""event"",""trial"",""time""
""fullscreenenter"",""1"",""2190""
","
","
","""event"",""trial"",""time""
""fullscreenenter"",""1"",""2190""
","
","","","","","","1172.4349999999395","images/orange3.png","","","learning","images/fruit_choice2.png","images/fruit_choice3.png","images/fruit_choice1.png","[1,2,0]","1","0","1","images/fruit_choice2.png","-1","fruit","","orange","2","0"
"html-keyboard-response","188","748520","0.0-9.0-2.0-0.51","1420","2","2","""event"",""trial"",""time""
""fullscreenenter"",""1"",""2190""
","
","
","""event"",""trial"",""time""
""fullscreenenter"",""1"",""2190""
","
","","","","","","null","<div style=""font-size:60px;"">+</div>","null","","fixation","","","","","","","","","","","","","",""
"learning-trial","189","752523","0.0-9.0-2.0-1.51","1420","2","2","""event"",""trial"",""time""
""fullscreenenter"",""1"",""2190""
","
","
","""event"",""trial"",""time""
""fullscreenenter"",""1"",""2190""
","
","","","","","","1758.7300000000978","images/straw1.png","","","learning","images/fruit_choice1.png","images/fruit_choice2.png","images/fruit_choice3.png","[0,1,2]","2","2","3","images/fruit_choice3.png","1","fruit","","straw","2","0"
"html-keyboard-response","190","753037","0.0-9.0-2.0-0.52","1420","2","2","""event"",""trial"",""time""
""fullscreenenter"",""1"",""2190""
","
","
","""event"",""trial"",""time""
""fullscreenenter"",""1"",""2190""
","
","","","","","","null","<div style=""font-size:60px;"">+</div>","null","","fixation","","","","","","","","","","","","","",""
"learning-trial","191","757042","0.0-9.0-2.0-1.52","1420","2","2","""event"",""trial"",""time""
""fullscreenenter"",""1"",""2190""
","
","
","""event"",""trial"",""time""
""fullscreenenter"",""1"",""2190""
","
","","","","","","2522.25","images/orange2.png","","","learning","images/fruit_choice3.png","images/fruit_choice2.png","images/fruit_choice1.png","[2,1,0]","0","2","1","images/fruit_choice3.png","-1","fruit","","orange","2","0"
"html-keyboard-response","192","757552","0.0-9.0-2.0-0.53","1420","2","2","""event"",""trial"",""time""
""fullscreenenter"",""1"",""2190""
","
","
","""event"",""trial"",""time""
""fullscreenenter"",""1"",""2190""
","
","","","","","","null","<div style=""font-size:60px;"">+</div>","null","","fixation","","","","","","","","","","","","","",""
"learning-trial","193","761570","0.0-9.0-2.0-1.53","1420","2","2","""event"",""trial"",""time""
""fullscreenenter"",""1"",""2190""
","
","
","""event"",""trial"",""time""
""fullscreenenter"",""1"",""2190""
","
","","","","","","2065.3800000000047","images/straw4.png","","","learning","images/fruit_choice2.png","images/fruit_choice1.png","images/fruit_choice3.png","[1,0,2]","1","0","3","images/fruit_choice3.png","-1","fruit","","straw","2","0"
"html-keyboard-response","194","762075","0.0-9.0-2.0-0.54","1420","2","2","""event"",""trial"",""time""
""fullscreenenter"",""1"",""2190""
","
","
","""event"",""trial"",""time""
""fullscreenenter"",""1"",""2190""
","
","","","","","","null","<div style=""font-size:60px;"">+</div>","null","","fixation","","","","","","","","","","","","","",""
"learning-trial","195","766081","0.0-9.0-2.0-1.54","1420","2","2","""event"",""trial"",""time""
""fullscreenenter"",""1"",""2190""
","
","
","""event"",""trial"",""time""
""fullscreenenter"",""1"",""2190""
","
","","","","","","1494.2399999999907","images/apple2.png","","","learning","images/fruit_choice2.png","images/fruit_choice3.png","images/fruit_choice1.png","[1,2,0]","1","0","1","images/fruit_choice2.png","1","fruit","","apple","2","0"
"html-keyboard-response","196","766599","0.0-9.0-2.0-0.55","1420","2","2","""event"",""trial"",""time""
""fullscreenenter"",""1"",""2190""
","
","
","""event"",""trial"",""time""
""fullscreenenter"",""1"",""2190""
","
","","","","","","null","<div style=""font-size:60px;"">+</div>","null","","fixation","","","","","","","","","","","","","",""
"learning-trial","197","770606","0.0-9.0-2.0-1.55","1420","2","2","""event"",""trial"",""time""
""fullscreenenter"",""1"",""2190""
","
","
","""event"",""trial"",""time""
""fullscreenenter"",""1"",""2190""
","
","","","","","","1001.7199999999721","images/apple2.png","","","learning","images/fruit_choice2.png","images/fruit_choice3.png","images/fruit_choice1.png","[1,2,0]","1","0","1","images/fruit_choice2.png","1","fruit","","apple","2","0"
"html-keyboard-response","198","771110","0.0-9.0-2.0-0.56","1420","2","2","""event"",""trial"",""time""
""fullscreenenter"",""1"",""2190""
","
","
","""event"",""trial"",""time""
""fullscreenenter"",""1"",""2190""
","
","","","","","","null","<div style=""font-size:60px;"">+</div>","null","","fixation","","","","","","","","","","","","","",""
"learning-trial","199","775118","0.0-9.0-2.0-1.56","1420","2","2","""event"",""trial"",""time""
""fullscreenenter"",""1"",""2190""
","
","
","""event"",""trial"",""time""
""fullscreenenter"",""1"",""2190""
","
","","","","","","1932.0850000000792","images/orange4.png","","","learning","images/fruit_choice1.png","images/fruit_choice3.png","images/fruit_choice2.png","[0,2,1]","2","1","2","images/fruit_choice3.png","1","fruit","","orange","2","0"
"html-keyboard-response","200","775624","0.0-9.0-2.0-0.57","1420","2","2","""event"",""trial"",""time""
""fullscreenenter"",""1"",""2190""
","
","
","""event"",""trial"",""time""
""fullscreenenter"",""1"",""2190""
","
","","","","","","null","<div style=""font-size:60px;"">+</div>","null","","fixation","","","","","","","","","","","","","",""
"learning-trial","201","779635","0.0-9.0-2.0-1.57","1420","2","2","""event"",""trial"",""time""
""fullscreenenter"",""1"",""2190""
","
","
","""event"",""trial"",""time""
""fullscreenenter"",""1"",""2190""
","
","","","","","","1714.229999999865","images/straw1.png","","","learning","images/fruit_choice3.png","images/fruit_choice2.png","images/fruit_choice1.png","[2,1,0]","2","0","1","images/fruit_choice3.png","1","fruit","","straw","2","0"
"html-keyboard-response","202","780140","0.0-9.0-2.0-0.58","1420","2","2","""event"",""trial"",""time""
""fullscreenenter"",""1"",""2190""
","
","
","""event"",""trial"",""time""
""fullscreenenter"",""1"",""2190""
","
","","","","","","null","<div style=""font-size:60px;"">+</div>","null","","fixation","","","","","","","","","","","","","",""
"learning-trial","203","784147","0.0-9.0-2.0-1.58","1420","2","2","""event"",""trial"",""time""
""fullscreenenter"",""1"",""2190""
","
","
","""event"",""trial"",""time""
""fullscreenenter"",""1"",""2190""
","
","","","","","","1372.9350000001723","images/apple4.png","","","learning","images/fruit_choice3.png","images/fruit_choice2.png","images/fruit_choice1.png","[2,1,0]","0","2","3","images/fruit_choice1.png","1","fruit","","apple","2","0"
"html-keyboard-response","204","784649","0.0-9.0-2.0-0.59","1420","2","2","""event"",""trial"",""time""
""fullscreenenter"",""1"",""2190""
","
","
","""event"",""trial"",""time""
""fullscreenenter"",""1"",""2190""
","
","","","","","","null","<div style=""font-size:60px;"">+</div>","null","","fixation","","","","","","","","","","","","","",""
"learning-trial","205","788658","0.0-9.0-2.0-1.59","1420","2","2","""event"",""trial"",""time""
""fullscreenenter"",""1"",""2190""
","
","
","""event"",""trial"",""time""
""fullscreenenter"",""1"",""2190""
","
","","","","","","1526.0550000000512","images/straw1.png","","","learning","images/fruit_choice1.png","images/fruit_choice3.png","images/fruit_choice2.png","[0,2,1]","2","1","2","images/fruit_choice3.png","1","fruit","","straw","2","0"
"html-keyboard-response","206","789164","0.0-9.0-2.0-0.60","1420","2","2","""event"",""trial"",""time""
""fullscreenenter"",""1"",""2190""
","
","
","""event"",""trial"",""time""
""fullscreenenter"",""1"",""2190""
","
","","","","","","null","<div style=""font-size:60px;"">+</div>","null","","fixation","","","","","","","","","","","","","",""
"learning-trial","207","793179","0.0-9.0-2.0-1.60","1420","2","2","""event"",""trial"",""time""
""fullscreenenter"",""1"",""2190""
","
","
","""event"",""trial"",""time""
""fullscreenenter"",""1"",""2190""
","
","","","","","","2962.3950000000186","images/straw5.png","","","learning","images/fruit_choice1.png","images/fruit_choice3.png","images/fruit_choice2.png","[0,2,1]","0","0","3","images/fruit_choice2.png","-1","fruit","","straw","2","0"
"html-keyboard-response","208","793682","0.0-9.0-2.0-0.61","1420","2","2","""event"",""trial"",""time""
""fullscreenenter"",""1"",""2190""
","
","
","""event"",""trial"",""time""
""fullscreenenter"",""1"",""2190""
","
","","","","","","null","<div style=""font-size:60px;"">+</div>","null","","fixation","","","","","","","","","","","","","",""
"learning-trial","209","797688","0.0-9.0-2.0-1.61","1420","2","2","""event"",""trial"",""time""
""fullscreenenter"",""1"",""2190""
","
","
","""event"",""trial"",""time""
""fullscreenenter"",""1"",""2190""
","
","","","","","","3455.7650000001304","images/orange4.png","","","learning","images/fruit_choice1.png","images/fruit_choice2.png","images/fruit_choice3.png","[0,1,2]","2","2","3","images/fruit_choice3.png","-1","fruit","","orange","2","0"
"html-keyboard-response","210","798199","0.0-9.0-2.0-0.62","1420","2","2","""event"",""trial"",""time""
""fullscreenenter"",""1"",""2190""
","
","
","""event"",""trial"",""time""
""fullscreenenter"",""1"",""2190""
","
","","","","","","null","<div style=""font-size:60px;"">+</div>","null","","fixation","","","","","","","","","","","","","",""
"learning-trial","211","802205","0.0-9.0-2.0-1.62","1420","2","2","""event"",""trial"",""time""
""fullscreenenter"",""1"",""2190""
","
","
","""event"",""trial"",""time""
""fullscreenenter"",""1"",""2190""
","
","","","","","","1702.7249999999767","images/straw1.png","","","learning","images/fruit_choice3.png","images/fruit_choice2.png","images/fruit_choice1.png","[2,1,0]","2","0","2","images/fruit_choice2.png","-1","fruit","","straw","2","0"
"html-keyboard-response","212","802711","0.0-9.0-2.0-0.63","1420","2","2","""event"",""trial"",""time""
""fullscreenenter"",""1"",""2190""
","
","
","""event"",""trial"",""time""
""fullscreenenter"",""1"",""2190""
","
","","","","","","null","<div style=""font-size:60px;"">+</div>","null","","fixation","","","","","","","","","","","","","",""
"learning-trial","213","806722","0.0-9.0-2.0-1.63","1420","2","2","""event"",""trial"",""time""
""fullscreenenter"",""1"",""2190""
","
","
","""event"",""trial"",""time""
""fullscreenenter"",""1"",""2190""
","
","","","","","","1678.4450000000652","images/apple4.png","","","learning","images/fruit_choice3.png","images/fruit_choice1.png","images/fruit_choice2.png","[2,0,1]","0","1","2","images/fruit_choice1.png","1","fruit","","apple","2","0"
"html-keyboard-response","214","807237","0.0-9.0-2.0-0.64","1420","2","2","""event"",""trial"",""time""
""fullscreenenter"",""1"",""2190""
","
","
","""event"",""trial"",""time""
""fullscreenenter"",""1"",""2190""
","
","","","","","","null","<div style=""font-size:60px;"">+</div>","null","","fixation","","","","","","","","","","","","","",""
"learning-trial","215","811244","0.0-9.0-2.0-1.64","1420","2","2","""event"",""trial"",""time""
""fullscreenenter"",""1"",""2190""
","
","
","""event"",""trial"",""time""
""fullscreenenter"",""1"",""2190""
","
","","","","","","1755.704999999958","images/apple3.png","","","learning","images/fruit_choice3.png","images/fruit_choice2.png","images/fruit_choice1.png","[2,1,0]","2","0","2","images/fruit_choice2.png","-1","fruit","","apple","2","0"
"html-keyboard-response","216","811756","0.0-9.0-2.0-0.65","1420","2","2","""event"",""trial"",""time""
""fullscreenenter"",""1"",""2190""
","
","
","""event"",""trial"",""time""
""fullscreenenter"",""1"",""2190""
","
","","","","","","null","<div style=""font-size:60px;"">+</div>","null","","fixation","","","","","","","","","","","","","",""
"learning-trial","217","815767","0.0-9.0-2.0-1.65","1420","2","2","""event"",""trial"",""time""
""fullscreenenter"",""1"",""2190""
","
","
","""event"",""trial"",""time""
""fullscreenenter"",""1"",""2190""
","
","","","","","","1096.3649999999907","images/straw4.png","","","learning","images/fruit_choice3.png","images/fruit_choice1.png","images/fruit_choice2.png","[2,0,1]","1","2","1","images/fruit_choice3.png","-1","fruit","","straw","2","0"
"html-keyboard-response","218","816272","0.0-9.0-2.0-0.66","1420","2","2","""event"",""trial"",""time""
""fullscreenenter"",""1"",""2190""
","
","
","""event"",""trial"",""time""
""fullscreenenter"",""1"",""2190""
","
","","","","","","null","<div style=""font-size:60px;"">+</div>","null","","fixation","","","","","","","","","","","","","",""
"learning-trial","219","820277","0.0-9.0-2.0-1.66","1420","2","2","""event"",""trial"",""time""
""fullscreenenter"",""1"",""2190""
","
","
","""event"",""trial"",""time""
""fullscreenenter"",""1"",""2190""
","
","","","","","","1923.6149999998743","images/orange3.png","","","learning","images/fruit_choice2.png","images/fruit_choice3.png","images/fruit_choice1.png","[1,2,0]","1","0","2","images/fruit_choice3.png","-1","fruit","","orange","2","0"
"html-keyboard-response","220","820784","0.0-9.0-2.0-0.67","1420","2","2","""event"",""trial"",""time""
""fullscreenenter"",""1"",""2190""
","
","
","""event"",""trial"",""time""
""fullscreenenter"",""1"",""2190""
","
","","","","","","null","<div style=""font-size:60px;"">+</div>","null","","fixation","","","","","","","","","","","","","",""
"learning-trial","221","824788","0.0-9.0-2.0-1.67","1420","2","2","""event"",""trial"",""time""
""fullscreenenter"",""1"",""2190""
","
","
","""event"",""trial"",""time""
""fullscreenenter"",""1"",""2190""
","
","","","","","","2115.7299999999814","images/orange4.png","","","learning","images/fruit_choice1.png","images/fruit_choice3.png","images/fruit_choice2.png","[0,2,1]","2","1","3","images/fruit_choice2.png","-1","fruit","","orange","2","0"
"html-keyboard-response","222","825296","0.0-9.0-2.0-0.68","1420","2","2","""event"",""trial"",""time""
""fullscreenenter"",""1"",""2190""
","
","
","""event"",""trial"",""time""
""fullscreenenter"",""1"",""2190""
","
","","","","","","null","<div style=""font-size:60px;"">+</div>","null","","fixation","","","","","","","","","","","","","",""
"learning-trial","223","829303","0.0-9.0-2.0-1.68","1420","2","2","""event"",""trial"",""time""
""fullscreenenter"",""1"",""2190""
","
","
","""event"",""trial"",""time""
""fullscreenenter"",""1"",""2190""
","
","","","","","","1856.9899999999907","images/straw1.png","","","learning","images/fruit_choice3.png","images/fruit_choice1.png","images/fruit_choice2.png","[2,0,1]","2","0","1","images/fruit_choice3.png","1","fruit","","straw","2","0"
"html-keyboard-response","224","829809","0.0-9.0-2.0-0.69","1420","2","2","""event"",""trial"",""time""
""fullscreenenter"",""1"",""2190""
","
","
","""event"",""trial"",""time""
""fullscreenenter"",""1"",""2190""
","
","","","","","","null","<div style=""font-size:60px;"">+</div>","null","","fixation","","","","","","","","","","","","","",""
"learning-trial","225","833819","0.0-9.0-2.0-1.69","1420","2","2","""event"",""trial"",""time""
""fullscreenenter"",""1"",""2190""
","
","
","""event"",""trial"",""time""
""fullscreenenter"",""1"",""2190""
","
","","","","","","1729.1999999999534","images/straw5.png","","","learning","images/fruit_choice3.png","images/fruit_choice2.png","images/fruit_choice1.png","[2,1,0]","0","2","2","images/fruit_choice2.png","-1","fruit","","straw","2","0"
"html-keyboard-response","226","834322","0.0-9.0-2.0-0.70","1420","2","2","""event"",""trial"",""time""
""fullscreenenter"",""1"",""2190""
","
","
","""event"",""trial"",""time""
""fullscreenenter"",""1"",""2190""
","
","","","","","","null","<div style=""font-size:60px;"">+</div>","null","","fixation","","","","","","","","","","","","","",""
"learning-trial","227","838328","0.0-9.0-2.0-1.70","1420","2","2","""event"",""trial"",""time""
""fullscreenenter"",""1"",""2190""
","
","
","""event"",""trial"",""time""
""fullscreenenter"",""1"",""2190""
","
","","","","","","617.5349999997998","images/orange4.png","","","learning","images/fruit_choice2.png","images/fruit_choice1.png","images/fruit_choice3.png","[1,0,2]","2","2","1","images/fruit_choice2.png","-1","fruit","","orange","2","0"
"html-keyboard-response","228","838838","0.0-9.0-2.0-0.71","1420","2","2","""event"",""trial"",""time""
""fullscreenenter"",""1"",""2190""
","
","
","""event"",""trial"",""time""
""fullscreenenter"",""1"",""2190""
","
","","","","","","null","<div style=""font-size:60px;"">+</div>","null","","fixation","","","","","","","","","","","","","",""
"learning-trial","229","842843","0.0-9.0-2.0-1.71","1420","2","2","""event"",""trial"",""time""
""fullscreenenter"",""1"",""2190""
","
","
","""event"",""trial"",""time""
""fullscreenenter"",""1"",""2190""
","
","","","","","","1949.910000000149","images/apple3.png","","","learning","images/fruit_choice2.png","images/fruit_choice1.png","images/fruit_choice3.png","[1,0,2]","2","2","1","images/fruit_choice2.png","1","fruit","","apple","2","0"
"html-button-response","230","854963","0.0-9.0-3.0","1420","2","2","""event"",""trial"",""time""
""fullscreenenter"",""1"",""2190""
","
","
","""event"",""trial"",""time""
""fullscreenenter"",""1"",""2190""
","
","","","","","","12118.990000000224","<p> You have completed the round! <p> In this round, you earned -12 points! </p>","0","","break","","","","","","","","","","","","","",""
"html-button-response","231","856483","0.0-10.0","1420","2","2","""event"",""trial"",""time""
""fullscreenenter"",""1"",""2190""
","
","
","""event"",""trial"",""time""
""fullscreenenter"",""1"",""2190""
","
","","","","","","1518.2499999997672","<p> Now it's time to play another round. </p>","0","","transition_screen","","","","","","","","","","","","","",""
"preload","232","859521","0.0-11.0-0.0","1420","2","2","""event"",""trial"",""time""
""fullscreenenter"",""1"",""2190""
","
","
","""event"",""trial"",""time""
""fullscreenenter"",""1"",""2190""
","
","true","false","[]","[]","[]","","","","","","","","","","","","","","","","","","",""
"learning-instructions","233","871234","0.0-11.0-1.0-0.0","1420","2","2","""event"",""trial"",""time""
""fullscreenenter"",""1"",""2190""
","
","
","""event"",""trial"",""time""
""fullscreenenter"",""1"",""2190""
","
","","","","","","3155.1999999999534","<p> Your goal in this round is to deliver furniture to three different buildings. </p><p> You will need to deliver many pieces of furniture. </p></div>","","0","instructions","","","","","","","","","","","","","",""
"learning-instructions","234","880579","0.0-11.0-1.0-0.1","1420","2","2","""event"",""trial"",""time""
""fullscreenenter"",""1"",""2190""
","
","
","""event"",""trial"",""time""
""fullscreenenter"",""1"",""2190""
","
","","","","","","1907.7749999999069","<p> On each turn, you will see a picture of a furniture item and three different buildings.  </p><p> You need to select the building that you want to deliver the furniture to.  </p>","","0","instructions","","","","","","","","","","","","","",""
"learning-instructions","235","895130","0.0-11.0-1.0-0.2","1420","2","2","""event"",""trial"",""time""
""fullscreenenter"",""1"",""2190""
","
","
","""event"",""trial"",""time""
""fullscreenenter"",""1"",""2190""
","
","","","","","","6240.2050000000745","<p> You can select the building on the left by pressing 1, the building in the middle by pressing 2, and the building on the right by pressing 3.  </p><br><div class=""choice-instructions-grid""> <div class=""choice-option""><img src=""images/furniture_choice1.png"" class=""choice-option-img"" stage=""instructions"" position=""0"" ><div class=""choice-option-text""> Press ""1."" </div></div><div class=""choice-option""><img src=""images/furniture_choice2.png"" class=""choice-option-img"" stage=""instructions"" position=""1"" ><div class=""choice-option-text""> Press ""2."" </div></div><div class=""choice-option""><img src=""images/furniture_choice3.png"" class=""choice-option-img"" stage=""instructions"" position=""2"" ><div class=""choice-option-text""> Press ""3."" </div></div></div>","","0","instructions","","","","","","","","","","","","","",""
"learning-instructions","236","903058","0.0-11.0-1.0-0.3","1420","2","2","""event"",""trial"",""time""
""fullscreenenter"",""1"",""2190""
","
","
","""event"",""trial"",""time""
""fullscreenenter"",""1"",""2190""
","
