"trial_type","trial_index","time_elapsed","internal_node_id","subject_id","condition","task_version","interactions","blur_events","focus_events","fullscreenenter_events","fullscreenexit_events","success","timeout","failed_images","failed_audio","failed_video","rt","stimulus","response","button_pressed","task_part","left_choice","middle_choice","right_choice","choice_positions","correct_response","correct_position","key_press","option_selected","points","task_block","correct","stim_cat","block_condition","block_number"
"pavlovia","0","2","0.0-0.0","1532","1","2","""event"",""trial"",""time""
""fullscreenenter"",""1"",""3240""
","
","
","""event"",""trial"",""time""
""fullscreenenter"",""1"",""3240""
","
","","","","","","","","","","","","","","","","","","","","","","","",""
"fullscreen","1","4205","0.0-1.0","1532","1","2","""event"",""trial"",""time""
""fullscreenenter"",""1"",""3240""
","
","
","""event"",""trial"",""time""
""fullscreenenter"",""1"",""3240""
","
","true","","","","","","","","","","","","","","","","","","","","","","",""
"preload","2","11583","0.0-2.0","1532","1","2","""event"",""trial"",""time""
""fullscreenenter"",""1"",""3240""
","
","
","""event"",""trial"",""time""
""fullscreenenter"",""1"",""3240""
","
","true","false","[]","[]","[]","","","","","","","","","","","","","","","","","","",""
"audio-keyboard-response","3","13862","0.0-3.0","1532","1","2","""event"",""trial"",""time""
""fullscreenenter"",""1"",""3240""
","
","
","""event"",""trial"",""time""
""fullscreenenter"",""1"",""3240""
","
","","","","","","2277.333333333333","audio/beep_loop.wav"," ","","","","","","","","","","","","","","","",""
"audio-button-response","4","15150","0.0-4.0","1532","1","2","""event"",""trial"",""time""
""fullscreenenter"",""1"",""3240""
","
","
","""event"",""trial"",""time""
""fullscreenenter"",""1"",""3240""
","
","","","","","","1285","audio/shark.wav","4","","","","","","","","","","","","","","","",""
"audio-button-response","5","18754","0.0-5.0","1532","1","2","""event"",""trial"",""time""
""fullscreenenter"",""1"",""3240""
","
","
","""event"",""trial"",""time""
""fullscreenenter"",""1"",""3240""
","
","","","","","","2592","audio/turtle.wav","1","","","","","","","","","","","","","","","",""
"preload","6","22862","0.0-6.0","1532","1","2","""event"",""trial"",""time""
""fullscreenenter"",""1"",""3240""
","
","
","""event"",""trial"",""time""
""fullscreenenter"",""1"",""3240""
","
","true","false","[]","[]","[]","","","","","","","","","","","","","","","","","","",""
"html-keyboard-response","7","24614","0.0-7.0","1532","1","2","""event"",""trial"",""time""
""fullscreenenter"",""1"",""3240""
","
","
","""event"",""trial"",""time""
""fullscreenenter"",""1"",""3240""
","
","","","","","","1750.5","Welcome to the experiment. Press any key to begin and to advance the instructions.","k","","","","","","","","","","","","","","","",""
"learning-instructions","8","33763","0.0-8.0-0.0-0.0","1532","1","2","""event"",""trial"",""time""
""fullscreenenter"",""1"",""3240""
","
","
","""event"",""trial"",""time""
""fullscreenenter"",""1"",""3240""
","
","","","","","","1397.0999994277954","<p> Welcome! Today you are going to play 6 different rounds of a decision-making game. </p><p> Use the mouse to click next to continue. </p>","","0","instructions","","","","","","","","","","","","","",""
"learning-instructions","9","38495","0.0-8.0-0.0-0.1","1532","1","2","""event"",""trial"",""time""
""fullscreenenter"",""1"",""3240""
","
","
","""event"",""trial"",""time""
""fullscreenenter"",""1"",""3240""
","
","","","","","","1729.5","<p> You will start with a practice round to learn the rules. </p>","","0","instructions","","","","","","","","","","","","","",""
"learning-instructions","10","47568","0.0-8.0-0.0-0.2","1532","1","2","""event"",""trial"",""time""
""fullscreenenter"",""1"",""3240""
","
","
","""event"",""trial"",""time""
""fullscreenenter"",""1"",""3240""
","
","","","","","","1336.0999994277954","<p> Your goal in this round is to deliver sports equipment to three different parks. </p><p> You will need to deliver many types of equipment. </p></div>","","0","instructions","","","","","","","","","","","","","",""
"learning-instructions","11","59428","0.0-8.0-0.0-0.3","1532","1","2","""event"",""trial"",""time""
""fullscreenenter"",""1"",""3240""
","
","
","""event"",""trial"",""time""
""fullscreenenter"",""1"",""3240""
","
","","","","","","3376.5999994277954","<p> On each turn, you will see one piece of sports equipment and three different parks.  </p><p> You need to select which park to deliver the equipment to.  </p>","","0","instructions","","","","","","","","","","","","","",""
"learning-instructions","12","75332","0.0-8.0-0.0-0.4","1532","1","2","""event"",""trial"",""time""
""fullscreenenter"",""1"",""3240""
","
","
","""event"",""trial"",""time""
""fullscreenenter"",""1"",""3240""
","
","","","","","","2624.4000005722046","<p> You can select the park on the left by pressing the '1' key on your keyboard. <br>You can select the park in the middle by pressing the '2' key on your keyboard. <br>You can select the park on the right by pressing the '3' key on your keyboard.  </p><br><div class=""choice-instructions-grid""> <div class=""choice-option""><img src=""images/park1.png"" class=""choice-option-img"" stage=""instructions"" position=""0"" ><div class=""choice-option-text""> Press ""1."" </div></div><div class=""choice-option""><img src=""images/park2.png"" class=""choice-option-img"" stage=""instructions"" position=""1"" ><div class=""choice-option-text""> Press ""2."" </div></div><div class=""choice-option""><img src=""images/park3.png"" class=""choice-option-img"" stage=""instructions"" position=""2"" ><div class=""choice-option-text""> Press ""3."" </div></div></div>","","0","instructions","","","","","","","","","","","","","",""
"learning-instructions","13","81937","0.0-8.0-0.0-0.5","1532","1","2","""event"",""trial"",""time""
""fullscreenenter"",""1"",""3240""
","
","
","""event"",""trial"",""time""
""fullscreenenter"",""1"",""3240""
","
","","","","","","1225","<p> If the kids in the park you chose like the equipment, they will be very happy! </p><div style='float: center;'><img src='images/check.png' width = '200' height = '200'></img>","","0","instructions","","","","","","","","","","","","","",""
"learning-instructions","14","91522","0.0-8.0-0.0-0.6","1532","1","2","""event"",""trial"",""time""
""fullscreenenter"",""1"",""3240""
","
","
","""event"",""trial"",""time""
""fullscreenenter"",""1"",""3240""
","
","","","","","","3999.5","<p> But, if the kids in the park you chose do not like the equipment, they will be sad. </p><div style='float: center;'><img src='images/x.png' width = '200' height = '200'></img>","","0","instructions","","","","","","","","","","","","","",""
"learning-instructions","15","100365","0.0-8.0-0.0-0.7","1532","1","2","""event"",""trial"",""time""
""fullscreenenter"",""1"",""3240""
","
","
","""event"",""trial"",""time""
""fullscreenenter"",""1"",""3240""
","
","","","","","","2416.699999809265","<p> Importantly, the kids in each park like some pieces of sports equipment more than others. </p>","","0","instructions","","","","","","","","","","","","","",""
"learning-instructions","16","108535","0.0-8.0-0.0-0.8","1532","1","2","""event"",""trial"",""time""
""fullscreenenter"",""1"",""3240""
","
","
","""event"",""trial"",""time""
""fullscreenenter"",""1"",""3240""
","
","","","","","","2121","<p> If you choose the best park for each piece of equipment, the kids there will usually be happy. </p>","","0","instructions","","","","","","","","","","","","","",""
"learning-instructions","17","116292","0.0-8.0-0.0-0.9","1532","1","2","""event"",""trial"",""time""
""fullscreenenter"",""1"",""3240""
","
","
","""event"",""trial"",""time""
""fullscreenenter"",""1"",""3240""
","
","","","","","","1116.3999996185303","<p> However, even if you choose the best park for the equipment, the kids may sometimes be sad. </p>","","0","instructions","","","","","","","","","","","","","",""
"learning-instructions","18","127575","0.0-8.0-0.0-0.10","1532","1","2","""event"",""trial"",""time""
""fullscreenenter"",""1"",""3240""
","
","
","""event"",""trial"",""time""
""fullscreenenter"",""1"",""3240""
","
","","","","","","4052.800000190735","<p> Similarly, even if you choose the <i>wrong</i> park for the equipment, the kids may still be happy sometimes.","","0","instructions","","","","","","","","","","","","","",""
"learning-instructions","19","133665","0.0-8.0-0.0-0.11","1532","1","2","""event"",""trial"",""time""
""fullscreenenter"",""1"",""3240""
","
","
","""event"",""trial"",""time""
""fullscreenenter"",""1"",""3240""
","
","","","","","","1038.6999998092651","<p> For example, the best park for this soccer ball is this one.<div style='float: center;'><img src='images/i1.png' width = '500' height = '268'></img>","","0","instructions","","","","","","","","","","","","","",""
"learning-instructions","20","139875","0.0-8.0-0.0-0.12","1532","1","2","""event"",""trial"",""time""
""fullscreenenter"",""1"",""3240""
","
","
","""event"",""trial"",""time""
""fullscreenenter"",""1"",""3240""
","
","","","","","","924.1999998092651","<p> Let's see what happens if you choose this park for the soccer ball five times.","","0","instructions","","","","","","","","","","","","","",""
"learning-instructions","21","143268","0.0-8.0-0.0-0.13","1532","1","2","""event"",""trial"",""time""
""fullscreenenter"",""1"",""3240""
","
","
","""event"",""trial"",""time""
""fullscreenenter"",""1"",""3240""
","
","","","","","","1223","<p> The kids are happy.<div style='float: left;'><img src='images/i2.png' width = '640' height = '360'></img>","","0","instructions","","","","","","","","","","","","","",""
"learning-instructions","22","145822","0.0-8.0-0.0-0.14","1532","1","2","""event"",""trial"",""time""
""fullscreenenter"",""1"",""3240""
","
","
","""event"",""trial"",""time""
""fullscreenenter"",""1"",""3240""
","
","","","","","","391","<p> The kids are happy.<div style='float: left;'><img src='images/i3.png' width = '640' height = '360'></img>","","0","instructions","","","","","","","","","","","","","",""
"learning-instructions","23","148310","0.0-8.0-0.0-0.15","1532","1","2","""event"",""trial"",""time""
""fullscreenenter"",""1"",""3240""
","
","
","""event"",""trial"",""time""
""fullscreenenter"",""1"",""3240""
","
","","","","","","324","<p> The kids are happy.<div style='float: left;'><img src='images/i4.png' width = '640' height = '360'></img>","","0","instructions","","","","","","","","","","","","","",""
"learning-instructions","24","150892","0.0-8.0-0.0-0.16","1532","1","2","""event"",""trial"",""time""
""fullscreenenter"",""1"",""3240""
","
","
","""event"",""trial"",""time""
""fullscreenenter"",""1"",""3240""
","
","","","","","","378","<p> The kids are sad.<div style='float: left;'><img src='images/i5.png' width = '640' height = '360'></img>","","0","instructions","","","","","","","","","","","","","",""
"learning-instructions","25","153390","0.0-8.0-0.0-0.17","1532","1","2","""event"",""trial"",""time""
""fullscreenenter"",""1"",""3240""
","
","
","""event"",""trial"",""time""
""fullscreenenter"",""1"",""3240""
","
","","","","","","332.5","<p> The kids are happy.<div style='float: left;'><img src='images/i6.png' width = '640' height = '360'></img>","","0","instructions","","","","","","","","","","","","","",""
"learning-instructions","26","161127","0.0-8.0-0.0-0.18","1532","1","2","""event"",""trial"",""time""
""fullscreenenter"",""1"",""3240""
","
","
","""event"",""trial"",""time""
""fullscreenenter"",""1"",""3240""
","
","","","","","","469.5999994277954","<p> As you can see, selecting that park for the soccer ball made the kids happy most of the time, but not all the time.","","0","instructions","","","","","","","","","","","","","",""
"learning-instructions","27","167907","0.0-8.0-0.0-0.19","1532","1","2","""event"",""trial"",""time""
""fullscreenenter"",""1"",""3240""
","
","
","""event"",""trial"",""time""
""fullscreenenter"",""1"",""3240""
","
","","","","","","780.8999996185303","<p> Now let's see what happens if you choose a DIFFERENT park for the soccer ball 5 times.","","0","instructions","","","","","","","","","","","","","",""
"learning-instructions","28","170622","0.0-8.0-0.0-0.20","1532","1","2","""event"",""trial"",""time""
""fullscreenenter"",""1"",""3240""
","
","
","""event"",""trial"",""time""
""fullscreenenter"",""1"",""3240""
","
","","","","","","513.7000007629395","<p> The kids are sad.<div style='float: left;'><img src='images/i7.png' width = '640' height = '360'></img>","","0","instructions","","","","","","","","","","","","","",""
"learning-instructions","29","173129","0.0-8.0-0.0-0.21","1532","1","2","""event"",""trial"",""time""
""fullscreenenter"",""1"",""3240""
","
","
","""event"",""trial"",""time""
""fullscreenenter"",""1"",""3240""
","
","","","","","","306.20000076293945","<p> The kids are sad.<div style='float: left;'><img src='images/i8.png' width = '640' height = '360'></img>","","0","instructions","","","","","","","","","","","","","",""
"learning-instructions","30","176165","0.0-8.0-0.0-0.22","1532","1","2","""event"",""trial"",""time""
""fullscreenenter"",""1"",""3240""
","
","
","""event"",""trial"",""time""
""fullscreenenter"",""1"",""3240""
","
","","","","","","872.8999996185303","<p> The kids are happy.<div style='float: left;'><img src='images/i9.png' width = '640' height = '360'></img>","","0","instructions","","","","","","","","","","","","","",""
"learning-instructions","31","179281","0.0-8.0-0.0-0.23","1532","1","2","""event"",""trial"",""time""
""fullscreenenter"",""1"",""3240""
","
","
","""event"",""trial"",""time""
""fullscreenenter"",""1"",""3240""
","
","","","","","","912","<p> The kids are sad.<div style='float: left;'><img src='images/i10.png' width = '640' height = '360'></img>","","0","instructions","","","","","","","","","","","","","",""
"learning-instructions","32","181901","0.0-8.0-0.0-0.24","1532","1","2","""event"",""trial"",""time""
""fullscreenenter"",""1"",""3240""
","
","
","""event"",""trial"",""time""
""fullscreenenter"",""1"",""3240""
","
","","","","","","417.3999996185303","<p> The kids are sad.<div style='float: left;'><img src='images/i11.png' width = '640' height = '360'></img>","","0","instructions","","","","","","","","","","","","","",""
"learning-instructions","33","191190","0.0-8.0-0.0-0.25","1532","1","2","""event"",""trial"",""time""
""fullscreenenter"",""1"",""3240""
","
","
","""event"",""trial"",""time""
""fullscreenenter"",""1"",""3240""
","
","","","","","","1173.5999994277954","<p> As you can see, selecting the wrong park for the soccer ball made the kids sad most of the time, but not all the time.","","0","instructions","","","","","","","","","","","","","",""
"learning-instructions","34","200691","0.0-8.0-0.0-0.26","1532","1","2","""event"",""trial"",""time""
""fullscreenenter"",""1"",""3240""
","
","
","""event"",""trial"",""time""
""fullscreenenter"",""1"",""3240""
","
","","","","","","391.70000076293945","<p> The different pieces of equipment belong in different parks. You need to try to learn which is the best park for each piece of equipment.","","0","instructions","","","","","","","","","","","","","",""
"learning-instructions","35","217464","0.0-8.0-0.0-0.27","1532","1","2","""event"",""trial"",""time""
""fullscreenenter"",""1"",""3240""
","
","
","""event"",""trial"",""time""
""fullscreenenter"",""1"",""3240""
","
","","","","","","385.4000005722046","<p> Try to choose the best park for each piece of equipment, because you will <b> WIN </b> 1 point for each time you make the kids happy and <b>LOSE</b> 1 point for each time you make them sad. </p><p> Remember, if you make the best choice, you will win 1 point most of the time, but not all the time. </p>","","0","instructions","","","","","","","","","","","","","",""
"learning-instructions","36","223761","0.0-8.0-0.0-0.28","1532","1","2","""event"",""trial"",""time""
""fullscreenenter"",""1"",""3240""
","
","
","""event"",""trial"",""time""
""fullscreenenter"",""1"",""3240""
","
","","","","","","821.3000001907349","<p> This is just a practice round, but in the real game, your bonus payment will depend on your total number of points.","","0","instructions","","","","","","","","","","","","","",""
"learning-instructions","37","235473","0.0-8.0-0.0-0.29","1532","1","2","""event"",""trial"",""time""
""fullscreenenter"",""1"",""3240""
","
","
","""event"",""trial"",""time""
""fullscreenenter"",""1"",""3240""
","
","","","","","","1392.7999992370605","<p> The position where each park appears will change throughout the game. </p><p> The position where the park appears <i> does not </i> influence how likely the kids are to be happy or sad. </p>","","0","instructions","","","","","","","","","","","","","",""
"learning-instructions","38","245366","0.0-8.0-0.0-0.30","1532","1","2","""event"",""trial"",""time""
""fullscreenenter"",""1"",""3240""
","
","
","""event"",""trial"",""time""
""fullscreenenter"",""1"",""3240""
","
","","","","","","331.1000003814697","<p> You will have 4 seconds to make each choice. Try to respond before time runs out! </p><p> You will lose 1 point each time you do not make a response. </p>","","0","instructions","","","","","","","","","","","","","",""
"learning-instructions","39","252714","0.0-8.0-0.0-0.31","1532","1","2","""event"",""trial"",""time""
""fullscreenenter"",""1"",""3240""
","
","
","""event"",""trial"",""time""
""fullscreenenter"",""1"",""3240""
","
","","","","","","563.6000003814697","<p> Remember, you should use the 1, 2, and 3 keys to select the park for each piece of equipment. </p><br><div class=""choice-instructions-grid""> <div class=""choice-option""><img src=""images/park1.png"" class=""choice-option-img"" stage=""instructions"" position=""0"" ><div class=""choice-option-text""> Press ""1."" </div></div><div class=""choice-option""><img src=""images/park2.png"" class=""choice-option-img"" stage=""instructions"" position=""1"" ><div class=""choice-option-text""> Press ""2."" </div></div><div class=""choice-option""><img src=""images/park3.png"" class=""choice-option-img"" stage=""instructions"" position=""2"" ><div class=""choice-option-text""> Press ""3."" </div></div></div>","","0","instructions","","","","","","","","","","","","","",""
"html-button-response","40","253811","0.0-8.0-1.0","1532","1","2","""event"",""trial"",""time""
""fullscreenenter"",""1"",""3240""
","
","
","""event"",""trial"",""time""
""fullscreenenter"",""1"",""3240""
","
","","","","","","994.2000007629395","<p> Ready to practice? </p>","0","","","","","","","","","","","","","","","",""
"html-keyboard-response","41","254415","0.0-8.0-2.0-0.0","1532","1","2","""event"",""trial"",""time""
""fullscreenenter"",""1"",""3240""
","
","
","""event"",""trial"",""time""
""fullscreenenter"",""1"",""3240""
","
","","","","","","null","<div style=""font-size:60px;"">+</div>","null","","fixation","","","","","","","","","","","","","",""
"learning-trial","42","258421","0.0-8.0-2.0-1.0","1532","1","2","""event"",""trial"",""time""
""fullscreenenter"",""1"",""3240""
","
","
","""event"",""trial"",""time""
""fullscreenenter"",""1"",""3240""
","
","","","","","","636","images/racket2.png","","","practice","images/park3.png","images/park1.png","images/park2.png","[2,0,1]","1","2","1","images/park3.png","-1","practice","","","",""
"html-keyboard-response","43","258927","0.0-8.0-2.0-0.1","1532","1","2","""event"",""trial"",""time""
""fullscreenenter"",""1"",""3240""
","
","
","""event"",""trial"",""time""
""fullscreenenter"",""1"",""3240""
","
","","","","","","null","<div style=""font-size:60px;"">+</div>","null","","fixation","","","","","","","","","","","","","",""
"learning-trial","44","262932","0.0-8.0-2.0-1.1","1532","1","2","""event"",""trial"",""time""
""fullscreenenter"",""1"",""3240""
","
","
","""event"",""trial"",""time""
""fullscreenenter"",""1"",""3240""
","
","","","","","","855","images/racket1.png","","","practice","images/park3.png","images/park1.png","images/park2.png","[2,0,1]","2","0","2","images/park1.png","-1","practice","","","",""
"html-keyboard-response","45","263435","0.0-8.0-2.0-0.2","1532","1","2","""event"",""trial"",""time""
""fullscreenenter"",""1"",""3240""
","
","
","""event"",""trial"",""time""
""fullscreenenter"",""1"",""3240""
","
","","","","","","null","<div style=""font-size:60px;"">+</div>","null","","fixation","","","","","","","","","","","","","",""
"learning-trial","46","267440","0.0-8.0-2.0-1.2","1532","1","2","""event"",""trial"",""time""
""fullscreenenter"",""1"",""3240""
","
","
","""event"",""trial"",""time""
""fullscreenenter"",""1"",""3240""
","
","","","","","","1066.1000003814697","images/ball2.png","","","practice","images/park2.png","images/park1.png","images/park3.png","[1,0,2]","2","2","1","images/park2.png","-1","practice","","","",""
"html-keyboard-response","47","267944","0.0-8.0-2.0-0.3","1532","1","2","""event"",""trial"",""time""
""fullscreenenter"",""1"",""3240""
","
","
","""event"",""trial"",""time""
""fullscreenenter"",""1"",""3240""
","
","","","","","","null","<div style=""font-size:60px;"">+</div>","null","","fixation","","","","","","","","","","","","","",""
"learning-trial","48","271949","0.0-8.0-2.0-1.3","1532","1","2","""event"",""trial"",""time""
""fullscreenenter"",""1"",""3240""
","
","
","""event"",""trial"",""time""
""fullscreenenter"",""1"",""3240""
","
","","","","","","1275.4000005722046","images/racket3.png","","","practice","images/park1.png","images/park3.png","images/park2.png","[0,2,1]","0","0","1","images/park1.png","1","practice","","","",""
"html-keyboard-response","49","272452","0.0-8.0-2.0-0.4","1532","1","2","""event"",""trial"",""time""
""fullscreenenter"",""1"",""3240""
","
","
","""event"",""trial"",""time""
""fullscreenenter"",""1"",""3240""
","
","","","","","","null","<div style=""font-size:60px;"">+</div>","null","","fixation","","","","","","","","","","","","","",""
"learning-trial","50","276461","0.0-8.0-2.0-1.4","1532","1","2","""event"",""trial"",""time""
""fullscreenenter"",""1"",""3240""
","
","
","""event"",""trial"",""time""
""fullscreenenter"",""1"",""3240""
","
","","","","","","1233.2000007629395","images/ball4.png","","","practice","images/park2.png","images/park3.png","images/park1.png","[1,2,0]","0","2","2","images/park3.png","-1","practice","","","",""
"html-keyboard-response","51","276963","0.0-8.0-2.0-0.5","1532","1","2","""event"",""trial"",""time""
""fullscreenenter"",""1"",""3240""
","
","
","""event"",""trial"",""time""
""fullscreenenter"",""1"",""3240""
","
","","","","","","null","<div style=""font-size:60px;"">+</div>","null","","fixation","","","","","","","","","","","","","",""
"learning-trial","52","280969","0.0-8.0-2.0-1.5","1532","1","2","""event"",""trial"",""time""
""fullscreenenter"",""1"",""3240""
","
","
","""event"",""trial"",""time""
""fullscreenenter"",""1"",""3240""
","
","","","","","","1680.6999998092651","images/racket3.png","","","practice","images/park1.png","images/park2.png","images/park3.png","[0,1,2]","0","0","1","images/park1.png","1","practice","","","",""
"html-keyboard-response","53","281476","0.0-8.0-2.0-0.6","1532","1","2","""event"",""trial"",""time""
""fullscreenenter"",""1"",""3240""
","
","
","""event"",""trial"",""time""
""fullscreenenter"",""1"",""3240""
","
","","","","","","null","<div style=""font-size:60px;"">+</div>","null","","fixation","","","","","","","","","","","","","",""
"learning-trial","54","285481","0.0-8.0-2.0-1.6","1532","1","2","""event"",""trial"",""time""
""fullscreenenter"",""1"",""3240""
","
","
","""event"",""trial"",""time""
""fullscreenenter"",""1"",""3240""
","
","","","","","","1225","images/ball4.png","","","practice","images/park2.png","images/park3.png","images/park1.png","[1,2,0]","0","2","1","images/park2.png","-1","practice","","","",""
"html-keyboard-response","55","285986","0.0-8.0-2.0-0.7","1532","1","2","""event"",""trial"",""time""
""fullscreenenter"",""1"",""3240""
","
","
","""event"",""trial"",""time""
""fullscreenenter"",""1"",""3240""
","
","","","","","","null","<div style=""font-size:60px;"">+</div>","null","","fixation","","","","","","","","","","","","","",""
"learning-trial","56","289994","0.0-8.0-2.0-1.7","1532","1","2","""event"",""trial"",""time""
""fullscreenenter"",""1"",""3240""
","
","
","""event"",""trial"",""time""
""fullscreenenter"",""1"",""3240""
","
","","","","","","1287.3999996185303","images/racket4.png","","","practice","images/park3.png","images/park1.png","images/park2.png","[2,0,1]","1","2","2","images/park1.png","-1","practice","","","",""
"html-keyboard-response","57","290501","0.0-8.0-2.0-0.8","1532","1","2","""event"",""trial"",""time""
""fullscreenenter"",""1"",""3240""
","
","
","""event"",""trial"",""time""
""fullscreenenter"",""1"",""3240""
","
","","","","","","null","<div style=""font-size:60px;"">+</div>","null","","fixation","","","","","","","","","","","","","",""
"learning-trial","58","294506","0.0-8.0-2.0-1.8","1532","1","2","""event"",""trial"",""time""
""fullscreenenter"",""1"",""3240""
","
","
","""event"",""trial"",""time""
""fullscreenenter"",""1"",""3240""
","
","","","","","","1553","images/racket2.png","","","practice","images/park2.png","images/park3.png","images/park1.png","[1,2,0]","1","0","1","images/park2.png","1","practice","","","",""
"html-keyboard-response","59","295012","0.0-8.0-2.0-0.9","1532","1","2","""event"",""trial"",""time""
""fullscreenenter"",""1"",""3240""
","
","
","""event"",""trial"",""time""
""fullscreenenter"",""1"",""3240""
","
","","","","","","null","<div style=""font-size:60px;"">+</div>","null","","fixation","","","","","","","","","","","","","",""
"learning-trial","60","299018","0.0-8.0-2.0-1.9","1532","1","2","""event"",""trial"",""time""
""fullscreenenter"",""1"",""3240""
","
","
","""event"",""trial"",""time""
""fullscreenenter"",""1"",""3240""
","
","","","","","","1641","images/racket1.png","","","practice","images/park2.png","images/park1.png","images/park3.png","[1,0,2]","2","2","3","images/park3.png","1","practice","","","",""
"html-keyboard-response","61","299524","0.0-8.0-2.0-0.10","1532","1","2","""event"",""trial"",""time""
""fullscreenenter"",""1"",""3240""
","
","
","""event"",""trial"",""time""
""fullscreenenter"",""1"",""3240""
","
","","","","","","null","<div style=""font-size:60px;"">+</div>","null","","fixation","","","","","","","","","","","","","",""
"learning-trial","62","303529","0.0-8.0-2.0-1.10","1532","1","2","""event"",""trial"",""time""
""fullscreenenter"",""1"",""3240""
","
","
","""event"",""trial"",""time""
""fullscreenenter"",""1"",""3240""
","
","","","","","","1365.6999998092651","images/ball2.png","","","practice","images/park2.png","images/park3.png","images/park1.png","[1,2,0]","2","1","2","images/park3.png","1","practice","","","",""
"html-keyboard-response","63","304035","0.0-8.0-2.0-0.11","1532","1","2","""event"",""trial"",""time""
""fullscreenenter"",""1"",""3240""
","
","
","""event"",""trial"",""time""
""fullscreenenter"",""1"",""3240""
","
","","","","","","null","<div style=""font-size:60px;"">+</div>","null","","fixation","","","","","","","","","","","","","",""
"learning-trial","64","308043","0.0-8.0-2.0-1.11","1532","1","2","""event"",""trial"",""time""
""fullscreenenter"",""1"",""3240""
","
","
","""event"",""trial"",""time""
""fullscreenenter"",""1"",""3240""
","
","","","","","","1304.4000005722046","images/racket4.png","","","practice","images/park1.png","images/park3.png","images/park2.png","[0,2,1]","1","2","3","images/park2.png","1","practice","","","",""
"html-button-response","65","309017","0.0-8.0-3.0","1532","1","2","""event"",""trial"",""time""
""fullscreenenter"",""1"",""3240""
","
","
","""event"",""trial"",""time""
""fullscreenenter"",""1"",""3240""
","
","","","","","","970.2999992370605","<p> You earned 0 points in the practice round! </p>","0","","break","","","","","","","","","","","","","",""
"learning-instructions","66","317498","0.0-8.0-4.0-0.0","1532","1","2","""event"",""trial"",""time""
""fullscreenenter"",""1"",""3240""
","
","
","""event"",""trial"",""time""
""fullscreenenter"",""1"",""3240""
","
","","","","","","776.8999996185303","<p> It's almost time to start the real game. </p><p> Before you start, we're going to ask you a few questions about how the game works. </p>","","0","instructions","","","","","","","","","","","","","",""
"preload","67","318376","0.0-8.0-5.0","1532","1","2","""event"",""trial"",""time""
""fullscreenenter"",""1"",""3240""
","
","
","""event"",""trial"",""time""
""fullscreenenter"",""1"",""3240""
","
","true","false","[]","[]","[]","","","","","","","","","","","","","","","","","","",""
"comp-q","68","331939","0.0-8.0-6.0-0.0","1532","1","2","""event"",""trial"",""time""
""fullscreenenter"",""1"",""3240""
","
","
","""event"",""trial"",""time""
""fullscreenenter"",""1"",""3240""
","
","","","","","","8113","<p> <b> True or False? </b> </p><p> If you choose the best option, you will always earn 1 point. </p>","","0","comp_question","","","","","","","","","","","false","","",""
"comp-q","69","338411","0.0-8.0-6.0-1.0","1532","1","2","""event"",""trial"",""time""
""fullscreenenter"",""1"",""3240""
","
","
","""event"",""trial"",""time""
""fullscreenenter"",""1"",""3240""
","
","","","","","","920.8000001907349","<p><b> Incorrect. </b> Sometimes you will lose 1 point, even if you choose the best option. </p>","","0","comp_answer","","","","","","","","","","","","","",""
"comp-q","70","344913","0.0-8.0-6.0-0.1","1532","1","2","""event"",""trial"",""time""
""fullscreenenter"",""1"",""3240""
","
","
","""event"",""trial"",""time""
""fullscreenenter"",""1"",""3240""
","
","","","","","","1871.8000001907349","<p> <b> True or False? </b> </p><p> You will have as much time as you want to make each choice. </p>","","1","comp_question","","","","","","","","","","","true","","",""
"comp-q","71","350745","0.0-8.0-6.0-1.1","1532","1","2","""event"",""trial"",""time""
""fullscreenenter"",""1"",""3240""
","
","
","""event"",""trial"",""time""
""fullscreenenter"",""1"",""3240""
","
","","","","","","1017","<p> <b> That's right! </b> You will only have 4 seconds to make each choice. </p>","","0","comp_answer","","","","","","","","","","","","","",""
"comp-q","72","358345","0.0-8.0-6.0-0.2","1532","1","2","""event"",""trial"",""time""
""fullscreenenter"",""1"",""3240""
","
","
","""event"",""trial"",""time""
""fullscreenenter"",""1"",""3240""
","
","","","","","","1453.5999994277954","<p> <b> True or False? </b> </p><p> You should use the '1', '2', and '3' keys to make your choices. </p>","","0","comp_question","","","","","","","","","","","true","","",""
"comp-q","73","365425","0.0-8.0-6.0-1.2","1532","1","2","""event"",""trial"",""time""
""fullscreenenter"",""1"",""3240""
","
","
","""event"",""trial"",""time""
""fullscreenenter"",""1"",""3240""
","
","","","","","","2241.1000003814697","<p> <b> That's right! </b> You should use the '1', '2', and '3' keys to make each choice. </p>","","0","comp_answer","","","","","","","","","","","","","",""
"learning-instructions","74","375998","0.0-8.0-7.0-0.0","1532","1","2","""event"",""trial"",""time""
""fullscreenenter"",""1"",""3240""
","
","
","""event"",""trial"",""time""
""fullscreenenter"",""1"",""3240""
","
","","","","","","2087.699999809265","<p> It's now time to start the real game. </p>Do your best, because the points you earn in the next rounds will influence your bonus payment. </p>","","0","instructions","","","","","","","","","","","","","",""
"preload","75","382426","0.0-9.0-0.0","1532","1","2","""event"",""trial"",""time""
""fullscreenenter"",""1"",""3240""
","
","
","""event"",""trial"",""time""
""fullscreenenter"",""1"",""3240""
","
","true","false","[]","[]","[]","","","","","","","","","","","","","","","","","","",""
"learning-instructions","76","389982","0.0-9.0-1.0-0.0","1532","1","2","""event"",""trial"",""time""
""fullscreenenter"",""1"",""3240""
","
","
","""event"",""trial"",""time""
""fullscreenenter"",""1"",""3240""
","
","","","","","","1058.5","<p> Your goal in this round is to buy different types of fruits. </p><p> You will try to purchase many fruits from different stores. </p></div>","","0","instructions","","","","","","","","","","","","","",""
"learning-instructions","77","398893","0.0-9.0-1.0-0.1","1532","1","2","""event"",""trial"",""time""
""fullscreenenter"",""1"",""3240""
","
","
","""event"",""trial"",""time""
""fullscreenenter"",""1"",""3240""
","
","","","","","","418.0999994277954","<p> On each turn, you will see a picture of a fruit and three different stores.  </p><p> You need to select the store where you can buy that fruit.  </p>","","0","instructions","","","","","","","","","","","","","",""
"learning-instructions","78","408489","0.0-9.0-1.0-0.2","1532","1","2","""event"",""trial"",""time""
""fullscreenenter"",""1"",""3240""
","
","
","""event"",""trial"",""time""
""fullscreenenter"",""1"",""3240""
","
","","","","","","2220.7000007629395","<p> You can select the store on the left by pressing 1, the store in the middle by pressing 2, and the store on the right by pressing 3. </p><br><div class=""choice-instructions-grid""> <div class=""choice-option""><img src=""images/fruit_choice1.png"" class=""choice-option-img"" stage=""instructions"" position=""0"" ><div class=""choice-option-text""> Press ""1."" </div></div><div class=""choice-option""><img src=""images/fruit_choice2.png"" class=""choice-option-img"" stage=""instructions"" position=""1"" ><div class=""choice-option-text""> Press ""2."" </div></div><div class=""choice-option""><img src=""images/fruit_choice3.png"" class=""choice-option-img"" stage=""instructions"" position=""2"" ><div class=""choice-option-text""> Press ""3."" </div></div></div>","","0","instructions","","","","","","","","","","","","","",""
"learning-instructions","79","415616","0.0-9.0-1.0-0.3","1532","1","2","""event"",""trial"",""time""
""fullscreenenter"",""1"",""3240""
","
","
","""event"",""trial"",""time""
""fullscreenenter"",""1"",""3240""
","
","","","","","","2180.699999809265","<p> If you find the fruit in the store you chose, you will get to buy and eat it! </p><div style='float: center;'><img src='images/check.png' width = '200' height = '200'></img>","","0","instructions","","","","","","","","","","","","","",""
"learning-instructions","80","421504","0.0-9.0-1.0-0.4","1532","1","2","""event"",""trial"",""time""
""fullscreenenter"",""1"",""3240""
","
","
","""event"",""trial"",""time""
""fullscreenenter"",""1"",""3240""
","
","","","","","","1423.5999994277954","<p> But, if the fruit is not in that store, you will be hungry. </p><div style='float: center;'><img src='images/x.png' width = '200' height = '200'></img>","","0","instructions","","","","","","","","","","","","","",""
"learning-instructions","81","432546","0.0-9.0-1.0-0.5","1532","1","2","""event"",""trial"",""time""
""fullscreenenter"",""1"",""3240""
","
","
","""event"",""trial"",""time""
""fullscreenenter"",""1"",""3240""
","
","","","","","","1270.8000001907349","<p> Importantly, each fruit is more likely to be found in one of the stores. </p><p> If you choose the correct store, you will be more likely to be able to buy the fruit! </p>","","0","instructions","","","","","","","","","","","","","",""
"learning-instructions","82","443572","0.0-9.0-1.0-0.6","1532","1","2","""event"",""trial"",""time""
""fullscreenenter"",""1"",""3240""
","
","
","""event"",""trial"",""time""
""fullscreenenter"",""1"",""3240""
","
","","","","","","580.6000003814697","<p> However, even if you choose the best store for the fruit, the store might not have it sometimes. </p><p> Similarly, even if you choose the <i>wrong</i> store, it might still have the fruit.","","0","instructions","","","","","","","","","","","","","",""
"learning-instructions","83","456020","0.0-9.0-1.0-0.7","1532","1","2","""event"",""trial"",""time""
""fullscreenenter"",""1"",""3240""
","
","
","""event"",""trial"",""time""
""fullscreenenter"",""1"",""3240""
","
","","","","","","266.1000003814697","<p> Try to choose the best store for each fruit, because you will <b> WIN </b> 1 point for each fruit you eat and <b>LOSE</b> 1 point each time you are hungry. </p><p> Your bonus payment will depend on your total number of points.","","0","instructions","","","","","","","","","","","","","",""
"learning-instructions","84","465682","0.0-9.0-1.0-0.8","1532","1","2","""event"",""trial"",""time""
""fullscreenenter"",""1"",""3240""
","
","
","""event"",""trial"",""time""
""fullscreenenter"",""1"",""3240""
","
","","","","","","1458.5","<p> The position of each store will change throughout the round. </p><p> The store's position <i> does not </i> influence how likely you are to find the fruit. </p>","","0","instructions","","","","","","","","","","","","","",""
"learning-instructions","85","475347","0.0-9.0-1.0-0.9","1532","1","2","""event"",""trial"",""time""
""fullscreenenter"",""1"",""3240""
","
","
","""event"",""trial"",""time""
""fullscreenenter"",""1"",""3240""
","
","","","","","","377.3999996185303","<p> You will have 4 seconds to make each choice. Try to respond before time runs out! </p><p> You will lose 1 point each time you do not make a response. </p>","","0","instructions","","","","","","","","","","","","","",""
"html-keyboard-response","86","475953","0.0-9.0-2.0-0.0","1532","1","2","""event"",""trial"",""time""
""fullscreenenter"",""1"",""3240""
","
","
","""event"",""trial"",""time""
""fullscreenenter"",""1"",""3240""
","
","","","","","","null","<div style=""font-size:60px;"">+</div>","null","","fixation","","","","","","","","","","","","","",""
"learning-trial","87","479957","0.0-9.0-2.0-1.0","1532","1","2","""event"",""trial"",""time""
""fullscreenenter"",""1"",""3240""
","
","
","""event"",""trial"",""time""
""fullscreenenter"",""1"",""3240""
","
","","","","","","1082.6999998092651","images/banana2.png","","","learning","images/fruit_choice3.png","images/fruit_choice1.png","images/fruit_choice2.png","[2,0,1]","1","2","2","images/fruit_choice1.png","-1","fruit","","banana","1","0"
"html-keyboard-response","88","480463","0.0-9.0-2.0-0.1","1532","1","2","""event"",""trial"",""time""
""fullscreenenter"",""1"",""3240""
","
","
","""event"",""trial"",""time""
""fullscreenenter"",""1"",""3240""
","
","","","","","","null","<div style=""font-size:60px;"">+</div>","null","","fixation","","","","","","","","","","","","","",""
"learning-trial","89","484468","0.0-9.0-2.0-1.1","1532","1","2","""event"",""trial"",""time""
""fullscreenenter"",""1"",""3240""
","
","
","""event"",""trial"",""time""
""fullscreenenter"",""1"",""3240""
","
","","","","","","1052.8000001907349","images/banana2.png","","","learning","images/fruit_choice2.png","images/fruit_choice1.png","images/fruit_choice3.png","[1,0,2]","1","0","1","images/fruit_choice2.png","1","fruit","","banana","1","0"
"html-keyboard-response","90","484974","0.0-9.0-2.0-0.2","1532","1","2","""event"",""trial"",""time""
""fullscreenenter"",""1"",""3240""
","
","
","""event"",""trial"",""time""
""fullscreenenter"",""1"",""3240""
","
","","","","","","null","<div style=""font-size:60px;"">+</div>","null","","fixation","","","","","","","","","","","","","",""
"learning-trial","91","488983","0.0-9.0-2.0-1.2","1532","1","2","""event"",""trial"",""time""
""fullscreenenter"",""1"",""3240""
","
","
","""event"",""trial"",""time""
""fullscreenenter"",""1"",""3240""
","
","","","","","","1193.5","images/apple5.png","","","learning","images/fruit_choice1.png","images/fruit_choice3.png","images/fruit_choice2.png","[0,2,1]","0","0","2","images/fruit_choice3.png","-1","fruit","","apple","1","0"
"html-keyboard-response","92","489484","0.0-9.0-2.0-0.3","1532","1","2","""event"",""trial"",""time""
""fullscreenenter"",""1"",""3240""
","
","
","""event"",""trial"",""time""
""fullscreenenter"",""1"",""3240""
","
","","","","","","null","<div style=""font-size:60px;"">+</div>","null","","fixation","","","","","","","","","","","","","",""
"learning-trial","93","493491","0.0-9.0-2.0-1.3","1532","1","2","""event"",""trial"",""time""
""fullscreenenter"",""1"",""3240""
","
","
","""event"",""trial"",""time""
""fullscreenenter"",""1"",""3240""
","
","","","","","","1679.2000007629395","images/banana1.png","","","learning","images/fruit_choice2.png","images/fruit_choice3.png","images/fruit_choice1.png","[1,2,0]","1","0","1","images/fruit_choice2.png","1","fruit","","banana","1","0"
"html-keyboard-response","94","493993","0.0-9.0-2.0-0.4","1532","1","2","""event"",""trial"",""time""
""fullscreenenter"",""1"",""3240""
","
","
","""event"",""trial"",""time""
""fullscreenenter"",""1"",""3240""
","
","","","","","","null","<div style=""font-size:60px;"">+</div>","null","","fixation","","","","","","","","","","","","","",""
"learning-trial","95","497996","0.0-9.0-2.0-1.4","1532","1","2","""event"",""trial"",""time""
""fullscreenenter"",""1"",""3240""
","
","
","""event"",""trial"",""time""
""fullscreenenter"",""1"",""3240""
","
","","","","","","642.8999996185303","images/banana1.png","","","learning","images/fruit_choice2.png","images/fruit_choice3.png","images/fruit_choice1.png","[1,2,0]","1","0","1","images/fruit_choice2.png","1","fruit","","banana","1","0"
"html-keyboard-response","96","498499","0.0-9.0-2.0-0.5","1532","1","2","""event"",""trial"",""time""
""fullscreenenter"",""1"",""3240""
","
","
","""event"",""trial"",""time""
""fullscreenenter"",""1"",""3240""
","
","","","","","","null","<div style=""font-size:60px;"">+</div>","null","","fixation","","","","","","","","","","","","","",""
"learning-trial","97","502508","0.0-9.0-2.0-1.5","1532","1","2","""event"",""trial"",""time""
""fullscreenenter"",""1"",""3240""
","
","
","""event"",""trial"",""time""
""fullscreenenter"",""1"",""3240""
","
","","","","","","1109","images/straw2.png","","","learning","images/fruit_choice3.png","images/fruit_choice2.png","images/fruit_choice1.png","[2,1,0]","2","0","2","images/fruit_choice2.png","-1","fruit","","straw","1","0"
"html-keyboard-response","98","503010","0.0-9.0-2.0-0.6","1532","1","2","""event"",""trial"",""time""
""fullscreenenter"",""1"",""3240""
","
","
","""event"",""trial"",""time""
""fullscreenenter"",""1"",""3240""
","
","","","","","","null","<div style=""font-size:60px;"">+</div>","null","","fixation","","","","","","","","","","","","","",""
"learning-trial","99","507018","0.0-9.0-2.0-1.6","1532","1","2","""event"",""trial"",""time""
""fullscreenenter"",""1"",""3240""
","
","
","""event"",""trial"",""time""
""fullscreenenter"",""1"",""3240""
","
","","","","","","703.3999996185303","images/banana1.png","","","learning","images/fruit_choice2.png","images/fruit_choice3.png","images/fruit_choice1.png","[1,2,0]","1","0","1","images/fruit_choice2.png","-1","fruit","","banana","1","0"
"html-keyboard-response","100","507524","0.0-9.0-2.0-0.7","1532","1","2","""event"",""trial"",""time""
""fullscreenenter"",""1"",""3240""
","
","
","""event"",""trial"",""time""
""fullscreenenter"",""1"",""3240""
","
","","","","","","null","<div style=""font-size:60px;"">+</div>","null","","fixation","","","","","","","","","","","","","",""
"learning-trial","101","511529","0.0-9.0-2.0-1.7","1532","1","2","""event"",""trial"",""time""
""fullscreenenter"",""1"",""3240""
","
","
","""event"",""trial"",""time""
""fullscreenenter"",""1"",""3240""
","
","","","","","","1118.4000005722046","images/apple2.png","","","learning","images/fruit_choice2.png","images/fruit_choice1.png","images/fruit_choice3.png","[1,0,2]","0","1","3","images/fruit_choice3.png","-1","fruit","","apple","1","0"
"html-keyboard-response","102","512032","0.0-9.0-2.0-0.8","1532","1","2","""event"",""trial"",""time""
""fullscreenenter"",""1"",""3240""
","
","
","""event"",""trial"",""time""
""fullscreenenter"",""1"",""3240""
","
","","","","","","null","<div style=""font-size:60px;"">+</div>","null","","fixation","","","","","","","","","","","","","",""
"learning-trial","103","516041","0.0-9.0-2.0-1.8","1532","1","2","""event"",""trial"",""time""
""fullscreenenter"",""1"",""3240""
","
","
","""event"",""trial"",""time""
""fullscreenenter"",""1"",""3240""
","
","","","","","","1001.1999998092651","images/banana1.png","","","learning","images/fruit_choice1.png","images/fruit_choice3.png","images/fruit_choice2.png","[0,2,1]","1","2","3","images/fruit_choice2.png","1","fruit","","banana","1","0"
"html-keyboard-response","104","516543","0.0-9.0-2.0-0.9","1532","1","2","""event"",""trial"",""time""
""fullscreenenter"",""1"",""3240""
","
","
","""event"",""trial"",""time""
""fullscreenenter"",""1"",""3240""
","
","","","","","","null","<div style=""font-size:60px;"">+</div>","null","","fixation","","","","","","","","","","","","","",""
"learning-trial","105","520548","0.0-9.0-2.0-1.9","1532","1","2","""event"",""trial"",""time""
""fullscreenenter"",""1"",""3240""
","
","
","""event"",""trial"",""time""
""fullscreenenter"",""1"",""3240""
","
","","","","","","891.8999996185303","images/apple5.png","","","learning","images/fruit_choice2.png","images/fruit_choice3.png","images/fruit_choice1.png","[1,2,0]","0","2","2","images/fruit_choice3.png","-1","fruit","","apple","1","0"
"html-keyboard-response","106","521054","0.0-9.0-2.0-0.10","1532","1","2","""event"",""trial"",""time""
""fullscreenenter"",""1"",""3240""
","
","
","""event"",""trial"",""time""
""fullscreenenter"",""1"",""3240""
","
","","","","","","null","<div style=""font-size:60px;"">+</div>","null","","fixation","","","","","","","","","","","","","",""
"learning-trial","107","525060","0.0-9.0-2.0-1.10","1532","1","2","""event"",""trial"",""time""
""fullscreenenter"",""1"",""3240""
","
","
","""event"",""trial"",""time""
""fullscreenenter"",""1"",""3240""
","
","","","","","","1181.4000005722046","images/straw3.png","","","learning","images/fruit_choice1.png","images/fruit_choice3.png","images/fruit_choice2.png","[0,2,1]","2","1","1","images/fruit_choice1.png","-1","fruit","","straw","1","0"
"html-keyboard-response","108","525566","0.0-9.0-2.0-0.11","1532","1","2","""event"",""trial"",""time""
""fullscreenenter"",""1"",""3240""
","
","
","""event"",""trial"",""time""
""fullscreenenter"",""1"",""3240""
","
","","","","","","null","<div style=""font-size:60px;"">+</div>","null","","fixation","","","","","","","","","","","","","",""
"learning-trial","109","529574","0.0-9.0-2.0-1.11","1532","1","2","""event"",""trial"",""time""
""fullscreenenter"",""1"",""3240""
","
","
","""event"",""trial"",""time""
""fullscreenenter"",""1"",""3240""
","
","","","","","","1065.7999992370605","images/apple2.png","","","learning","images/fruit_choice1.png","images/fruit_choice2.png","images/fruit_choice3.png","[0,1,2]","0","0","3","images/fruit_choice3.png","-1","fruit","","apple","1","0"
"html-keyboard-response","110","530078","0.0-9.0-2.0-0.12","1532","1","2","""event"",""trial"",""time""
""fullscreenenter"",""1"",""3240""
","
","
","""event"",""trial"",""time""
""fullscreenenter"",""1"",""3240""
","
","","","","","","null","<div style=""font-size:60px;"">+</div>","null","","fixation","","","","","","","","","","","","","",""
"learning-trial","111","534084","0.0-9.0-2.0-1.12","1532","1","2","""event"",""trial"",""time""
""fullscreenenter"",""1"",""3240""
","
","
","""event"",""trial"",""time""
""fullscreenenter"",""1"",""3240""
","
","","","","","","1053.3999996185303","images/apple1.png","","","learning","images/fruit_choice1.png","images/fruit_choice2.png","images/fruit_choice3.png","[0,1,2]","0","0","1","images/fruit_choice1.png","1","fruit","","apple","1","0"
"html-keyboard-response","112","534586","0.0-9.0-2.0-0.13","1532","1","2","""event"",""trial"",""time""
""fullscreenenter"",""1"",""3240""
","
","
","""event"",""trial"",""time""
""fullscreenenter"",""1"",""3240""
","
","","","","","","null","<div style=""font-size:60px;"">+</div>","null","","fixation","","","","","","","","","","","","","",""
"learning-trial","113","538590","0.0-9.0-2.0-1.13","1532","1","2","""event"",""trial"",""time""
""fullscreenenter"",""1"",""3240""
","
","
","""event"",""trial"",""time""
""fullscreenenter"",""1"",""3240""
","
","","","","","","799","images/banana3.png","","","learning","images/fruit_choice2.png","images/fruit_choice3.png","images/fruit_choice1.png","[1,2,0]","1","0","1","images/fruit_choice2.png","1","fruit","","banana","1","0"
"html-keyboard-response","114","539096","0.0-9.0-2.0-0.14","1532","1","2","""event"",""trial"",""time""
""fullscreenenter"",""1"",""3240""
","
","
","""event"",""trial"",""time""
""fullscreenenter"",""1"",""3240""
","
","","","","","","null","<div style=""font-size:60px;"">+</div>","null","","fixation","","","","","","","","","","","","","",""
"learning-trial","115","543102","0.0-9.0-2.0-1.14","1532","1","2","""event"",""trial"",""time""
""fullscreenenter"",""1"",""3240""
","
","
","""event"",""trial"",""time""
""fullscreenenter"",""1"",""3240""
","
","","","","","","1131.8999996185303","images/apple2.png","","","learning","images/fruit_choice3.png","images/fruit_choice1.png","images/fruit_choice2.png","[2,0,1]","0","1","2","images/fruit_choice1.png","1","fruit","","apple","1","0"
"html-keyboard-response","116","543608","0.0-9.0-2.0-0.15","1532","1","2","""event"",""trial"",""time""
""fullscreenenter"",""1"",""3240""
","
","
","""event"",""trial"",""time""
""fullscreenenter"",""1"",""3240""
","
","","","","","","null","<div style=""font-size:60px;"">+</div>","null","","fixation","","","","","","","","","","","","","",""
"learning-trial","117","547614","0.0-9.0-2.0-1.15","1532","1","2","""event"",""trial"",""time""
""fullscreenenter"",""1"",""3240""
","
","
","""event"",""trial"",""time""
""fullscreenenter"",""1"",""3240""
","
","","","","","","1862.6999998092651","images/apple1.png","","","learning","images/fruit_choice3.png","images/fruit_choice1.png","images/fruit_choice2.png","[2,0,1]","0","1","3","images/fruit_choice2.png","-1","fruit","","apple","1","0"
"html-keyboard-response","118","548120","0.0-9.0-2.0-0.16","1532","1","2","""event"",""trial"",""time""
""fullscreenenter"",""1"",""3240""
","
","
","""event"",""trial"",""time""
""fullscreenenter"",""1"",""3240""
","
","","","","","","null","<div style=""font-size:60px;"">+</div>","null","","fixation","","","","","","","","","","","","","",""
"learning-trial","119","552126","0.0-9.0-2.0-1.16","1532","1","2","""event"",""trial"",""time""
""fullscreenenter"",""1"",""3240""
","
","
","""event"",""trial"",""time""
""fullscreenenter"",""1"",""3240""
","
","","","","","","847.6000003814697","images/straw5.png","","","learning","images/fruit_choice3.png","images/fruit_choice2.png","images/fruit_choice1.png","[2,1,0]","2","0","1","images/fruit_choice3.png","1","fruit","","straw","1","0"
"html-keyboard-response","120","552629","0.0-9.0-2.0-0.17","1532","1","2","""event"",""trial"",""time""
""fullscreenenter"",""1"",""3240""
","
","
","""event"",""trial"",""time""
""fullscreenenter"",""1"",""3240""
","
","","","","","","null","<div style=""font-size:60px;"">+</div>","null","","fixation","","","","","","","","","","","","","",""
"learning-trial","121","556637","0.0-9.0-2.0-1.17","1532","1","2","""event"",""trial"",""time""
""fullscreenenter"",""1"",""3240""
","
","
","""event"",""trial"",""time""
""fullscreenenter"",""1"",""3240""
","
","","","","","","1074.3999996185303","images/apple5.png","","","learning","images/fruit_choice1.png","images/fruit_choice3.png","images/fruit_choice2.png","[0,2,1]","0","0","1","images/fruit_choice1.png","1","fruit","","apple","1","0"
"html-keyboard-response","122","557143","0.0-9.0-2.0-0.18","1532","1","2","""event"",""trial"",""time""
""fullscreenenter"",""1"",""3240""
","
","
","""event"",""trial"",""time""
""fullscreenenter"",""1"",""3240""
","
","","","","","","null","<div style=""font-size:60px;"">+</div>","null","","fixation","","","","","","","","","","","","","",""
"learning-trial","123","561149","0.0-9.0-2.0-1.18","1532","1","2","""event"",""trial"",""time""
""fullscreenenter"",""1"",""3240""
","
","
","""event"",""trial"",""time""
""fullscreenenter"",""1"",""3240""
","
","","","","","","732.3000001907349","images/straw3.png","","","learning","images/fruit_choice1.png","images/fruit_choice3.png","images/fruit_choice2.png","[0,2,1]","2","1","2","images/fruit_choice3.png","1","fruit","","straw","1","0"
"html-keyboard-response","124","561651","0.0-9.0-2.0-0.19","1532","1","2","""event"",""trial"",""time""
""fullscreenenter"",""1"",""3240""
","
","
","""event"",""trial"",""time""
""fullscreenenter"",""1"",""3240""
","
","","","","","","null","<div style=""font-size:60px;"">+</div>","null","","fixation","","","","","","","","","","","","","",""
"learning-trial","125","565658","0.0-9.0-2.0-1.19","1532","1","2","""event"",""trial"",""time""
""fullscreenenter"",""1"",""3240""
","
","
","""event"",""trial"",""time""
""fullscreenenter"",""1"",""3240""
","
","","","","","","997.3999996185303","images/banana2.png","","","learning","images/fruit_choice2.png","images/fruit_choice3.png","images/fruit_choice1.png","[1,2,0]","1","0","1","images/fruit_choice2.png","1","fruit","","banana","1","0"
"html-keyboard-response","126","566162","0.0-9.0-2.0-0.20","1532","1","2","""event"",""trial"",""time""
""fullscreenenter"",""1"",""3240""
","
","
","""event"",""trial"",""time""
""fullscreenenter"",""1"",""3240""
","
","","","","","","null","<div style=""font-size:60px;"">+</div>","null","","fixation","","","","","","","","","","","","","",""
"learning-trial","127","570167","0.0-9.0-2.0-1.20","1532","1","2","""event"",""trial"",""time""
""fullscreenenter"",""1"",""3240""
","
","
","""event"",""trial"",""time""
""fullscreenenter"",""1"",""3240""
","
","","","","","","888.1000003814697","images/straw3.png","","","learning","images/fruit_choice2.png","images/fruit_choice3.png","images/fruit_choice1.png","[1,2,0]","2","1","2","images/fruit_choice3.png","1","fruit","","straw","1","0"
"html-keyboard-response","128","570674","0.0-9.0-2.0-0.21","1532","1","2","""event"",""trial"",""time""
""fullscreenenter"",""1"",""3240""
","
","
","""event"",""trial"",""time""
""fullscreenenter"",""1"",""3240""
","
","","","","","","null","<div style=""font-size:60px;"">+</div>","null","","fixation","","","","","","","","","","","","","",""
"learning-trial","129","574679","0.0-9.0-2.0-1.21","1532","1","2","""event"",""trial"",""time""
""fullscreenenter"",""1"",""3240""
","
","
","""event"",""trial"",""time""
""fullscreenenter"",""1"",""3240""
","
","","","","","","638.3000001907349","images/apple1.png","","","learning","images/fruit_choice2.png","images/fruit_choice3.png","images/fruit_choice1.png","[1,2,0]","0","2","3","images/fruit_choice1.png","1","fruit","","apple","1","0"
"html-keyboard-response","130","575185","0.0-9.0-2.0-0.22","1532","1","2","""event"",""trial"",""time""
""fullscreenenter"",""1"",""3240""
","
","
","""event"",""trial"",""time""
""fullscreenenter"",""1"",""3240""
","
","","","","","","null","<div style=""font-size:60px;"">+</div>","null","","fixation","","","","","","","","","","","","","",""
"learning-trial","131","579191","0.0-9.0-2.0-1.22","1532","1","2","""event"",""trial"",""time""
""fullscreenenter"",""1"",""3240""
","
","
","""event"",""trial"",""time""
""fullscreenenter"",""1"",""3240""
","
","","","","","","642.0999994277954","images/banana1.png","","","learning","images/fruit_choice3.png","images/fruit_choice1.png","images/fruit_choice2.png","[2,0,1]","1","2","3","images/fruit_choice2.png","1","fruit","","banana","1","0"
"html-keyboard-response","132","579697","0.0-9.0-2.0-0.23","1532","1","2","""event"",""trial"",""time""
""fullscreenenter"",""1"",""3240""
","
","
","""event"",""trial"",""time""
""fullscreenenter"",""1"",""3240""
","
","","","","","","null","<div style=""font-size:60px;"">+</div>","null","","fixation","","","","","","","","","","","","","",""
"learning-trial","133","583703","0.0-9.0-2.0-1.23","1532","1","2","""event"",""trial"",""time""
""fullscreenenter"",""1"",""3240""
","
","
","""event"",""trial"",""time""
""fullscreenenter"",""1"",""3240""
","
","","","","","","564.6000003814697","images/straw3.png","","","learning","images/fruit_choice3.png","images/fruit_choice1.png","images/fruit_choice2.png","[2,0,1]","2","0","1","images/fruit_choice3.png","1","fruit","","straw","1","0"
"html-keyboard-response","134","584209","0.0-9.0-2.0-0.24","1532","1","2","""event"",""trial"",""time""
""fullscreenenter"",""1"",""3240""
","
","
","""event"",""trial"",""time""
""fullscreenenter"",""1"",""3240""
","
","","","","","","null","<div style=""font-size:60px;"">+</div>","null","","fixation","","","","","","","","","","","","","",""
"learning-trial","135","588215","0.0-9.0-2.0-1.24","1532","1","2","""event"",""trial"",""time""
""fullscreenenter"",""1"",""3240""
","
","
","""event"",""trial"",""time""
""fullscreenenter"",""1"",""3240""
","
","","","","","","630.6999998092651","images/apple5.png","","","learning","images/fruit_choice1.png","images/fruit_choice3.png","images/fruit_choice2.png","[0,2,1]","0","0","2","images/fruit_choice3.png","-1","fruit","","apple","1","0"
"html-keyboard-response","136","588721","0.0-9.0-2.0-0.25","1532","1","2","""event"",""trial"",""time""
""fullscreenenter"",""1"",""3240""
","
","
","""event"",""trial"",""time""
""fullscreenenter"",""1"",""3240""
","
","","","","","","null","<div style=""font-size:60px;"">+</div>","null","","fixation","","","","","","","","","","","","","",""
"learning-trial","137","592726","0.0-9.0-2.0-1.25","1532","1","2","""event"",""trial"",""time""
""fullscreenenter"",""1"",""3240""
","
","
","""event"",""trial"",""time""
""fullscreenenter"",""1"",""3240""
","
","","","","","","505.19999980926514","images/straw2.png","","","learning","images/fruit_choice2.png","images/fruit_choice3.png","images/fruit_choice1.png","[1,2,0]","2","1","1","images/fruit_choice2.png","-1","fruit","","straw","1","0"
"html-keyboard-response","138","593232","0.0-9.0-2.0-0.26","1532","1","2","""event"",""trial"",""time""
""fullscreenenter"",""1"",""3240""
","
","
","""event"",""trial"",""time""
""fullscreenenter"",""1"",""3240""
","
","","","","","","null","<div style=""font-size:60px;"">+</div>","null","","fixation","","","","","","","","","","","","","",""
"learning-trial","139","597238","0.0-9.0-2.0-1.26","1532","1","2","""event"",""trial"",""time""
""fullscreenenter"",""1"",""3240""
","
","
","""event"",""trial"",""time""
""fullscreenenter"",""1"",""3240""
","
","","","","","","981.5","images/apple5.png","","","learning","images/fruit_choice2.png","images/fruit_choice3.png","images/fruit_choice1.png","[1,2,0]","0","2","2","images/fruit_choice3.png","-1","fruit","","apple","1","0"
"html-keyboard-response","140","597744","0.0-9.0-2.0-0.27","1532","1","2","""event"",""trial"",""time""
""fullscreenenter"",""1"",""3240""
","
","
","""event"",""trial"",""time""
""fullscreenenter"",""1"",""3240""
","
","","","","","","null","<div style=""font-size:60px;"">+</div>","null","","fixation","","","","","","","","","","","","","",""
"learning-trial","141","601750","0.0-9.0-2.0-1.27","1532","1","2","""event"",""trial"",""time""
""fullscreenenter"",""1"",""3240""
","
","
","""event"",""trial"",""time""
""fullscreenenter"",""1"",""3240""
","
","","","","","","665.4000005722046","images/straw5.png","","","learning","images/fruit_choice2.png","images/fruit_choice1.png","images/fruit_choice3.png","[1,0,2]","2","2","1","images/fruit_choice2.png","-1","fruit","","straw","1","0"
"html-keyboard-response","142","602256","0.0-9.0-2.0-0.28","1532","1","2","""event"",""trial"",""time""
""fullscreenenter"",""1"",""3240""
","
","
","""event"",""trial"",""time""
""fullscreenenter"",""1"",""3240""
","
","","","","","","null","<div style=""font-size:60px;"">+</div>","null","","fixation","","","","","","","","","","","","","",""
"learning-trial","143","606265","0.0-9.0-2.0-1.28","1532","1","2","""event"",""trial"",""time""
""fullscreenenter"",""1"",""3240""
","
","
","""event"",""trial"",""time""
""fullscreenenter"",""1"",""3240""
","
","","","","","","662.6999998092651","images/banana2.png","","","learning","images/fruit_choice3.png","images/fruit_choice2.png","images/fruit_choice1.png","[2,1,0]","1","1","2","images/fruit_choice2.png","1","fruit","","banana","1","0"
"html-keyboard-response","144","606768","0.0-9.0-2.0-0.29","1532","1","2","""event"",""trial"",""time""
""fullscreenenter"",""1"",""3240""
","
","
","""event"",""trial"",""time""
""fullscreenenter"",""1"",""3240""
","
","","","","","","null","<div style=""font-size:60px;"">+</div>","null","","fixation","","","","","","","","","","","","","",""
"learning-trial","145","610774","0.0-9.0-2.0-1.29","1532","1","2","""event"",""trial"",""time""
""fullscreenenter"",""1"",""3240""
","
","
","""event"",""trial"",""time""
""fullscreenenter"",""1"",""3240""
","
","","","","","","1118.3000001907349","images/straw2.png","","","learning","images/fruit_choice2.png","images/fruit_choice3.png","images/fruit_choice1.png","[1,2,0]","2","1","2","images/fruit_choice3.png","-1","fruit","","straw","1","0"
"html-keyboard-response","146","611280","0.0-9.0-2.0-0.30","1532","1","2","""event"",""trial"",""time""
""fullscreenenter"",""1"",""3240""
","
","
","""event"",""trial"",""time""
""fullscreenenter"",""1"",""3240""
","
","","","","","","null","<div style=""font-size:60px;"">+</div>","null","","fixation","","","","","","","","","","","","","",""
"learning-trial","147","615285","0.0-9.0-2.0-1.30","1532","1","2","""event"",""trial"",""time""
""fullscreenenter"",""1"",""3240""
","
","
","""event"",""trial"",""time""
""fullscreenenter"",""1"",""3240""
","
","","","","","","469","images/apple1.png","","","learning","images/fruit_choice1.png","images/fruit_choice3.png","images/fruit_choice2.png","[0,2,1]","0","0","3","images/fruit_choice2.png","1","fruit","","apple","1","0"
"html-keyboard-response","148","615792","0.0-9.0-2.0-0.31","1532","1","2","""event"",""trial"",""time""
""fullscreenenter"",""1"",""3240""
","
","
","""event"",""trial"",""time""
""fullscreenenter"",""1"",""3240""
","
","","","","","","null","<div style=""font-size:60px;"">+</div>","null","","fixation","","","","","","","","","","","","","",""
"learning-trial","149","619798","0.0-9.0-2.0-1.31","1532","1","2","""event"",""trial"",""time""
""fullscreenenter"",""1"",""3240""
","
","
","""event"",""trial"",""time""
""fullscreenenter"",""1"",""3240""
","
","","","","","","721.6999998092651","images/banana2.png","","","learning","images/fruit_choice2.png","images/fruit_choice3.png","images/fruit_choice1.png","[1,2,0]","1","0","1","images/fruit_choice2.png","1","fruit","","banana","1","0"
"html-keyboard-response","150","620303","0.0-9.0-2.0-0.32","1532","1","2","""event"",""trial"",""time""
""fullscreenenter"",""1"",""3240""
","
","
","""event"",""trial"",""time""
""fullscreenenter"",""1"",""3240""
","
","","","","","","null","<div style=""font-size:60px;"">+</div>","null","","fixation","","","","","","","","","","","","","",""
"learning-trial","151","624309","0.0-9.0-2.0-1.32","1532","1","2","""event"",""trial"",""time""
""fullscreenenter"",""1"",""3240""
","
","
","""event"",""trial"",""time""
""fullscreenenter"",""1"",""3240""
","
","","","","","","712","images/apple5.png","","","learning","images/fruit_choice2.png","images/fruit_choice1.png","images/fruit_choice3.png","[1,0,2]","0","1","1","images/fruit_choice2.png","-1","fruit","","apple","1","0"
"html-keyboard-response","152","624815","0.0-9.0-2.0-0.33","1532","1","2","""event"",""trial"",""time""
""fullscreenenter"",""1"",""3240""
","
","
","""event"",""trial"",""time""
""fullscreenenter"",""1"",""3240""
","
","","","","","","null","<div style=""font-size:60px;"">+</div>","null","","fixation","","","","","","","","","","","","","",""
"learning-trial","153","628821","0.0-9.0-2.0-1.33","1532","1","2","""event"",""trial"",""time""
""fullscreenenter"",""1"",""3240""
","
","
","""event"",""trial"",""time""
""fullscreenenter"",""1"",""3240""
","
","","","","","","537.6000003814697","images/apple5.png","","","learning","images/fruit_choice2.png","images/fruit_choice3.png","images/fruit_choice1.png","[1,2,0]","0","2","2","images/fruit_choice3.png","-1","fruit","","apple","1","0"
"html-keyboard-response","154","629327","0.0-9.0-2.0-0.34","1532","1","2","""event"",""trial"",""time""
""fullscreenenter"",""1"",""3240""
","
","
","""event"",""trial"",""time""
""fullscreenenter"",""1"",""3240""
","
","","","","","","null","<div style=""font-size:60px;"">+</div>","null","","fixation","","","","","","","","","","","","","",""
"learning-trial","155","633333","0.0-9.0-2.0-1.34","1532","1","2","""event"",""trial"",""time""
""fullscreenenter"",""1"",""3240""
","
","
","""event"",""trial"",""time""
""fullscreenenter"",""1"",""3240""
","
","","","","","","698.3000001907349","images/straw2.png","","","learning","images/fruit_choice1.png","images/fruit_choice2.png","images/fruit_choice3.png","[0,1,2]","2","2","2","images/fruit_choice2.png","-1","fruit","","straw","1","0"
"html-keyboard-response","156","633839","0.0-9.0-2.0-0.35","1532","1","2","""event"",""trial"",""time""
""fullscreenenter"",""1"",""3240""
","
","
","""event"",""trial"",""time""
""fullscreenenter"",""1"",""3240""
","
","","","","","","null","<div style=""font-size:60px;"">+</div>","null","","fixation","","","","","","","","","","","","","",""
"learning-trial","157","637844","0.0-9.0-2.0-1.35","1532","1","2","""event"",""trial"",""time""
""fullscreenenter"",""1"",""3240""
","
","
","""event"",""trial"",""time""
""fullscreenenter"",""1"",""3240""
","
","","","","","","435","images/straw3.png","","","learning","images/fruit_choice2.png","images/fruit_choice1.png","images/fruit_choice3.png","[1,0,2]","2","2","1","images/fruit_choice2.png","-1","fruit","","straw","1","0"
"html-keyboard-response","158","638351","0.0-9.0-2.0-0.36","1532","1","2","""event"",""trial"",""time""
""fullscreenenter"",""1"",""3240""
","
","
","""event"",""trial"",""time""
""fullscreenenter"",""1"",""3240""
","
","","","","","","null","<div style=""font-size:60px;"">+</div>","null","","fixation","","","","","","","","","","","","","",""
"learning-trial","159","642356","0.0-9.0-2.0-1.36","1532","1","2","""event"",""trial"",""time""
""fullscreenenter"",""1"",""3240""
","
","
","""event"",""trial"",""time""
""fullscreenenter"",""1"",""3240""
","
","","","","","","440.8999996185303","images/straw3.png","","","learning","images/fruit_choice1.png","images/fruit_choice2.png","images/fruit_choice3.png","[0,1,2]","2","2","2","images/fruit_choice2.png","-1","fruit","","straw","1","0"
"html-keyboard-response","160","642863","0.0-9.0-2.0-0.37","1532","1","2","""event"",""trial"",""time""
""fullscreenenter"",""1"",""3240""
","
","
","""event"",""trial"",""time""
""fullscreenenter"",""1"",""3240""
","
","","","","","","null","<div style=""font-size:60px;"">+</div>","null","","fixation","","","","","","","","","","","","","",""
"learning-trial","161","646868","0.0-9.0-2.0-1.37","1532","1","2","""event"",""trial"",""time""
""fullscreenenter"",""1"",""3240""
","
","
","""event"",""trial"",""time""
""fullscreenenter"",""1"",""3240""
","
","","","","","","1017.3000001907349","images/banana3.png","","","learning","images/fruit_choice1.png","images/fruit_choice2.png","images/fruit_choice3.png","[0,1,2]","1","1","2","images/fruit_choice2.png","1","fruit","","banana","1","0"
"html-keyboard-response","162","647374","0.0-9.0-2.0-0.38","1532","1","2","""event"",""trial"",""time""
""fullscreenenter"",""1"",""3240""
","
","
","""event"",""trial"",""time""
""fullscreenenter"",""1"",""3240""
","
","","","","","","null","<div style=""font-size:60px;"">+</div>","null","","fixation","","","","","","","","","","","","","",""
"learning-trial","163","651380","0.0-9.0-2.0-1.38","1532","1","2","""event"",""trial"",""time""
""fullscreenenter"",""1"",""3240""
","
","
","""event"",""trial"",""time""
""fullscreenenter"",""1"",""3240""
","
","","","","","","789.7000007629395","images/straw5.png","","","learning","images/fruit_choice3.png","images/fruit_choice1.png","images/fruit_choice2.png","[2,0,1]","2","0","3","images/fruit_choice2.png","-1","fruit","","straw","1","0"
"html-keyboard-response","164","651886","0.0-9.0-2.0-0.39","1532","1","2","""event"",""trial"",""time""
""fullscreenenter"",""1"",""3240""
","
","
","""event"",""trial"",""time""
""fullscreenenter"",""1"",""3240""
","
","","","","","","null","<div style=""font-size:60px;"">+</div>","null","","fixation","","","","","","","","","","","","","",""
"learning-trial","165","655892","0.0-9.0-2.0-1.39","1532","1","2","""event"",""trial"",""time""
""fullscreenenter"",""1"",""3240""
","
","
","""event"",""trial"",""time""
""fullscreenenter"",""1"",""3240""
","
","","","","","","521.5","images/apple2.png","","","learning","images/fruit_choice3.png","images/fruit_choice1.png","images/fruit_choice2.png","[2,0,1]","0","1","1","images/fruit_choice3.png","-1","fruit","","apple","1","0"
"html-keyboard-response","166","656398","0.0-9.0-2.0-0.40","1532","1","2","""event"",""trial"",""time""
""fullscreenenter"",""1"",""3240""
","
","
","""event"",""trial"",""time""
""fullscreenenter"",""1"",""3240""
","
","","","","","","null","<div style=""font-size:60px;"">+</div>","null","","fixation","","","","","","","","","","","","","",""
"learning-trial","167","660404","0.0-9.0-2.0-1.40","1532","1","2","""event"",""trial"",""time""
""fullscreenenter"",""1"",""3240""
","
","
","""event"",""trial"",""time""
""fullscreenenter"",""1"",""3240""
","
","","","","","","1715.9000005722046","images/banana1.png","","","learning","images/fruit_choice2.png","images/fruit_choice1.png","images/fruit_choice3.png","[1,0,2]","1","0","1","images/fruit_choice2.png","1","fruit","","banana","1","0"
"html-keyboard-response","168","660910","0.0-9.0-2.0-0.41","1532","1","2","""event"",""trial"",""time""
""fullscreenenter"",""1"",""3240""
","
","
","""event"",""trial"",""time""
""fullscreenenter"",""1"",""3240""
","
","","","","","","null","<div style=""font-size:60px;"">+</div>","null","","fixation","","","","","","","","","","","","","",""
"learning-trial","169","664915","0.0-9.0-2.0-1.41","1532","1","2","""event"",""trial"",""time""
""fullscreenenter"",""1"",""3240""
","
","
","""event"",""trial"",""time""
""fullscreenenter"",""1"",""3240""
","
","","","","","","646.1000003814697","images/straw5.png","","","learning","images/fruit_choice3.png","images/fruit_choice1.png","images/fruit_choice2.png","[2,0,1]","2","0","2","images/fruit_choice1.png","-1","fruit","","straw","1","0"
"html-keyboard-response","170","665422","0.0-9.0-2.0-0.42","1532","1","2","""event"",""trial"",""time""
""fullscreenenter"",""1"",""3240""
","
","
","""event"",""trial"",""time""
""fullscreenenter"",""1"",""3240""
","
","","","","","","null","<div style=""font-size:60px;"">+</div>","null","","fixation","","","","","","","","","","","","","",""
"learning-trial","171","669427","0.0-9.0-2.0-1.42","1532","1","2","""event"",""trial"",""time""
""fullscreenenter"",""1"",""3240""
","
","
","""event"",""trial"",""time""
""fullscreenenter"",""1"",""3240""
","
","","","","","","281.6000003814697","images/apple1.png","","","learning","images/fruit_choice3.png","images/fruit_choice1.png","images/fruit_choice2.png","[2,0,1]","0","1","1","images/fruit_choice3.png","-1","fruit","","apple","1","0"
"html-keyboard-response","172","669933","0.0-9.0-2.0-0.43","1532","1","2","""event"",""trial"",""time""
""fullscreenenter"",""1"",""3240""
","
","
","""event"",""trial"",""time""
""fullscreenenter"",""1"",""3240""
","
","","","","","","null","<div style=""font-size:60px;"">+</div>","null","","fixation","","","","","","","","","","","","","",""
"learning-trial","173","673939","0.0-9.0-2.0-1.43","1532","1","2","""event"",""trial"",""time""
""fullscreenenter"",""1"",""3240""
","
","
","""event"",""trial"",""time""
""fullscreenenter"",""1"",""3240""
","
","","","","","","517.6999998092651","images/banana3.png","","","learning","images/fruit_choice2.png","images/fruit_choice3.png","images/fruit_choice1.png","[1,2,0]","1","0","1","images/fruit_choice2.png","1","fruit","","banana","1","0"
"html-keyboard-response","174","674445","0.0-9.0-2.0-0.44","1532","1","2","""event"",""trial"",""time""
""fullscreenenter"",""1"",""3240""
","
","
","""event"",""trial"",""time""
""fullscreenenter"",""1"",""3240""
","
","","","","","","null","<div style=""font-size:60px;"">+</div>","null","","fixation","","","","","","","","","","","","","",""
"learning-trial","175","678451","0.0-9.0-2.0-1.44","1532","1","2","""event"",""trial"",""time""
""fullscreenenter"",""1"",""3240""
","
","
","""event"",""trial"",""time""
""fullscreenenter"",""1"",""3240""
","
","","","","","","1352.6000003814697","images/apple1.png","","","learning","images/fruit_choice1.png","images/fruit_choice2.png","images/fruit_choice3.png","[0,1,2]","0","0","2","images/fruit_choice2.png","-1","fruit","","apple","1","0"
"html-keyboard-response","176","678957","0.0-9.0-2.0-0.45","1532","1","2","""event"",""trial"",""time""
""fullscreenenter"",""1"",""3240""
","
","
","""event"",""trial"",""time""
""fullscreenenter"",""1"",""3240""
","
","","","","","","null","<div style=""font-size:60px;"">+</div>","null","","fixation","","","","","","","","","","","","","",""
"learning-trial","177","682963","0.0-9.0-2.0-1.45","1532","1","2","""event"",""trial"",""time""
""fullscreenenter"",""1"",""3240""
","
","
","""event"",""trial"",""time""
""fullscreenenter"",""1"",""3240""
","
","","","","","","836","images/apple2.png","","","learning","images/fruit_choice3.png","images/fruit_choice2.png","images/fruit_choice1.png","[2,1,0]","0","2","1","images/fruit_choice3.png","-1","fruit","","apple","1","0"
"html-keyboard-response","178","683469","0.0-9.0-2.0-0.46","1532","1","2","""event"",""trial"",""time""
""fullscreenenter"",""1"",""3240""
","
","
","""event"",""trial"",""time""
""fullscreenenter"",""1"",""3240""
","
","","","","","","null","<div style=""font-size:60px;"">+</div>","null","","fixation","","","","","","","","","","","","","",""
"learning-trial","179","687474","0.0-9.0-2.0-1.46","1532","1","2","""event"",""trial"",""time""
""fullscreenenter"",""1"",""3240""
","
","
","""event"",""trial"",""time""
""fullscreenenter"",""1"",""3240""
","
","","","","","","953.6000003814697","images/apple2.png","","","learning","images/fruit_choice2.png","images/fruit_choice3.png","images/fruit_choice1.png","[1,2,0]","0","2","3","images/fruit_choice1.png","1","fruit","","apple","1","0"
"html-keyboard-response","180","687980","0.0-9.0-2.0-0.47","1532","1","2","""event"",""trial"",""time""
""fullscreenenter"",""1"",""3240""
","
","
","""event"",""trial"",""time""
""fullscreenenter"",""1"",""3240""
","
","","","","","","null","<div style=""font-size:60px;"">+</div>","null","","fixation","","","","","","","","","","","","","",""
"learning-trial","181","691986","0.0-9.0-2.0-1.47","1532","1","2","""event"",""trial"",""time""
""fullscreenenter"",""1"",""3240""
","
","
","""event"",""trial"",""time""
""fullscreenenter"",""1"",""3240""
","
","","","","","","1039.5","images/straw3.png","","","learning","images/fruit_choice1.png","images/fruit_choice3.png","images/fruit_choice2.png","[0,2,1]","2","1","3","images/fruit_choice2.png","-1","fruit","","straw","1","0"
"html-keyboard-response","182","692492","0.0-9.0-2.0-0.48","1532","1","2","""event"",""trial"",""time""
""fullscreenenter"",""1"",""3240""
","
","
","""event"",""trial"",""time""
""fullscreenenter"",""1"",""3240""
","
","","","","","","null","<div style=""font-size:60px;"">+</div>","null","","fixation","","","","","","","","","","","","","",""
"learning-trial","183","696498","0.0-9.0-2.0-1.48","1532","1","2","""event"",""trial"",""time""
""fullscreenenter"",""1"",""3240""
","
","
","""event"",""trial"",""time""
""fullscreenenter"",""1"",""3240""
","
","","","","","","555.0999994277954","images/banana3.png","","","learning","images/fruit_choice2.png","images/fruit_choice1.png","images/fruit_choice3.png","[1,0,2]","1","0","1","images/fruit_choice2.png","1","fruit","","banana","1","0"
"html-keyboard-response","184","697004","0.0-9.0-2.0-0.49","1532","1","2","""event"",""trial"",""time""
""fullscreenenter"",""1"",""3240""
","
","
","""event"",""trial"",""time""
""fullscreenenter"",""1"",""3240""
","
","","","","","","null","<div style=""font-size:60px;"">+</div>","null","","fixation","","","","","","","","","","","","","",""
"learning-trial","185","701009","0.0-9.0-2.0-1.49","1532","1","2","""event"",""trial"",""time""
""fullscreenenter"",""1"",""3240""
","
","
","""event"",""trial"",""time""
""fullscreenenter"",""1"",""3240""
","
","","","","","","713","images/apple2.png","","","learning","images/fruit_choice2.png","images/fruit_choice3.png","images/fruit_choice1.png","[1,2,0]","0","2","2","images/fruit_choice3.png","-1","fruit","","apple","1","0"
"html-keyboard-response","186","701516","0.0-9.0-2.0-0.50","1532","1","2","""event"",""trial"",""time""
""fullscreenenter"",""1"",""3240""
","
","
","""event"",""trial"",""time""
""fullscreenenter"",""1"",""3240""
","
","","","","","","null","<div style=""font-size:60px;"">+</div>","null","","fixation","","","","","","","","","","","","","",""
"learning-trial","187","705521","0.0-9.0-2.0-1.50","1532","1","2","""event"",""trial"",""time""
""fullscreenenter"",""1"",""3240""
","
","
","""event"",""trial"",""time""
""fullscreenenter"",""1"",""3240""
","
","","","","","","362.30000019073486","images/banana3.png","","","learning","images/fruit_choice2.png","images/fruit_choice1.png","images/fruit_choice3.png","[1,0,2]","1","0","3","images/fruit_choice3.png","-1","fruit","","banana","1","0"
"html-keyboard-response","188","706027","0.0-9.0-2.0-0.51","1532","1","2","""event"",""trial"",""time""
""fullscreenenter"",""1"",""3240""
","
","
","""event"",""trial"",""time""
""fullscreenenter"",""1"",""3240""
","
","","","","","","null","<div style=""font-size:60px;"">+</div>","null","","fixation","","","","","","","","","","","","","",""
"learning-trial","189","710033","0.0-9.0-2.0-1.51","1532","1","2","""event"",""trial"",""time""
""fullscreenenter"",""1"",""3240""
","
","
","""event"",""trial"",""time""
""fullscreenenter"",""1"",""3240""
","
","","","","","","942.1000003814697","images/apple5.png","","","learning","images/fruit_choice2.png","images/fruit_choice3.png","images/fruit_choice1.png","[1,2,0]","0","2","1","images/fruit_choice2.png","-1","fruit","","apple","1","0"
"html-keyboard-response","190","710539","0.0-9.0-2.0-0.52","1532","1","2","""event"",""trial"",""time""
""fullscreenenter"",""1"",""3240""
","
","
","""event"",""trial"",""time""
""fullscreenenter"",""1"",""3240""
","
","","","","","","null","<div style=""font-size:60px;"">+</div>","null","","fixation","","","","","","","","","","","","","",""
"learning-trial","191","714545","0.0-9.0-2.0-1.52","1532","1","2","""event"",""trial"",""time""
""fullscreenenter"",""1"",""3240""
","
","
","""event"",""trial"",""time""
""fullscreenenter"",""1"",""3240""
","
","","","","","","970.5999994277954","images/apple1.png","","","learning","images/fruit_choice3.png","images/fruit_choice2.png","images/fruit_choice1.png","[2,1,0]","0","2","2","images/fruit_choice2.png","-1","fruit","","apple","1","0"
"html-keyboard-response","192","715051","0.0-9.0-2.0-0.53","1532","1","2","""event"",""trial"",""time""
""fullscreenenter"",""1"",""3240""
","
","
","""event"",""trial"",""time""
""fullscreenenter"",""1"",""3240""
","
","","","","","","null","<div style=""font-size:60px;"">+</div>","null","","fixation","","","","","","","","","","","","","",""
"learning-trial","193","719057","0.0-9.0-2.0-1.53","1532","1","2","""event"",""trial"",""time""
""fullscreenenter"",""1"",""3240""
","
","
","""event"",""trial"",""time""
""fullscreenenter"",""1"",""3240""
","
","","","","","","1472.5999994277954","images/apple1.png","","","learning","images/fruit_choice1.png","images/fruit_choice2.png","images/fruit_choice3.png","[0,1,2]","0","0","2","images/fruit_choice2.png","-1","fruit","","apple","1","0"
"html-keyboard-response","194","719563","0.0-9.0-2.0-0.54","1532","1","2","""event"",""trial"",""time""
""fullscreenenter"",""1"",""3240""
","
","
","""event"",""trial"",""time""
""fullscreenenter"",""1"",""3240""
","
","","","","","","null","<div style=""font-size:60px;"">+</div>","null","","fixation","","","","","","","","","","","","","",""
"learning-trial","195","723568","0.0-9.0-2.0-1.54","1532","1","2","""event"",""trial"",""time""
""fullscreenenter"",""1"",""3240""
","
","
","""event"",""trial"",""time""
""fullscreenenter"",""1"",""3240""
","
","","","","","","1171.6000003814697","images/straw2.png","","","learning","images/fruit_choice2.png","images/fruit_choice1.png","images/fruit_choice3.png","[1,0,2]","2","2","1","images/fruit_choice2.png","1","fruit","","straw","1","0"
"html-keyboard-response","196","724075","0.0-9.0-2.0-0.55","1532","1","2","""event"",""trial"",""time""
""fullscreenenter"",""1"",""3240""
","
","
","""event"",""trial"",""time""
""fullscreenenter"",""1"",""3240""
","
","","","","","","null","<div style=""font-size:60px;"">+</div>","null","","fixation","","","","","","","","","","","","","",""
"learning-trial","197","728080","0.0-9.0-2.0-1.55","1532","1","2","""event"",""trial"",""time""
""fullscreenenter"",""1"",""3240""
","
","
","""event"",""trial"",""time""
""fullscreenenter"",""1"",""3240""
","
","","","","","","470.5999994277954","images/straw2.png","","","learning","images/fruit_choice2.png","images/fruit_choice1.png","images/fruit_choice3.png","[1,0,2]","2","2","1","images/fruit_choice2.png","1","fruit","","straw","1","0"
"html-keyboard-response","198","728587","0.0-9.0-2.0-0.56","1532","1","2","""event"",""trial"",""time""
""fullscreenenter"",""1"",""3240""
","
","
","""event"",""trial"",""time""
""fullscreenenter"",""1"",""3240""
","
","","","","","","null","<div style=""font-size:60px;"">+</div>","null","","fixation","","","","","","","","","","","","","",""
"learning-trial","199","732592","0.0-9.0-2.0-1.56","1532","1","2","""event"",""trial"",""time""
""fullscreenenter"",""1"",""3240""
","
","
","""event"",""trial"",""time""
""fullscreenenter"",""1"",""3240""
","
","","","","","","576.3000001907349","images/banana3.png","","","learning","images/fruit_choice1.png","images/fruit_choice2.png","images/fruit_choice3.png","[0,1,2]","1","1","2","images/fruit_choice2.png","1","fruit","","banana","1","0"
"html-keyboard-response","200","733099","0.0-9.0-2.0-0.57","1532","1","2","""event"",""trial"",""time""
""fullscreenenter"",""1"",""3240""
","
","
","""event"",""trial"",""time""
""fullscreenenter"",""1"",""3240""
","
","","","","","","null","<div style=""font-size:60px;"">+</div>","null","","fixation","","","","","","","","","","","","","",""
"learning-trial","201","737104","0.0-9.0-2.0-1.57","1532","1","2","""event"",""trial"",""time""
""fullscreenenter"",""1"",""3240""
","
","
","""event"",""trial"",""time""
""fullscreenenter"",""1"",""3240""
","
","","","","","","1361.5","images/banana3.png","","","learning","images/fruit_choice2.png","images/fruit_choice3.png","images/fruit_choice1.png","[1,2,0]","1","0","1","images/fruit_choice2.png","1","fruit","","banana","1","0"
"html-keyboard-response","202","737610","0.0-9.0-2.0-0.58","1532","1","2","""event"",""trial"",""time""
""fullscreenenter"",""1"",""3240""
","
","
","""event"",""trial"",""time""
""fullscreenenter"",""1"",""3240""
","
","","","","","","null","<div style=""font-size:60px;"">+</div>","null","","fixation","","","","","","","","","","","","","",""
"learning-trial","203","741616","0.0-9.0-2.0-1.58","1532","1","2","""event"",""trial"",""time""
""fullscreenenter"",""1"",""3240""
","
","
","""event"",""trial"",""time""
""fullscreenenter"",""1"",""3240""
","
","","","","","","2351.6000003814697","images/straw2.png","","","learning","images/fruit_choice2.png","images/fruit_choice1.png","images/fruit_choice3.png","[1,0,2]","2","2","1","images/fruit_choice2.png","-1","fruit","","straw","1","0"
"html-keyboard-response","204","742122","0.0-9.0-2.0-0.59","1532","1","2","""event"",""trial"",""time""
""fullscreenenter"",""1"",""3240""
","
","
","""event"",""trial"",""time""
""fullscreenenter"",""1"",""3240""
","
","","","","","","null","<div style=""font-size:60px;"">+</div>","null","","fixation","","","","","","","","","","","","","",""
"learning-trial","205","746128","0.0-9.0-2.0-1.59","1532","1","2","""event"",""trial"",""time""
""fullscreenenter"",""1"",""3240""
","
","
","""event"",""trial"",""time""
""fullscreenenter"",""1"",""3240""
","
","","","","","","2300","images/straw5.png","","","learning","images/fruit_choice3.png","images/fruit_choice2.png","images/fruit_choice1.png","[2,1,0]","2","0","2","images/fruit_choice2.png","-1","fruit","","straw","1","0"
"html-keyboard-response","206","746634","0.0-9.0-2.0-0.60","1532","1","2","""event"",""trial"",""time""
""fullscreenenter"",""1"",""3240""
","
","
","""event"",""trial"",""time""
""fullscreenenter"",""1"",""3240""
","
","","","","","","null","<div style=""font-size:60px;"">+</div>","null","","fixation","","","","","","","","","","","","","",""
"learning-trial","207","750639","0.0-9.0-2.0-1.60","1532","1","2","""event"",""trial"",""time""
""fullscreenenter"",""1"",""3240""
","
","
","""event"",""trial"",""time""
""fullscreenenter"",""1"",""3240""
","
","","","","","","962.3000001907349","images/apple2.png","","","learning","images/fruit_choice2.png","images/fruit_choice3.png","images/fruit_choice1.png","[1,2,0]","0","2","1","images/fruit_choice2.png","-1","fruit","","apple","1","0"
"html-keyboard-response","208","751146","0.0-9.0-2.0-0.61","1532","1","2","""event"",""trial"",""time""
""fullscreenenter"",""1"",""3240""
","
","
","""event"",""trial"",""time""
""fullscreenenter"",""1"",""3240""
","
","","","","","","null","<div style=""font-size:60px;"">+</div>","null","","fixation","","","","","","","","","","","","","",""
"learning-trial","209","755151","0.0-9.0-2.0-1.61","1532","1","2","""event"",""trial"",""time""
""fullscreenenter"",""1"",""3240""
","
","
","""event"",""trial"",""time""
""fullscreenenter"",""1"",""3240""
","
","","","","","","310.4000005722046","images/straw3.png","","","learning","images/fruit_choice2.png","images/fruit_choice1.png","images/fruit_choice3.png","[1,0,2]","2","2","3","images/fruit_choice3.png","-1","fruit","","straw","1","0"
"html-keyboard-response","210","755658","0.0-9.0-2.0-0.62","1532","1","2","""event"",""trial"",""time""
""fullscreenenter"",""1"",""3240""
","
","
","""event"",""trial"",""time""
""fullscreenenter"",""1"",""3240""
","
","","","","","","null","<div style=""font-size:60px;"">+</div>","null","","fixation","","","","","","","","","","","","","",""
"learning-trial","211","759663","0.0-9.0-2.0-1.62","1532","1","2","""event"",""trial"",""time""
""fullscreenenter"",""1"",""3240""
","
","
","""event"",""trial"",""time""
""fullscreenenter"",""1"",""3240""
","
","","","","","","707.6000003814697","images/banana2.png","","","learning","images/fruit_choice2.png","images/fruit_choice3.png","images/fruit_choice1.png","[1,2,0]","1","0","1","images/fruit_choice2.png","1","fruit","","banana","1","0"
"html-keyboard-response","212","760169","0.0-9.0-2.0-0.63","1532","1","2","""event"",""trial"",""time""
""fullscreenenter"",""1"",""3240""
","
","
","""event"",""trial"",""time""
""fullscreenenter"",""1"",""3240""
","
","","","","","","null","<div style=""font-size:60px;"">+</div>","null","","fixation","","","","","","","","","","","","","",""
"learning-trial","213","764175","0.0-9.0-2.0-1.63","1532","1","2","""event"",""trial"",""time""
""fullscreenenter"",""1"",""3240""
","
","
","""event"",""trial"",""time""
""fullscreenenter"",""1"",""3240""
","
","","","","","","824.5","images/banana3.png","","","learning","images/fruit_choice1.png","images/fruit_choice3.png","images/fruit_choice2.png","[0,2,1]","1","2","3","images/fruit_choice2.png","-1","fruit","","banana","1","0"
"html-keyboard-response","214","764681","0.0-9.0-2.0-0.64","1532","1","2","""event"",""trial"",""time""
""fullscreenenter"",""1"",""3240""
","
","
","""event"",""trial"",""time""
""fullscreenenter"",""1"",""3240""
","
","","","","","","null","<div style=""font-size:60px;"">+</div>","null","","fixation","","","","","","","","","","","","","",""
"learning-trial","215","768688","0.0-9.0-2.0-1.64","1532","1","2","""event"",""trial"",""time""
""fullscreenenter"",""1"",""3240""
","
","
","""event"",""trial"",""time""
""fullscreenenter"",""1"",""3240""
","
","","","","","","1703","images/straw5.png","","","learning","images/fruit_choice3.png","images/fruit_choice1.png","images/fruit_choice2.png","[2,0,1]","2","0","2","images/fruit_choice1.png","-1","fruit","","straw","1","0"
"html-keyboard-response","216","769193","0.0-9.0-2.0-0.65","1532","1","2","""event"",""trial"",""time""
""fullscreenenter"",""1"",""3240""
","
","
","""event"",""trial"",""time""
""fullscreenenter"",""1"",""3240""
","
","","","","","","null","<div style=""font-size:60px;"">+</div>","null","","fixation","","","","","","","","","","","","","",""
"learning-trial","217","773199","0.0-9.0-2.0-1.65","1532","1","2","""event"",""trial"",""time""
""fullscreenenter"",""1"",""3240""
","
","
","""event"",""trial"",""time""
""fullscreenenter"",""1"",""3240""
","
","","","","","","1364.3000001907349","images/banana2.png","","","learning","images/fruit_choice3.png","images/fruit_choice2.png","images/fruit_choice1.png","[2,1,0]","1","1","2","images/fruit_choice2.png","1","fruit","","banana","1","0"
"html-keyboard-response","218","773705","0.0-9.0-2.0-0.66","1532","1","2","""event"",""trial"",""time""
""fullscreenenter"",""1"",""3240""
","
","
","""event"",""trial"",""time""
""fullscreenenter"",""1"",""3240""
","
","","","","","","null","<div style=""font-size:60px;"">+</div>","null","","fixation","","","","","","","","","","","","","",""
"learning-trial","219","777710","0.0-9.0-2.0-1.66","1532","1","2","""event"",""trial"",""time""
""fullscreenenter"",""1"",""3240""
","
","
","""event"",""trial"",""time""
""fullscreenenter"",""1"",""3240""
","
","","","","","","811.9000005722046","images/banana2.png","","","learning","images/fruit_choice1.png","images/fruit_choice3.png","images/fruit_choice2.png","[0,2,1]","1","2","3","images/fruit_choice2.png","1","fruit","","banana","1","0"
"html-keyboard-response","220","778217","0.0-9.0-2.0-0.67","1532","1","2","""event"",""trial"",""time""
""fullscreenenter"",""1"",""3240""
","
","
","""event"",""trial"",""time""
""fullscreenenter"",""1"",""3240""
","
","","","","","","null","<div style=""font-size:60px;"">+</div>","null","","fixation","","","","","","","","","","","","","",""
"learning-trial","221","782222","0.0-9.0-2.0-1.67","1532","1","2","""event"",""trial"",""time""
""fullscreenenter"",""1"",""3240""
","
","
","""event"",""trial"",""time""
""fullscreenenter"",""1"",""3240""
","
","","","","","","627.8000001907349","images/straw5.png","","","learning","images/fruit_choice1.png","images/fruit_choice2.png","images/fruit_choice3.png","[0,1,2]","2","2","1","images/fruit_choice1.png","1","fruit","","straw","1","0"
"html-keyboard-response","222","782729","0.0-9.0-2.0-0.68","1532","1","2","""event"",""trial"",""time""
""fullscreenenter"",""1"",""3240""
","
","
","""event"",""trial"",""time""
""fullscreenenter"",""1"",""3240""
","
","","","","","","null","<div style=""font-size:60px;"">+</div>","null","","fixation","","","","","","","","","","","","","",""
"learning-trial","223","786734","0.0-9.0-2.0-1.68","1532","1","2","""event"",""trial"",""time""
""fullscreenenter"",""1"",""3240""
","
","
","""event"",""trial"",""time""
""fullscreenenter"",""1"",""3240""
","
","","","","","","614.1000003814697","images/banana1.png","","","learning","images/fruit_choice3.png","images/fruit_choice2.png","images/fruit_choice1.png","[2,1,0]","1","1","2","images/fruit_choice2.png","1","fruit","","banana","1","0"
"html-keyboard-response","224","787240","0.0-9.0-2.0-0.69","1532","1","2","""event"",""trial"",""time""
""fullscreenenter"",""1"",""3240""
","
","
","""event"",""trial"",""time""
""fullscreenenter"",""1"",""3240""
","
","","","","","","null","<div style=""font-size:60px;"">+</div>","null","","fixation","","","","","","","","","","","","","",""
"learning-trial","225","791246","0.0-9.0-2.0-1.69","1532","1","2","""event"",""trial"",""time""
""fullscreenenter"",""1"",""3240""
","
","
","""event"",""trial"",""time""
""fullscreenenter"",""1"",""3240""
","
","","","","","","577.8000001907349","images/banana1.png","","","learning","images/fruit_choice2.png","images/fruit_choice1.png","images/fruit_choice3.png","[1,0,2]","1","0","1","images/fruit_choice2.png","1","fruit","","banana","1","0"
"html-keyboard-response","226","791752","0.0-9.0-2.0-0.70","1532","1","2","""event"",""trial"",""time""
""fullscreenenter"",""1"",""3240""
","
","
","""event"",""trial"",""time""
""fullscreenenter"",""1"",""3240""
","
","","","","","","null","<div style=""font-size:60px;"">+</div>","null","","fixation","","","","","","","","","","","","","",""
"learning-trial","227","795758","0.0-9.0-2.0-1.70","1532","1","2","""event"",""trial"",""time""
""fullscreenenter"",""1"",""3240""
","
","
","""event"",""trial"",""time""
""fullscreenenter"",""1"",""3240""
","
","","","","","","826.7999992370605","images/straw2.png","","","learning","images/fruit_choice1.png","images/fruit_choice2.png","images/fruit_choice3.png","[0,1,2]","2","2","2","images/fruit_choice2.png","1","fruit","","straw","1","0"
"html-keyboard-response","228","796264","0.0-9.0-2.0-0.71","1532","1","2","""event"",""trial"",""time""
""fullscreenenter"",""1"",""3240""
","
","
","""event"",""trial"",""time""
""fullscreenenter"",""1"",""3240""
","
","","","","","","null","<div style=""font-size:60px;"">+</div>","null","","fixation","","","","","","","","","","","","","",""
"learning-trial","229","800269","0.0-9.0-2.0-1.71","1532","1","2","""event"",""trial"",""time""
""fullscreenenter"",""1"",""3240""
","
","
","""event"",""trial"",""time""
""fullscreenenter"",""1"",""3240""
","
","","","","","","694.1999998092651","images/straw5.png","","","learning","images/fruit_choice1.png","images/fruit_choice3.png","images/fruit_choice2.png","[0,2,1]","2","1","3","images/fruit_choice2.png","-1","fruit","","straw","1","0"
"html-button-response","230","802725","0.0-9.0-3.0","1532","1","2","""event"",""trial"",""time""
""fullscreenenter"",""1"",""3240""
","
","
","""event"",""trial"",""time""
""fullscreenenter"",""1"",""3240""
","
","","","","","","2452","<p> You have completed the round! <p> In this round, you earned -4 points! </p>","0","","break","","","","","","","","","","","","","",""
"html-button-response","231","803727","0.0-10.0","1532","1","2","""event"",""trial"",""time""
""fullscreenenter"",""1"",""3240""
","
","
","""event"",""trial"",""time""
""fullscreenenter"",""1"",""3240""
","
","","","","","","1000.3999996185303","<p> Now it's time to play another round. </p>","0","","transition_screen","","","","","","","","","","","","","",""
"preload","232","808947","0.0-11.0-0.0","1532","1","2","""event"",""trial"",""time""
""fullscreenenter"",""1"",""3240""
","
","
","""event"",""trial"",""time""
""fullscreenenter"",""1"",""3240""
","
","true","false","[]","[]","[]","","","","","","","","","","","","","","","","","","",""
"learning-instructions","233","820188","0.0-11.0-1.0-0.0","1532","1","2","""event"",""trial"",""time""
""fullscreenenter"",""1"",""3240""
","
","
","""event"",""trial"",""time""
""fullscreenenter"",""1"",""3240""
","
","","","","","","4754","<p> Your goal in this round is to feed all of your pets with the foods they like. </p><p> You will need to feed many pets. </p></div>","","0","instructions","","","","","","","","","","","","","",""
"learning-instructions","234","832708","0.0-11.0-1.0-0.1","1532","1","2","""event"",""trial"",""time""
""fullscreenenter"",""1"",""3240""
","
","
","""event"",""trial"",""time""
""fullscreenenter"",""1"",""3240""
","
","","","","","","4532.900000572205","<p> On each turn, you will see a picture of one of your pets and three different types of foods.  </p><p> You need to select the food that you want to give to your pet.  </p>","","0","instructions","","","","","","","","","","","","","",""
"learning-instructions","235","839539","0.0-11.0-1.0-0.2","1532","1","2","""event"",""trial"",""time""
""fullscreenenter"",""1"",""3240""
","
","
","""event"",""trial"",""time""
""fullscreenenter"",""1"",""3240""
","
","","","","","","131.10000038146973","<p> You can select the food on the left by pressing 1, the food in the middle by pressing 2, and the food on the right by pressing 3. </p><br><div class=""choice-instructions-grid""> <div class=""choice-option""><img src=""images/pets_choice1.png"" class=""choice-option-img"" stage=""instructions"" position=""0"" ><div class=""choice-option-text""> Press ""1."" </div></div><div class=""choice-option""><img src=""images/pets_choice2.png"" class=""choice-option-img"" stage=""instructions"" position=""1"" ><div class=""choice-option-text""> Press ""2."" </div></div><div class=""choice-option""><img src=""images/pets_choice3.png"" class=""choice-option-img"" stage=""instructions"" position=""2"" ><div class=""choice-option-text""> Press ""3."" </div></div></div>","","0","instructions","","","","","","","","","","","","","",""
"learning-instructions","236","845566","0.0-11.0-1.0-0.3","1532","1","2","""event"",""trial"",""time""
""fullscreenenter"",""1"",""3240""
","
","
","""event"",""trial"",""time""
""fullscreenenter"",""1"",""3240""
","
","","","","","","2009.0999994277954","<p> If your pet likes the food you chose, it will be very happy! </p><div style='float: center;'><img src='images/check.png' width = '200' height = '200'></img>","","0","instructions","","","","","","","","","","","","","",""
"learning-instructions","237","850698","0.0-11.0-1.0-0.4","1532","1","2","""event"",""trial"",""time""
""fullscreenenter"",""1"",""3240""
","
","
","""event"",""trial"",""time""
""fullscreenenter"",""1"",""3240""
","
