"trial_type","trial_index","time_elapsed","internal_node_id","subject_id","condition","task_version","interactions","blur_events","focus_events","fullscreenenter_events","fullscreenexit_events","success","timeout","failed_images","failed_audio","failed_video","rt","stimulus","response","button_pressed","task_part","left_choice","middle_choice","right_choice","choice_positions","correct_response","correct_position","key_press","option_selected","points","task_block","correct","stim_cat","block_condition","block_number"
"pavlovia","0","8","0.0-0.0","1551","1","2","""event"",""trial"",""time""
""fullscreenenter"",""1"",""20286""
","
","
","""event"",""trial"",""time""
""fullscreenenter"",""1"",""20286""
","
","","","","","","","","","","","","","","","","","","","","","","","",""
"fullscreen","1","21263","0.0-1.0","1551","1","2","""event"",""trial"",""time""
""fullscreenenter"",""1"",""20286""
","
","
","""event"",""trial"",""time""
""fullscreenenter"",""1"",""20286""
","
","true","","","","","","","","","","","","","","","","","","","","","","",""
"preload","2","49646","0.0-2.0","1551","1","2","""event"",""trial"",""time""
""fullscreenenter"",""1"",""20286""
","
","
","""event"",""trial"",""time""
""fullscreenenter"",""1"",""20286""
","
","true","false","[]","[]","[]","","","","","","","","","","","","","","","","","","",""
"audio-keyboard-response","3","53760","0.0-3.0","1551","1","2","""event"",""trial"",""time""
""fullscreenenter"",""1"",""20286""
","
","
","""event"",""trial"",""time""
""fullscreenenter"",""1"",""20286""
","
","","","","","","4109.333333333332","audio/beep_loop.wav"," ","","","","","","","","","","","","","","","",""
"audio-button-response","4","58419","0.0-4.0","1551","1","2","""event"",""trial"",""time""
""fullscreenenter"",""1"",""20286""
","
","
","""event"",""trial"",""time""
""fullscreenenter"",""1"",""20286""
","
","","","","","","4651","audio/shark.wav","4","","","","","","","","","","","","","","","",""
"audio-button-response","5","61761","0.0-5.0","1551","1","2","""event"",""trial"",""time""
""fullscreenenter"",""1"",""20286""
","
","
","""event"",""trial"",""time""
""fullscreenenter"",""1"",""20286""
","
","","","","","","2331","audio/turtle.wav","1","","","","","","","","","","","","","","","",""
"preload","6","78894","0.0-6.0","1551","1","2","""event"",""trial"",""time""
""fullscreenenter"",""1"",""20286""
","
","
","""event"",""trial"",""time""
""fullscreenenter"",""1"",""20286""
","
","true","false","[]","[]","[]","","","","","","","","","","","","","","","","","","",""
"html-keyboard-response","7","81377","0.0-7.0","1551","1","2","""event"",""trial"",""time""
""fullscreenenter"",""1"",""20286""
","
","
","""event"",""trial"",""time""
""fullscreenenter"",""1"",""20286""
","
","","","","","","2481.399999976158","Welcome to the experiment. Press any key to begin and to advance the instructions.","m","","","","","","","","","","","","","","","",""
"learning-instructions","8","90674","0.0-8.0-0.0-0.0","1551","1","2","""event"",""trial"",""time""
""fullscreenenter"",""1"",""20286""
","
","
","""event"",""trial"",""time""
""fullscreenenter"",""1"",""20286""
","
","","","","","","1551.9000000953674","<p> Welcome! Today you are going to play 6 different rounds of a decision-making game. </p><p> Use the mouse to click next to continue. </p>","","0","instructions","","","","","","","","","","","","","",""
"learning-instructions","9","94656","0.0-8.0-0.0-0.1","1551","1","2","""event"",""trial"",""time""
""fullscreenenter"",""1"",""20286""
","
","
","""event"",""trial"",""time""
""fullscreenenter"",""1"",""20286""
","
","","","","","","965.7000000476837","<p> You will start with a practice round to learn the rules. </p>","","0","instructions","","","","","","","","","","","","","",""
"learning-instructions","10","103191","0.0-8.0-0.0-0.2","1551","1","2","""event"",""trial"",""time""
""fullscreenenter"",""1"",""20286""
","
","
","""event"",""trial"",""time""
""fullscreenenter"",""1"",""20286""
","
","","","","","","780.7999999523163","<p> Your goal in this round is to deliver sports equipment to three different parks. </p><p> You will need to deliver many types of equipment. </p></div>","","0","instructions","","","","","","","","","","","","","",""
"learning-instructions","11","112678","0.0-8.0-0.0-0.3","1551","1","2","""event"",""trial"",""time""
""fullscreenenter"",""1"",""20286""
","
","
","""event"",""trial"",""time""
""fullscreenenter"",""1"",""20286""
","
","","","","","","988.1999999284744","<p> On each turn, you will see one piece of sports equipment and three different parks.  </p><p> You need to select which park to deliver the equipment to.  </p>","","0","instructions","","","","","","","","","","","","","",""
"learning-instructions","12","127371","0.0-8.0-0.0-0.4","1551","1","2","""event"",""trial"",""time""
""fullscreenenter"",""1"",""20286""
","
","
","""event"",""trial"",""time""
""fullscreenenter"",""1"",""20286""
","
","","","","","","1400.1999999284744","<p> You can select the park on the left by pressing the '1' key on your keyboard. <br>You can select the park in the middle by pressing the '2' key on your keyboard. <br>You can select the park on the right by pressing the '3' key on your keyboard.  </p><br><div class=""choice-instructions-grid""> <div class=""choice-option""><img src=""images/park1.png"" class=""choice-option-img"" stage=""instructions"" position=""0"" ><div class=""choice-option-text""> Press ""1."" </div></div><div class=""choice-option""><img src=""images/park2.png"" class=""choice-option-img"" stage=""instructions"" position=""1"" ><div class=""choice-option-text""> Press ""2."" </div></div><div class=""choice-option""><img src=""images/park3.png"" class=""choice-option-img"" stage=""instructions"" position=""2"" ><div class=""choice-option-text""> Press ""3."" </div></div></div>","","0","instructions","","","","","","","","","","","","","",""
"learning-instructions","13","134189","0.0-8.0-0.0-0.5","1551","1","2","""event"",""trial"",""time""
""fullscreenenter"",""1"",""20286""
","
","
","""event"",""trial"",""time""
""fullscreenenter"",""1"",""20286""
","
","","","","","","1428","<p> If the kids in the park you chose like the equipment, they will be very happy! </p><div style='float: center;'><img src='images/check.png' width = '200' height = '200'></img>","","0","instructions","","","","","","","","","","","","","",""
"learning-instructions","14","141388","0.0-8.0-0.0-0.6","1551","1","2","""event"",""trial"",""time""
""fullscreenenter"",""1"",""20286""
","
","
","""event"",""trial"",""time""
""fullscreenenter"",""1"",""20286""
","
","","","","","","1587.8999999761581","<p> But, if the kids in the park you chose do not like the equipment, they will be sad. </p><div style='float: center;'><img src='images/x.png' width = '200' height = '200'></img>","","0","instructions","","","","","","","","","","","","","",""
"learning-instructions","15","148993","0.0-8.0-0.0-0.7","1551","1","2","""event"",""trial"",""time""
""fullscreenenter"",""1"",""20286""
","
","
","""event"",""trial"",""time""
""fullscreenenter"",""1"",""20286""
","
","","","","","","1172.8999999761581","<p> Importantly, the kids in each park like some pieces of sports equipment more than others. </p>","","0","instructions","","","","","","","","","","","","","",""
"learning-instructions","16","155811","0.0-8.0-0.0-0.8","1551","1","2","""event"",""trial"",""time""
""fullscreenenter"",""1"",""20286""
","
","
","""event"",""trial"",""time""
""fullscreenenter"",""1"",""20286""
","
","","","","","","770.1000000238419","<p> If you choose the best park for each piece of equipment, the kids there will usually be happy. </p>","","0","instructions","","","","","","","","","","","","","",""
"learning-instructions","17","163014","0.0-8.0-0.0-0.9","1551","1","2","""event"",""trial"",""time""
""fullscreenenter"",""1"",""20286""
","
","
","""event"",""trial"",""time""
""fullscreenenter"",""1"",""20286""
","
","","","","","","554.2000000476837","<p> However, even if you choose the best park for the equipment, the kids may sometimes be sad. </p>","","0","instructions","","","","","","","","","","","","","",""
"learning-instructions","18","170793","0.0-8.0-0.0-0.10","1551","1","2","""event"",""trial"",""time""
""fullscreenenter"",""1"",""20286""
","
","
","""event"",""trial"",""time""
""fullscreenenter"",""1"",""20286""
","
","","","","","","532.6000000238419","<p> Similarly, even if you choose the <i>wrong</i> park for the equipment, the kids may still be happy sometimes.","","0","instructions","","","","","","","","","","","","","",""
"learning-instructions","19","177455","0.0-8.0-0.0-0.11","1551","1","2","""event"",""trial"",""time""
""fullscreenenter"",""1"",""20286""
","
","
","""event"",""trial"",""time""
""fullscreenenter"",""1"",""20286""
","
","","","","","","1605.0999999046326","<p> For example, the best park for this soccer ball is this one.<div style='float: center;'><img src='images/i1.png' width = '500' height = '268'></img>","","0","instructions","","","","","","","","","","","","","",""
"learning-instructions","20","183492","0.0-8.0-0.0-0.12","1551","1","2","""event"",""trial"",""time""
""fullscreenenter"",""1"",""20286""
","
","
","""event"",""trial"",""time""
""fullscreenenter"",""1"",""20286""
","
","","","","","","742.6000000238419","<p> Let's see what happens if you choose this park for the soccer ball five times.","","0","instructions","","","","","","","","","","","","","",""
"learning-instructions","21","186951","0.0-8.0-0.0-0.13","1551","1","2","""event"",""trial"",""time""
""fullscreenenter"",""1"",""20286""
","
","
","""event"",""trial"",""time""
""fullscreenenter"",""1"",""20286""
","
","","","","","","1271.7000000476837","<p> The kids are happy.<div style='float: left;'><img src='images/i2.png' width = '640' height = '360'></img>","","0","instructions","","","","","","","","","","","","","",""
"learning-instructions","22","189672","0.0-8.0-0.0-0.14","1551","1","2","""event"",""trial"",""time""
""fullscreenenter"",""1"",""20286""
","
","
","""event"",""trial"",""time""
""fullscreenenter"",""1"",""20286""
","
","","","","","","551.7000000476837","<p> The kids are happy.<div style='float: left;'><img src='images/i3.png' width = '640' height = '360'></img>","","0","instructions","","","","","","","","","","","","","",""
"learning-instructions","23","192350","0.0-8.0-0.0-0.15","1551","1","2","""event"",""trial"",""time""
""fullscreenenter"",""1"",""20286""
","
","
","""event"",""trial"",""time""
""fullscreenenter"",""1"",""20286""
","
","","","","","","509.90000009536743","<p> The kids are happy.<div style='float: left;'><img src='images/i4.png' width = '640' height = '360'></img>","","0","instructions","","","","","","","","","","","","","",""
"learning-instructions","24","195097","0.0-8.0-0.0-0.16","1551","1","2","""event"",""trial"",""time""
""fullscreenenter"",""1"",""20286""
","
","
","""event"",""trial"",""time""
""fullscreenenter"",""1"",""20286""
","
","","","","","","535.2000000476837","<p> The kids are sad.<div style='float: left;'><img src='images/i5.png' width = '640' height = '360'></img>","","0","instructions","","","","","","","","","","","","","",""
"learning-instructions","25","197908","0.0-8.0-0.0-0.17","1551","1","2","""event"",""trial"",""time""
""fullscreenenter"",""1"",""20286""
","
","
","""event"",""trial"",""time""
""fullscreenenter"",""1"",""20286""
","
","","","","","","638.1000000238419","<p> The kids are happy.<div style='float: left;'><img src='images/i6.png' width = '640' height = '360'></img>","","0","instructions","","","","","","","","","","","","","",""
"learning-instructions","26","206061","0.0-8.0-0.0-0.18","1551","1","2","""event"",""trial"",""time""
""fullscreenenter"",""1"",""20286""
","
","
","""event"",""trial"",""time""
""fullscreenenter"",""1"",""20286""
","
","","","","","","880.5999999046326","<p> As you can see, selecting that park for the soccer ball made the kids happy most of the time, but not all the time.","","0","instructions","","","","","","","","","","","","","",""
"learning-instructions","27","212556","0.0-8.0-0.0-0.19","1551","1","2","""event"",""trial"",""time""
""fullscreenenter"",""1"",""20286""
","
","
","""event"",""trial"",""time""
""fullscreenenter"",""1"",""20286""
","
","","","","","","475.2000000476837","<p> Now let's see what happens if you choose a DIFFERENT park for the soccer ball 5 times.","","0","instructions","","","","","","","","","","","","","",""
"learning-instructions","28","215286","0.0-8.0-0.0-0.20","1551","1","2","""event"",""trial"",""time""
""fullscreenenter"",""1"",""20286""
","
","
","""event"",""trial"",""time""
""fullscreenenter"",""1"",""20286""
","
","","","","","","494.7000000476837","<p> The kids are sad.<div style='float: left;'><img src='images/i7.png' width = '640' height = '360'></img>","","0","instructions","","","","","","","","","","","","","",""
"learning-instructions","29","217903","0.0-8.0-0.0-0.21","1551","1","2","""event"",""trial"",""time""
""fullscreenenter"",""1"",""20286""
","
","
","""event"",""trial"",""time""
""fullscreenenter"",""1"",""20286""
","
","","","","","","411.89999997615814","<p> The kids are sad.<div style='float: left;'><img src='images/i8.png' width = '640' height = '360'></img>","","0","instructions","","","","","","","","","","","","","",""
"learning-instructions","30","220477","0.0-8.0-0.0-0.22","1551","1","2","""event"",""trial"",""time""
""fullscreenenter"",""1"",""20286""
","
","
","""event"",""trial"",""time""
""fullscreenenter"",""1"",""20286""
","
","","","","","","395.60000002384186","<p> The kids are happy.<div style='float: left;'><img src='images/i9.png' width = '640' height = '360'></img>","","0","instructions","","","","","","","","","","","","","",""
"learning-instructions","31","223100","0.0-8.0-0.0-0.23","1551","1","2","""event"",""trial"",""time""
""fullscreenenter"",""1"",""20286""
","
","
","""event"",""trial"",""time""
""fullscreenenter"",""1"",""20286""
","
","","","","","","408.39999997615814","<p> The kids are sad.<div style='float: left;'><img src='images/i10.png' width = '640' height = '360'></img>","","0","instructions","","","","","","","","","","","","","",""
"learning-instructions","32","225965","0.0-8.0-0.0-0.24","1551","1","2","""event"",""trial"",""time""
""fullscreenenter"",""1"",""20286""
","
","
","""event"",""trial"",""time""
""fullscreenenter"",""1"",""20286""
","
","","","","","","644.7000000476837","<p> The kids are sad.<div style='float: left;'><img src='images/i11.png' width = '640' height = '360'></img>","","0","instructions","","","","","","","","","","","","","",""
"learning-instructions","33","234538","0.0-8.0-0.0-0.25","1551","1","2","""event"",""trial"",""time""
""fullscreenenter"",""1"",""20286""
","
","
","""event"",""trial"",""time""
""fullscreenenter"",""1"",""20286""
","
","","","","","","447.8000000715256","<p> As you can see, selecting the wrong park for the soccer ball made the kids sad most of the time, but not all the time.","","0","instructions","","","","","","","","","","","","","",""
"learning-instructions","34","244310","0.0-8.0-0.0-0.26","1551","1","2","""event"",""trial"",""time""
""fullscreenenter"",""1"",""20286""
","
","
","""event"",""trial"",""time""
""fullscreenenter"",""1"",""20286""
","
","","","","","","632.8999999761581","<p> The different pieces of equipment belong in different parks. You need to try to learn which is the best park for each piece of equipment.","","0","instructions","","","","","","","","","","","","","",""
"learning-instructions","35","261110","0.0-8.0-0.0-0.27","1551","1","2","""event"",""trial"",""time""
""fullscreenenter"",""1"",""20286""
","
","
","""event"",""trial"",""time""
""fullscreenenter"",""1"",""20286""
","
","","","","","","409.5","<p> Try to choose the best park for each piece of equipment, because you will <b> WIN </b> 1 point for each time you make the kids happy and <b>LOSE</b> 1 point for each time you make them sad. </p><p> Remember, if you make the best choice, you will win 1 point most of the time, but not all the time. </p>","","0","instructions","","","","","","","","","","","","","",""
"learning-instructions","36","267024","0.0-8.0-0.0-0.28","1551","1","2","""event"",""trial"",""time""
""fullscreenenter"",""1"",""20286""
","
","
","""event"",""trial"",""time""
""fullscreenenter"",""1"",""20286""
","
","","","","","","422.89999997615814","<p> This is just a practice round, but in the real game, your bonus payment will depend on your total number of points.","","0","instructions","","","","","","","","","","","","","",""
"learning-instructions","37","277738","0.0-8.0-0.0-0.29","1551","1","2","""event"",""trial"",""time""
""fullscreenenter"",""1"",""20286""
","
","
","""event"",""trial"",""time""
""fullscreenenter"",""1"",""20286""
","
","","","","","","387.1999999284744","<p> The position where each park appears will change throughout the game. </p><p> The position where the park appears <i> does not </i> influence how likely the kids are to be happy or sad. </p>","","0","instructions","","","","","","","","","","","","","",""
"learning-instructions","38","289109","0.0-8.0-0.0-0.30","1551","1","2","""event"",""trial"",""time""
""fullscreenenter"",""1"",""20286""
","
","
","""event"",""trial"",""time""
""fullscreenenter"",""1"",""20286""
","
","","","","","","529.1000000238419","<p> You will have 4 seconds to make each choice. Try to respond before time runs out! </p><p> You will lose 1 point each time you do not make a response. </p>","","0","instructions","","","","","","","","","","","","","",""
"learning-instructions","39","296727","0.0-8.0-0.0-0.31","1551","1","2","""event"",""trial"",""time""
""fullscreenenter"",""1"",""20286""
","
","
","""event"",""trial"",""time""
""fullscreenenter"",""1"",""20286""
","
","","","","","","816.6999999284744","<p> Remember, you should use the 1, 2, and 3 keys to select the park for each piece of equipment. </p><br><div class=""choice-instructions-grid""> <div class=""choice-option""><img src=""images/park1.png"" class=""choice-option-img"" stage=""instructions"" position=""0"" ><div class=""choice-option-text""> Press ""1."" </div></div><div class=""choice-option""><img src=""images/park2.png"" class=""choice-option-img"" stage=""instructions"" position=""1"" ><div class=""choice-option-text""> Press ""2."" </div></div><div class=""choice-option""><img src=""images/park3.png"" class=""choice-option-img"" stage=""instructions"" position=""2"" ><div class=""choice-option-text""> Press ""3."" </div></div></div>","","0","instructions","","","","","","","","","","","","","",""
"html-button-response","40","299090","0.0-8.0-1.0","1551","1","2","""event"",""trial"",""time""
""fullscreenenter"",""1"",""20286""
","
","
","""event"",""trial"",""time""
""fullscreenenter"",""1"",""20286""
","
","","","","","","2249.600000023842","<p> Ready to practice? </p>","0","","","","","","","","","","","","","","","",""
"html-keyboard-response","41","299709","0.0-8.0-2.0-0.0","1551","1","2","""event"",""trial"",""time""
""fullscreenenter"",""1"",""20286""
","
","
","""event"",""trial"",""time""
""fullscreenenter"",""1"",""20286""
","
","","","","","","null","<div style=""font-size:60px;"">+</div>","null","","fixation","","","","","","","","","","","","","",""
"learning-trial","42","303719","0.0-8.0-2.0-1.0","1551","1","2","""event"",""trial"",""time""
""fullscreenenter"",""1"",""20286""
","
","
","""event"",""trial"",""time""
""fullscreenenter"",""1"",""20286""
","
","","","","","","793.2000000476837","images/racket4.png","","","practice","images/park1.png","images/park3.png","images/park2.png","[0,2,1]","2","1","1","images/park1.png","-1","practice","","","",""
"html-keyboard-response","43","304227","0.0-8.0-2.0-0.1","1551","1","2","""event"",""trial"",""time""
""fullscreenenter"",""1"",""20286""
","
","
","""event"",""trial"",""time""
""fullscreenenter"",""1"",""20286""
","
","","","","","","null","<div style=""font-size:60px;"">+</div>","null","","fixation","","","","","","","","","","","","","",""
"learning-trial","44","308241","0.0-8.0-2.0-1.1","1551","1","2","""event"",""trial"",""time""
""fullscreenenter"",""1"",""20286""
","
","
","""event"",""trial"",""time""
""fullscreenenter"",""1"",""20286""
","
","","","","","","1326.7000000476837","images/racket3.png","","","practice","images/park3.png","images/park2.png","images/park1.png","[2,1,0]","0","2","1","images/park3.png","-1","practice","","","",""
"html-keyboard-response","45","308757","0.0-8.0-2.0-0.2","1551","1","2","""event"",""trial"",""time""
""fullscreenenter"",""1"",""20286""
","
","
","""event"",""trial"",""time""
""fullscreenenter"",""1"",""20286""
","
","","","","","","null","<div style=""font-size:60px;"">+</div>","null","","fixation","","","","","","","","","","","","","",""
"learning-trial","46","312773","0.0-8.0-2.0-1.2","1551","1","2","""event"",""trial"",""time""
""fullscreenenter"",""1"",""20286""
","
","
","""event"",""trial"",""time""
""fullscreenenter"",""1"",""20286""
","
","","","","","","1432.5","images/ball2.png","","","practice","images/park3.png","images/park1.png","images/park2.png","[2,0,1]","0","1","2","images/park1.png","-1","practice","","","",""
"html-keyboard-response","47","313290","0.0-8.0-2.0-0.3","1551","1","2","""event"",""trial"",""time""
""fullscreenenter"",""1"",""20286""
","
","
","""event"",""trial"",""time""
""fullscreenenter"",""1"",""20286""
","
","","","","","","null","<div style=""font-size:60px;"">+</div>","null","","fixation","","","","","","","","","","","","","",""
"learning-trial","48","317309","0.0-8.0-2.0-1.3","1551","1","2","""event"",""trial"",""time""
""fullscreenenter"",""1"",""20286""
","
","
","""event"",""trial"",""time""
""fullscreenenter"",""1"",""20286""
","
","","","","","","1071","images/racket1.png","","","practice","images/park2.png","images/park1.png","images/park3.png","[1,0,2]","1","0","2","images/park1.png","-1","practice","","","",""
"html-keyboard-response","49","317828","0.0-8.0-2.0-0.4","1551","1","2","""event"",""trial"",""time""
""fullscreenenter"",""1"",""20286""
","
","
","""event"",""trial"",""time""
""fullscreenenter"",""1"",""20286""
","
","","","","","","null","<div style=""font-size:60px;"">+</div>","null","","fixation","","","","","","","","","","","","","",""
"learning-trial","50","321849","0.0-8.0-2.0-1.4","1551","1","2","""event"",""trial"",""time""
""fullscreenenter"",""1"",""20286""
","
","
","""event"",""trial"",""time""
""fullscreenenter"",""1"",""20286""
","
","","","","","","1291.7000000476837","images/racket3.png","","","practice","images/park3.png","images/park2.png","images/park1.png","[2,1,0]","0","2","1","images/park3.png","-1","practice","","","",""
"html-keyboard-response","51","322368","0.0-8.0-2.0-0.5","1551","1","2","""event"",""trial"",""time""
""fullscreenenter"",""1"",""20286""
","
","
","""event"",""trial"",""time""
""fullscreenenter"",""1"",""20286""
","
","","","","","","null","<div style=""font-size:60px;"">+</div>","null","","fixation","","","","","","","","","","","","","",""
"learning-trial","52","326375","0.0-8.0-2.0-1.5","1551","1","2","""event"",""trial"",""time""
""fullscreenenter"",""1"",""20286""
","
","
","""event"",""trial"",""time""
""fullscreenenter"",""1"",""20286""
","
","","","","","","878.9000000953674","images/ball2.png","","","practice","images/park3.png","images/park1.png","images/park2.png","[2,0,1]","0","1","3","images/park2.png","-1","practice","","","",""
"html-keyboard-response","53","326878","0.0-8.0-2.0-0.6","1551","1","2","""event"",""trial"",""time""
""fullscreenenter"",""1"",""20286""
","
","
","""event"",""trial"",""time""
""fullscreenenter"",""1"",""20286""
","
","","","","","","null","<div style=""font-size:60px;"">+</div>","null","","fixation","","","","","","","","","","","","","",""
"learning-trial","54","330887","0.0-8.0-2.0-1.6","1551","1","2","""event"",""trial"",""time""
""fullscreenenter"",""1"",""20286""
","
","
","""event"",""trial"",""time""
""fullscreenenter"",""1"",""20286""
","
","","","","","","567.9000000953674","images/ball1.png","","","practice","images/park2.png","images/park1.png","images/park3.png","[1,0,2]","2","2","1","images/park2.png","1","practice","","","",""
"html-keyboard-response","55","331390","0.0-8.0-2.0-0.7","1551","1","2","""event"",""trial"",""time""
""fullscreenenter"",""1"",""20286""
","
","
","""event"",""trial"",""time""
""fullscreenenter"",""1"",""20286""
","
","","","","","","null","<div style=""font-size:60px;"">+</div>","null","","fixation","","","","","","","","","","","","","",""
"learning-trial","56","335399","0.0-8.0-2.0-1.7","1551","1","2","""event"",""trial"",""time""
""fullscreenenter"",""1"",""20286""
","
","
","""event"",""trial"",""time""
""fullscreenenter"",""1"",""20286""
","
","","","","","","1315.5","images/ball1.png","","","practice","images/park2.png","images/park1.png","images/park3.png","[1,0,2]","2","2","1","images/park2.png","-1","practice","","","",""
"html-keyboard-response","57","335901","0.0-8.0-2.0-0.8","1551","1","2","""event"",""trial"",""time""
""fullscreenenter"",""1"",""20286""
","
","
","""event"",""trial"",""time""
""fullscreenenter"",""1"",""20286""
","
","","","","","","null","<div style=""font-size:60px;"">+</div>","null","","fixation","","","","","","","","","","","","","",""
"learning-trial","58","339917","0.0-8.0-2.0-1.8","1551","1","2","""event"",""trial"",""time""
""fullscreenenter"",""1"",""20286""
","
","
","""event"",""trial"",""time""
""fullscreenenter"",""1"",""20286""
","
","","","","","","1685.3999999761581","images/ball4.png","","","practice","images/park3.png","images/park2.png","images/park1.png","[2,1,0]","1","1","1","images/park3.png","-1","practice","","","",""
"html-keyboard-response","59","340419","0.0-8.0-2.0-0.9","1551","1","2","""event"",""trial"",""time""
""fullscreenenter"",""1"",""20286""
","
","
","""event"",""trial"",""time""
""fullscreenenter"",""1"",""20286""
","
","","","","","","null","<div style=""font-size:60px;"">+</div>","null","","fixation","","","","","","","","","","","","","",""
"learning-trial","60","344427","0.0-8.0-2.0-1.9","1551","1","2","""event"",""trial"",""time""
""fullscreenenter"",""1"",""20286""
","
","
","""event"",""trial"",""time""
""fullscreenenter"",""1"",""20286""
","
","","","","","","2247.2000000476837","images/racket1.png","","","practice","images/park2.png","images/park1.png","images/park3.png","[1,0,2]","1","0","2","images/park1.png","-1","practice","","","",""
"html-keyboard-response","61","344930","0.0-8.0-2.0-0.10","1551","1","2","""event"",""trial"",""time""
""fullscreenenter"",""1"",""20286""
","
","
","""event"",""trial"",""time""
""fullscreenenter"",""1"",""20286""
","
","","","","","","null","<div style=""font-size:60px;"">+</div>","null","","fixation","","","","","","","","","","","","","",""
"learning-trial","62","348939","0.0-8.0-2.0-1.10","1551","1","2","""event"",""trial"",""time""
""fullscreenenter"",""1"",""20286""
","
","
","""event"",""trial"",""time""
""fullscreenenter"",""1"",""20286""
","
","","","","","","1456.6999999284744","images/ball4.png","","","practice","images/park2.png","images/park1.png","images/park3.png","[1,0,2]","1","0","3","images/park3.png","1","practice","","","",""
"html-keyboard-response","63","349442","0.0-8.0-2.0-0.11","1551","1","2","""event"",""trial"",""time""
""fullscreenenter"",""1"",""20286""
","
","
","""event"",""trial"",""time""
""fullscreenenter"",""1"",""20286""
","
","","","","","","null","<div style=""font-size:60px;"">+</div>","null","","fixation","","","","","","","","","","","","","",""
"learning-trial","64","353459","0.0-8.0-2.0-1.11","1551","1","2","""event"",""trial"",""time""
""fullscreenenter"",""1"",""20286""
","
","
","""event"",""trial"",""time""
""fullscreenenter"",""1"",""20286""
","
","","","","","","1693.5","images/racket4.png","","","practice","images/park3.png","images/park2.png","images/park1.png","[2,1,0]","2","0","2","images/park2.png","-1","practice","","","",""
"html-button-response","65","358744","0.0-8.0-3.0","1551","1","2","""event"",""trial"",""time""
""fullscreenenter"",""1"",""20286""
","
","
","""event"",""trial"",""time""
""fullscreenenter"",""1"",""20286""
","
","","","","","","5279","<p> You earned -8 points in the practice round! </p>","0","","break","","","","","","","","","","","","","",""
"learning-instructions","66","368300","0.0-8.0-4.0-0.0","1551","1","2","""event"",""trial"",""time""
""fullscreenenter"",""1"",""20286""
","
","
","""event"",""trial"",""time""
""fullscreenenter"",""1"",""20286""
","
","","","","","","1185.2000000476837","<p> It's almost time to start the real game. </p><p> Before you start, we're going to ask you a few questions about how the game works. </p>","","0","instructions","","","","","","","","","","","","","",""
"preload","67","372136","0.0-8.0-5.0","1551","1","2","""event"",""trial"",""time""
""fullscreenenter"",""1"",""20286""
","
","
","""event"",""trial"",""time""
""fullscreenenter"",""1"",""20286""
","
","true","false","[]","[]","[]","","","","","","","","","","","","","","","","","","",""
"comp-q","68","378268","0.0-8.0-6.0-0.0","1551","1","2","""event"",""trial"",""time""
""fullscreenenter"",""1"",""20286""
","
","
","""event"",""trial"",""time""
""fullscreenenter"",""1"",""20286""
","
","","","","","","682.7000000476837","<p> <b> True or False? </b> </p><p> If you choose the best option, you will always earn 1 point. </p>","","1","comp_question","","","","","","","","","","","true","","",""
"comp-q","69","384981","0.0-8.0-6.0-1.0","1551","1","2","""event"",""trial"",""time""
""fullscreenenter"",""1"",""20286""
","
","
","""event"",""trial"",""time""
""fullscreenenter"",""1"",""20286""
","
","","","","","","1036.1000000238419","<p><b> That's right! </b> Sometimes you will lose 1 point, even if you choose the best option. </p>","","0","comp_answer","","","","","","","","","","","","","",""
"comp-q","70","391168","0.0-8.0-6.0-0.1","1551","1","2","""event"",""trial"",""time""
""fullscreenenter"",""1"",""20286""
","
","
","""event"",""trial"",""time""
""fullscreenenter"",""1"",""20286""
","
","","","","","","1552.7999999523163","<p> <b> True or False? </b> </p><p> You will have as much time as you want to make each choice. </p>","","1","comp_question","","","","","","","","","","","true","","",""
"comp-q","71","402440","0.0-8.0-6.0-1.1","1551","1","2","""event"",""trial"",""time""
""fullscreenenter"",""1"",""20286""
","
","
","""event"",""trial"",""time""
""fullscreenenter"",""1"",""20286""
","
","","","","","","6436","<p> <b> That's right! </b> You will only have 4 seconds to make each choice. </p>","","0","comp_answer","","","","","","","","","","","","","",""
"comp-q","72","409236","0.0-8.0-6.0-0.2","1551","1","2","""event"",""trial"",""time""
""fullscreenenter"",""1"",""20286""
","
","
","""event"",""trial"",""time""
""fullscreenenter"",""1"",""20286""
","
","","","","","","641.8999999761581","<p> <b> True or False? </b> </p><p> You should use the '1', '2', and '3' keys to make your choices. </p>","","0","comp_question","","","","","","","","","","","true","","",""
"comp-q","73","415693","0.0-8.0-6.0-1.2","1551","1","2","""event"",""trial"",""time""
""fullscreenenter"",""1"",""20286""
","
","
","""event"",""trial"",""time""
""fullscreenenter"",""1"",""20286""
","
","","","","","","1597.6000000238419","<p> <b> That's right! </b> You should use the '1', '2', and '3' keys to make each choice. </p>","","0","comp_answer","","","","","","","","","","","","","",""
"learning-instructions","74","425989","0.0-8.0-7.0-0.0","1551","1","2","""event"",""trial"",""time""
""fullscreenenter"",""1"",""20286""
","
","
","""event"",""trial"",""time""
""fullscreenenter"",""1"",""20286""
","
","","","","","","1803.5","<p> It's now time to start the real game. </p>Do your best, because the points you earn in the next rounds will influence your bonus payment. </p>","","0","instructions","","","","","","","","","","","","","",""
"preload","75","430480","0.0-9.0-0.0","1551","1","2","""event"",""trial"",""time""
""fullscreenenter"",""1"",""20286""
","
","
","""event"",""trial"",""time""
""fullscreenenter"",""1"",""20286""
","
","true","false","[]","[]","[]","","","","","","","","","","","","","","","","","","",""
"learning-instructions","76","438095","0.0-9.0-1.0-0.0","1551","1","2","""event"",""trial"",""time""
""fullscreenenter"",""1"",""20286""
","
","
","""event"",""trial"",""time""
""fullscreenenter"",""1"",""20286""
","
","","","","","","1161.5","<p> Your goal in this round is to feed all of your pets with the foods they like. </p><p> You will need to feed many pets. </p></div>","","0","instructions","","","","","","","","","","","","","",""
"learning-instructions","77","446576","0.0-9.0-1.0-0.1","1551","1","2","""event"",""trial"",""time""
""fullscreenenter"",""1"",""20286""
","
","
","""event"",""trial"",""time""
""fullscreenenter"",""1"",""20286""
","
","","","","","","470.2000000476837","<p> On each turn, you will see a picture of one of your pets and three different types of foods.  </p><p> You need to select the food that you want to give to your pet.  </p>","","0","instructions","","","","","","","","","","","","","",""
"learning-instructions","78","453769","0.0-9.0-1.0-0.2","1551","1","2","""event"",""trial"",""time""
""fullscreenenter"",""1"",""20286""
","
","
","""event"",""trial"",""time""
""fullscreenenter"",""1"",""20286""
","
","","","","","","470.2999999523163","<p> You can select the food on the left by pressing 1, the food in the middle by pressing 2, and the food on the right by pressing 3. </p><br><div class=""choice-instructions-grid""> <div class=""choice-option""><img src=""images/pets_choice1.png"" class=""choice-option-img"" stage=""instructions"" position=""0"" ><div class=""choice-option-text""> Press ""1."" </div></div><div class=""choice-option""><img src=""images/pets_choice2.png"" class=""choice-option-img"" stage=""instructions"" position=""1"" ><div class=""choice-option-text""> Press ""2."" </div></div><div class=""choice-option""><img src=""images/pets_choice3.png"" class=""choice-option-img"" stage=""instructions"" position=""2"" ><div class=""choice-option-text""> Press ""3."" </div></div></div>","","0","instructions","","","","","","","","","","","","","",""
"learning-instructions","79","458420","0.0-9.0-1.0-0.3","1551","1","2","""event"",""trial"",""time""
""fullscreenenter"",""1"",""20286""
","
","
","""event"",""trial"",""time""
""fullscreenenter"",""1"",""20286""
","
","","","","","","623.8999999761581","<p> If your pet likes the food you chose, it will be very happy! </p><div style='float: center;'><img src='images/check.png' width = '200' height = '200'></img>","","0","instructions","","","","","","","","","","","","","",""
"learning-instructions","80","463317","0.0-9.0-1.0-0.4","1551","1","2","""event"",""trial"",""time""
""fullscreenenter"",""1"",""20286""
","
","
","""event"",""trial"",""time""
""fullscreenenter"",""1"",""20286""
","
","","","","","","471.39999997615814","<p> But, if your pet does not like the food you chose, it will feel sick. </p><div style='float: center;'><img src='images/x.png' width = '200' height = '200'></img>","","0","instructions","","","","","","","","","","","","","",""
"learning-instructions","81","471447","0.0-9.0-1.0-0.5","1551","1","2","""event"",""trial"",""time""
""fullscreenenter"",""1"",""20286""
","
","
","""event"",""trial"",""time""
""fullscreenenter"",""1"",""20286""
","
","","","","","","472","<p> Importantly, each pet has a food that it prefers. </p><p> If you choose the food that the pet prefers, it will be more likely to be happy! </p>","","0","instructions","","","","","","","","","","","","","",""
"learning-instructions","82","481144","0.0-9.0-1.0-0.6","1551","1","2","""event"",""trial"",""time""
""fullscreenenter"",""1"",""20286""
","
","
","""event"",""trial"",""time""
""fullscreenenter"",""1"",""20286""
","
","","","","","","78.79999995231628","<p> However, even if you choose the food the pet prefers, it may still feel sick sometimes. </p><p> Similarly, even if you choose the <i>wrong</i> food, it may still feel happy.","","0","instructions","","","","","","","","","","","","","",""
"learning-instructions","83","494389","0.0-9.0-1.0-0.7","1551","1","2","""event"",""trial"",""time""
""fullscreenenter"",""1"",""20286""
","
","
","""event"",""trial"",""time""
""fullscreenenter"",""1"",""20286""
","
","","","","","","423.60000002384186","<p> Try to choose the food each pet prefers, because you will <b> WIN </b> 1 point each time the pet is happy and <b>LOSE</b>  1 point each time the pet feels sick. </p><p> Your bonus payment will depend on your total number of points.","","0","instructions","","","","","","","","","","","","","",""
"learning-instructions","84","504560","0.0-9.0-1.0-0.8","1551","1","2","""event"",""trial"",""time""
""fullscreenenter"",""1"",""20286""
","
","
","""event"",""trial"",""time""
""fullscreenenter"",""1"",""20286""
","
","","","","","","1545.6000000238419","<p> The position of each food will change throughout the round. </p><p> The food's position <i> does not </i> influence how likely the pet is to feel happy or sick. </p>","","0","instructions","","","","","","","","","","","","","",""
"learning-instructions","85","515201","0.0-9.0-1.0-0.9","1551","1","2","""event"",""trial"",""time""
""fullscreenenter"",""1"",""20286""
","
","
","""event"",""trial"",""time""
""fullscreenenter"",""1"",""20286""
","
","","","","","","1346.7999999523163","<p> You will have 4 seconds to make each choice. Try to respond before time runs out! </p><p> You will lose 1 point each time you do not make a response. </p>","","0","instructions","","","","","","","","","","","","","",""
"html-keyboard-response","86","515806","0.0-9.0-2.0-0.0","1551","1","2","""event"",""trial"",""time""
""fullscreenenter"",""1"",""20286""
","
","
","""event"",""trial"",""time""
""fullscreenenter"",""1"",""20286""
","
","","","","","","null","<div style=""font-size:60px;"">+</div>","null","","fixation","","","","","","","","","","","","","",""
"learning-trial","87","519824","0.0-9.0-2.0-1.0","1551","1","2","""event"",""trial"",""time""
""fullscreenenter"",""1"",""20286""
","
","
","""event"",""trial"",""time""
""fullscreenenter"",""1"",""20286""
","
","","","","","","941.7000000476837","images/dog4.png","","","learning","images/pets_choice2.png","images/pets_choice3.png","images/pets_choice1.png","[1,2,0]","1","0","2","images/pets_choice3.png","-1","pets","","dog","1","0"
"html-keyboard-response","88","520333","0.0-9.0-2.0-0.1","1551","1","2","""event"",""trial"",""time""
""fullscreenenter"",""1"",""20286""
","
","
","""event"",""trial"",""time""
""fullscreenenter"",""1"",""20286""
","
","","","","","","null","<div style=""font-size:60px;"">+</div>","null","","fixation","","","","","","","","","","","","","",""
"learning-trial","89","524344","0.0-9.0-2.0-1.1","1551","1","2","""event"",""trial"",""time""
""fullscreenenter"",""1"",""20286""
","
","
","""event"",""trial"",""time""
""fullscreenenter"",""1"",""20286""
","
","","","","","","830.8999999761581","images/feline5.png","","","learning","images/pets_choice1.png","images/pets_choice3.png","images/pets_choice2.png","[0,2,1]","0","0","2","images/pets_choice3.png","-1","pets","","feline","1","0"
"html-keyboard-response","90","524853","0.0-9.0-2.0-0.2","1551","1","2","""event"",""trial"",""time""
""fullscreenenter"",""1"",""20286""
","
","
","""event"",""trial"",""time""
""fullscreenenter"",""1"",""20286""
","
","","","","","","null","<div style=""font-size:60px;"">+</div>","null","","fixation","","","","","","","","","","","","","",""
"learning-trial","91","528864","0.0-9.0-2.0-1.2","1551","1","2","""event"",""trial"",""time""
""fullscreenenter"",""1"",""20286""
","
","
","""event"",""trial"",""time""
""fullscreenenter"",""1"",""20286""
","
","","","","","","719.3000000715256","images/rabbit1.png","","","learning","images/pets_choice2.png","images/pets_choice3.png","images/pets_choice1.png","[1,2,0]","2","1","2","images/pets_choice3.png","1","pets","","rabbit","1","0"
"html-keyboard-response","92","529384","0.0-9.0-2.0-0.3","1551","1","2","""event"",""trial"",""time""
""fullscreenenter"",""1"",""20286""
","
","
","""event"",""trial"",""time""
""fullscreenenter"",""1"",""20286""
","
","","","","","","null","<div style=""font-size:60px;"">+</div>","null","","fixation","","","","","","","","","","","","","",""
"learning-trial","93","533394","0.0-9.0-2.0-1.3","1551","1","2","""event"",""trial"",""time""
""fullscreenenter"",""1"",""20286""
","
","
","""event"",""trial"",""time""
""fullscreenenter"",""1"",""20286""
","
","","","","","","2148.0999999046326","images/feline2.png","","","learning","images/pets_choice2.png","images/pets_choice1.png","images/pets_choice3.png","[1,0,2]","0","1","2","images/pets_choice1.png","1","pets","","feline","1","0"
"html-keyboard-response","94","533913","0.0-9.0-2.0-0.4","1551","1","2","""event"",""trial"",""time""
""fullscreenenter"",""1"",""20286""
","
","
","""event"",""trial"",""time""
""fullscreenenter"",""1"",""20286""
","
","","","","","","null","<div style=""font-size:60px;"">+</div>","null","","fixation","","","","","","","","","","","","","",""
"learning-trial","95","537924","0.0-9.0-2.0-1.4","1551","1","2","""event"",""trial"",""time""
""fullscreenenter"",""1"",""20286""
","
","
","""event"",""trial"",""time""
""fullscreenenter"",""1"",""20286""
","
","","","","","","819.7000000476837","images/feline4.png","","","learning","images/pets_choice3.png","images/pets_choice1.png","images/pets_choice2.png","[2,0,1]","0","1","2","images/pets_choice1.png","-1","pets","","feline","1","0"
"html-keyboard-response","96","538433","0.0-9.0-2.0-0.5","1551","1","2","""event"",""trial"",""time""
""fullscreenenter"",""1"",""20286""
","
","
","""event"",""trial"",""time""
""fullscreenenter"",""1"",""20286""
","
","","","","","","null","<div style=""font-size:60px;"">+</div>","null","","fixation","","","","","","","","","","","","","",""
"learning-trial","97","542455","0.0-9.0-2.0-1.5","1551","1","2","""event"",""trial"",""time""
""fullscreenenter"",""1"",""20286""
","
","
","""event"",""trial"",""time""
""fullscreenenter"",""1"",""20286""
","
","","","","","","1560.0999999046326","images/rabbit2.png","","","learning","images/pets_choice3.png","images/pets_choice2.png","images/pets_choice1.png","[2,1,0]","2","0","1","images/pets_choice3.png","-1","pets","","rabbit","1","0"
"html-keyboard-response","98","542963","0.0-9.0-2.0-0.6","1551","1","2","""event"",""trial"",""time""
""fullscreenenter"",""1"",""20286""
","
","
","""event"",""trial"",""time""
""fullscreenenter"",""1"",""20286""
","
","","","","","","null","<div style=""font-size:60px;"">+</div>","null","","fixation","","","","","","","","","","","","","",""
"learning-trial","99","546969","0.0-9.0-2.0-1.6","1551","1","2","""event"",""trial"",""time""
""fullscreenenter"",""1"",""20286""
","
","
","""event"",""trial"",""time""
""fullscreenenter"",""1"",""20286""
","
","","","","","","1609.8999999761581","images/feline2.png","","","learning","images/pets_choice3.png","images/pets_choice1.png","images/pets_choice2.png","[2,0,1]","0","1","2","images/pets_choice1.png","1","pets","","feline","1","0"
"html-keyboard-response","100","547471","0.0-9.0-2.0-0.7","1551","1","2","""event"",""trial"",""time""
""fullscreenenter"",""1"",""20286""
","
","
","""event"",""trial"",""time""
""fullscreenenter"",""1"",""20286""
","
","","","","","","null","<div style=""font-size:60px;"">+</div>","null","","fixation","","","","","","","","","","","","","",""
"learning-trial","101","551476","0.0-9.0-2.0-1.7","1551","1","2","""event"",""trial"",""time""
""fullscreenenter"",""1"",""20286""
","
","
","""event"",""trial"",""time""
""fullscreenenter"",""1"",""20286""
","
","","","","","","1341.3999999761581","images/feline4.png","","","learning","images/pets_choice3.png","images/pets_choice1.png","images/pets_choice2.png","[2,0,1]","0","1","3","images/pets_choice2.png","-1","pets","","feline","1","0"
"html-keyboard-response","102","551979","0.0-9.0-2.0-0.8","1551","1","2","""event"",""trial"",""time""
""fullscreenenter"",""1"",""20286""
","
","
","""event"",""trial"",""time""
""fullscreenenter"",""1"",""20286""
","
","","","","","","null","<div style=""font-size:60px;"">+</div>","null","","fixation","","","","","","","","","","","","","",""
"learning-trial","103","555986","0.0-9.0-2.0-1.8","1551","1","2","""event"",""trial"",""time""
""fullscreenenter"",""1"",""20286""
","
","
","""event"",""trial"",""time""
""fullscreenenter"",""1"",""20286""
","
","","","","","","1743.2000000476837","images/rabbit3.png","","","learning","images/pets_choice1.png","images/pets_choice2.png","images/pets_choice3.png","[0,1,2]","2","2","1","images/pets_choice1.png","-1","pets","","rabbit","1","0"
"html-keyboard-response","104","556488","0.0-9.0-2.0-0.9","1551","1","2","""event"",""trial"",""time""
""fullscreenenter"",""1"",""20286""
","
","
","""event"",""trial"",""time""
""fullscreenenter"",""1"",""20286""
","
","","","","","","null","<div style=""font-size:60px;"">+</div>","null","","fixation","","","","","","","","","","","","","",""
"learning-trial","105","560493","0.0-9.0-2.0-1.9","1551","1","2","""event"",""trial"",""time""
""fullscreenenter"",""1"",""20286""
","
","
","""event"",""trial"",""time""
""fullscreenenter"",""1"",""20286""
","
","","","","","","735.3000000715256","images/rabbit1.png","","","learning","images/pets_choice1.png","images/pets_choice3.png","images/pets_choice2.png","[0,2,1]","2","1","2","images/pets_choice3.png","1","pets","","rabbit","1","0"
"html-keyboard-response","106","561001","0.0-9.0-2.0-0.10","1551","1","2","""event"",""trial"",""time""
""fullscreenenter"",""1"",""20286""
","
","
","""event"",""trial"",""time""
""fullscreenenter"",""1"",""20286""
","
","","","","","","null","<div style=""font-size:60px;"">+</div>","null","","fixation","","","","","","","","","","","","","",""
"learning-trial","107","565008","0.0-9.0-2.0-1.10","1551","1","2","""event"",""trial"",""time""
""fullscreenenter"",""1"",""20286""
","
","
","""event"",""trial"",""time""
""fullscreenenter"",""1"",""20286""
","
","","","","","","1420.7999999523163","images/feline5.png","","","learning","images/pets_choice2.png","images/pets_choice1.png","images/pets_choice3.png","[1,0,2]","0","1","2","images/pets_choice1.png","1","pets","","feline","1","0"
"html-keyboard-response","108","565510","0.0-9.0-2.0-0.11","1551","1","2","""event"",""trial"",""time""
""fullscreenenter"",""1"",""20286""
","
","
","""event"",""trial"",""time""
""fullscreenenter"",""1"",""20286""
","
","","","","","","null","<div style=""font-size:60px;"">+</div>","null","","fixation","","","","","","","","","","","","","",""
"learning-trial","109","569517","0.0-9.0-2.0-1.11","1551","1","2","""event"",""trial"",""time""
""fullscreenenter"",""1"",""20286""
","
","
","""event"",""trial"",""time""
""fullscreenenter"",""1"",""20286""
","
","","","","","","1501.5","images/dog5.png","","","learning","images/pets_choice3.png","images/pets_choice1.png","images/pets_choice2.png","[2,0,1]","1","2","1","images/pets_choice3.png","-1","pets","","dog","1","0"
"html-keyboard-response","110","570033","0.0-9.0-2.0-0.12","1551","1","2","""event"",""trial"",""time""
""fullscreenenter"",""1"",""20286""
","
","
","""event"",""trial"",""time""
""fullscreenenter"",""1"",""20286""
","
","","","","","","null","<div style=""font-size:60px;"">+</div>","null","","fixation","","","","","","","","","","","","","",""
"learning-trial","111","574039","0.0-9.0-2.0-1.12","1551","1","2","""event"",""trial"",""time""
""fullscreenenter"",""1"",""20286""
","
","
","""event"",""trial"",""time""
""fullscreenenter"",""1"",""20286""
","
","","","","","","1510.2999999523163","images/dog4.png","","","learning","images/pets_choice1.png","images/pets_choice2.png","images/pets_choice3.png","[0,1,2]","1","1","1","images/pets_choice1.png","-1","pets","","dog","1","0"
"html-keyboard-response","112","574541","0.0-9.0-2.0-0.13","1551","1","2","""event"",""trial"",""time""
""fullscreenenter"",""1"",""20286""
","
","
","""event"",""trial"",""time""
""fullscreenenter"",""1"",""20286""
","
","","","","","","null","<div style=""font-size:60px;"">+</div>","null","","fixation","","","","","","","","","","","","","",""
"learning-trial","113","578548","0.0-9.0-2.0-1.13","1551","1","2","""event"",""trial"",""time""
""fullscreenenter"",""1"",""20286""
","
","
","""event"",""trial"",""time""
""fullscreenenter"",""1"",""20286""
","
","","","","","","1450.8999999761581","images/feline5.png","","","learning","images/pets_choice2.png","images/pets_choice1.png","images/pets_choice3.png","[1,0,2]","0","1","1","images/pets_choice2.png","-1","pets","","feline","1","0"
"html-keyboard-response","114","579050","0.0-9.0-2.0-0.14","1551","1","2","""event"",""trial"",""time""
""fullscreenenter"",""1"",""20286""
","
","
","""event"",""trial"",""time""
""fullscreenenter"",""1"",""20286""
","
","","","","","","null","<div style=""font-size:60px;"">+</div>","null","","fixation","","","","","","","","","","","","","",""
"learning-trial","115","583057","0.0-9.0-2.0-1.14","1551","1","2","""event"",""trial"",""time""
""fullscreenenter"",""1"",""20286""
","
","
","""event"",""trial"",""time""
""fullscreenenter"",""1"",""20286""
","
","","","","","","1102.1000000238419","images/rabbit2.png","","","learning","images/pets_choice2.png","images/pets_choice3.png","images/pets_choice1.png","[1,2,0]","2","1","2","images/pets_choice3.png","1","pets","","rabbit","1","0"
"html-keyboard-response","116","583559","0.0-9.0-2.0-0.15","1551","1","2","""event"",""trial"",""time""
""fullscreenenter"",""1"",""20286""
","
","
","""event"",""trial"",""time""
""fullscreenenter"",""1"",""20286""
","
","","","","","","null","<div style=""font-size:60px;"">+</div>","null","","fixation","","","","","","","","","","","","","",""
"learning-trial","117","587566","0.0-9.0-2.0-1.15","1551","1","2","""event"",""trial"",""time""
""fullscreenenter"",""1"",""20286""
","
","
","""event"",""trial"",""time""
""fullscreenenter"",""1"",""20286""
","
","","","","","","842","images/rabbit1.png","","","learning","images/pets_choice1.png","images/pets_choice3.png","images/pets_choice2.png","[0,2,1]","2","1","2","images/pets_choice3.png","1","pets","","rabbit","1","0"
"html-keyboard-response","118","588068","0.0-9.0-2.0-0.16","1551","1","2","""event"",""trial"",""time""
""fullscreenenter"",""1"",""20286""
","
","
","""event"",""trial"",""time""
""fullscreenenter"",""1"",""20286""
","
","","","","","","null","<div style=""font-size:60px;"">+</div>","null","","fixation","","","","","","","","","","","","","",""
"learning-trial","119","592076","0.0-9.0-2.0-1.16","1551","1","2","""event"",""trial"",""time""
""fullscreenenter"",""1"",""20286""
","
","
","""event"",""trial"",""time""
""fullscreenenter"",""1"",""20286""
","
","","","","","","843.5999999046326","images/dog4.png","","","learning","images/pets_choice1.png","images/pets_choice3.png","images/pets_choice2.png","[0,2,1]","1","2","3","images/pets_choice2.png","1","pets","","dog","1","0"
"html-keyboard-response","120","592577","0.0-9.0-2.0-0.17","1551","1","2","""event"",""trial"",""time""
""fullscreenenter"",""1"",""20286""
","
","
","""event"",""trial"",""time""
""fullscreenenter"",""1"",""20286""
","
","","","","","","null","<div style=""font-size:60px;"">+</div>","null","","fixation","","","","","","","","","","","","","",""
"learning-trial","121","596584","0.0-9.0-2.0-1.17","1551","1","2","""event"",""trial"",""time""
""fullscreenenter"",""1"",""20286""
","
","
","""event"",""trial"",""time""
""fullscreenenter"",""1"",""20286""
","
","","","","","","1165.1000000238419","images/feline4.png","","","learning","images/pets_choice3.png","images/pets_choice1.png","images/pets_choice2.png","[2,0,1]","0","1","3","images/pets_choice2.png","-1","pets","","feline","1","0"
"html-keyboard-response","122","597087","0.0-9.0-2.0-0.18","1551","1","2","""event"",""trial"",""time""
""fullscreenenter"",""1"",""20286""
","
","
","""event"",""trial"",""time""
""fullscreenenter"",""1"",""20286""
","
","","","","","","null","<div style=""font-size:60px;"">+</div>","null","","fixation","","","","","","","","","","","","","",""
"learning-trial","123","601094","0.0-9.0-2.0-1.18","1551","1","2","""event"",""trial"",""time""
""fullscreenenter"",""1"",""20286""
","
","
","""event"",""trial"",""time""
""fullscreenenter"",""1"",""20286""
","
","","","","","","1475.4000000953674","images/feline2.png","","","learning","images/pets_choice1.png","images/pets_choice2.png","images/pets_choice3.png","[0,1,2]","0","0","3","images/pets_choice3.png","-1","pets","","feline","1","0"
"html-keyboard-response","124","601596","0.0-9.0-2.0-0.19","1551","1","2","""event"",""trial"",""time""
""fullscreenenter"",""1"",""20286""
","
","
","""event"",""trial"",""time""
""fullscreenenter"",""1"",""20286""
","
","","","","","","null","<div style=""font-size:60px;"">+</div>","null","","fixation","","","","","","","","","","","","","",""
"learning-trial","125","605601","0.0-9.0-2.0-1.19","1551","1","2","""event"",""trial"",""time""
""fullscreenenter"",""1"",""20286""
","
","
","""event"",""trial"",""time""
""fullscreenenter"",""1"",""20286""
","
","","","","","","898.8999999761581","images/feline4.png","","","learning","images/pets_choice2.png","images/pets_choice3.png","images/pets_choice1.png","[1,2,0]","0","2","3","images/pets_choice1.png","1","pets","","feline","1","0"
"html-keyboard-response","126","606103","0.0-9.0-2.0-0.20","1551","1","2","""event"",""trial"",""time""
""fullscreenenter"",""1"",""20286""
","
","
","""event"",""trial"",""time""
""fullscreenenter"",""1"",""20286""
","
","","","","","","null","<div style=""font-size:60px;"">+</div>","null","","fixation","","","","","","","","","","","","","",""
"learning-trial","127","610111","0.0-9.0-2.0-1.20","1551","1","2","""event"",""trial"",""time""
""fullscreenenter"",""1"",""20286""
","
","
","""event"",""trial"",""time""
""fullscreenenter"",""1"",""20286""
","
","","","","","","1479.1000000238419","images/rabbit3.png","","","learning","images/pets_choice3.png","images/pets_choice1.png","images/pets_choice2.png","[2,0,1]","2","0","3","images/pets_choice2.png","-1","pets","","rabbit","1","0"
"html-keyboard-response","128","610613","0.0-9.0-2.0-0.21","1551","1","2","""event"",""trial"",""time""
""fullscreenenter"",""1"",""20286""
","
","
","""event"",""trial"",""time""
""fullscreenenter"",""1"",""20286""
","
","","","","","","null","<div style=""font-size:60px;"">+</div>","null","","fixation","","","","","","","","","","","","","",""
"learning-trial","129","614619","0.0-9.0-2.0-1.21","1551","1","2","""event"",""trial"",""time""
""fullscreenenter"",""1"",""20286""
","
","
","""event"",""trial"",""time""
""fullscreenenter"",""1"",""20286""
","
","","","","","","1179.5","images/rabbit1.png","","","learning","images/pets_choice1.png","images/pets_choice2.png","images/pets_choice3.png","[0,1,2]","2","2","3","images/pets_choice3.png","-1","pets","","rabbit","1","0"
"html-keyboard-response","130","615120","0.0-9.0-2.0-0.22","1551","1","2","""event"",""trial"",""time""
""fullscreenenter"",""1"",""20286""
","
","
","""event"",""trial"",""time""
""fullscreenenter"",""1"",""20286""
","
","","","","","","null","<div style=""font-size:60px;"">+</div>","null","","fixation","","","","","","","","","","","","","",""
"learning-trial","131","619128","0.0-9.0-2.0-1.22","1551","1","2","""event"",""trial"",""time""
""fullscreenenter"",""1"",""20286""
","
","
","""event"",""trial"",""time""
""fullscreenenter"",""1"",""20286""
","
","","","","","","1281.7000000476837","images/rabbit3.png","","","learning","images/pets_choice2.png","images/pets_choice3.png","images/pets_choice1.png","[1,2,0]","2","1","1","images/pets_choice2.png","-1","pets","","rabbit","1","0"
"html-keyboard-response","132","619630","0.0-9.0-2.0-0.23","1551","1","2","""event"",""trial"",""time""
""fullscreenenter"",""1"",""20286""
","
","
","""event"",""trial"",""time""
""fullscreenenter"",""1"",""20286""
","
","","","","","","null","<div style=""font-size:60px;"">+</div>","null","","fixation","","","","","","","","","","","","","",""
"learning-trial","133","623638","0.0-9.0-2.0-1.23","1551","1","2","""event"",""trial"",""time""
""fullscreenenter"",""1"",""20286""
","
","
","""event"",""trial"",""time""
""fullscreenenter"",""1"",""20286""
","
","","","","","","1502.1000000238419","images/feline5.png","","","learning","images/pets_choice1.png","images/pets_choice2.png","images/pets_choice3.png","[0,1,2]","0","0","2","images/pets_choice2.png","-1","pets","","feline","1","0"
"html-keyboard-response","134","624141","0.0-9.0-2.0-0.24","1551","1","2","""event"",""trial"",""time""
""fullscreenenter"",""1"",""20286""
","
","
","""event"",""trial"",""time""
""fullscreenenter"",""1"",""20286""
","
","","","","","","null","<div style=""font-size:60px;"">+</div>","null","","fixation","","","","","","","","","","","","","",""
"learning-trial","135","628148","0.0-9.0-2.0-1.24","1551","1","2","""event"",""trial"",""time""
""fullscreenenter"",""1"",""20286""
","
","
","""event"",""trial"",""time""
""fullscreenenter"",""1"",""20286""
","
","","","","","","2651","images/feline4.png","","","learning","images/pets_choice2.png","images/pets_choice1.png","images/pets_choice3.png","[1,0,2]","0","1","2","images/pets_choice1.png","1","pets","","feline","1","0"
"html-keyboard-response","136","628650","0.0-9.0-2.0-0.25","1551","1","2","""event"",""trial"",""time""
""fullscreenenter"",""1"",""20286""
","
","
","""event"",""trial"",""time""
""fullscreenenter"",""1"",""20286""
","
","","","","","","null","<div style=""font-size:60px;"">+</div>","null","","fixation","","","","","","","","","","","","","",""
"learning-trial","137","632656","0.0-9.0-2.0-1.25","1551","1","2","""event"",""trial"",""time""
""fullscreenenter"",""1"",""20286""
","
","
","""event"",""trial"",""time""
""fullscreenenter"",""1"",""20286""
","
","","","","","","1133","images/dog5.png","","","learning","images/pets_choice2.png","images/pets_choice1.png","images/pets_choice3.png","[1,0,2]","1","0","2","images/pets_choice1.png","-1","pets","","dog","1","0"
"html-keyboard-response","138","633159","0.0-9.0-2.0-0.26","1551","1","2","""event"",""trial"",""time""
""fullscreenenter"",""1"",""20286""
","
","
","""event"",""trial"",""time""
""fullscreenenter"",""1"",""20286""
","
","","","","","","null","<div style=""font-size:60px;"">+</div>","null","","fixation","","","","","","","","","","","","","",""
"learning-trial","139","637165","0.0-9.0-2.0-1.26","1551","1","2","""event"",""trial"",""time""
""fullscreenenter"",""1"",""20286""
","
","
","""event"",""trial"",""time""
""fullscreenenter"",""1"",""20286""
","
","","","","","","1353.6000000238419","images/dog4.png","","","learning","images/pets_choice2.png","images/pets_choice1.png","images/pets_choice3.png","[1,0,2]","1","0","2","images/pets_choice1.png","-1","pets","","dog","1","0"
"html-keyboard-response","140","637668","0.0-9.0-2.0-0.27","1551","1","2","""event"",""trial"",""time""
""fullscreenenter"",""1"",""20286""
","
","
","""event"",""trial"",""time""
""fullscreenenter"",""1"",""20286""
","
","","","","","","null","<div style=""font-size:60px;"">+</div>","null","","fixation","","","","","","","","","","","","","",""
"learning-trial","141","641671","0.0-9.0-2.0-1.27","1551","1","2","""event"",""trial"",""time""
""fullscreenenter"",""1"",""20286""
","
","
","""event"",""trial"",""time""
""fullscreenenter"",""1"",""20286""
","
","","","","","","1036.5999999046326","images/feline2.png","","","learning","images/pets_choice3.png","images/pets_choice1.png","images/pets_choice2.png","[2,0,1]","0","1","1","images/pets_choice3.png","-1","pets","","feline","1","0"
"html-keyboard-response","142","642172","0.0-9.0-2.0-0.28","1551","1","2","""event"",""trial"",""time""
""fullscreenenter"",""1"",""20286""
","
","
","""event"",""trial"",""time""
""fullscreenenter"",""1"",""20286""
","
","","","","","","null","<div style=""font-size:60px;"">+</div>","null","","fixation","","","","","","","","","","","","","",""
"learning-trial","143","646179","0.0-9.0-2.0-1.28","1551","1","2","""event"",""trial"",""time""
""fullscreenenter"",""1"",""20286""
","
","
","""event"",""trial"",""time""
""fullscreenenter"",""1"",""20286""
","
","","","","","","1408.3999999761581","images/feline2.png","","","learning","images/pets_choice1.png","images/pets_choice3.png","images/pets_choice2.png","[0,2,1]","0","0","1","images/pets_choice1.png","1","pets","","feline","1","0"
"html-keyboard-response","144","646682","0.0-9.0-2.0-0.29","1551","1","2","""event"",""trial"",""time""
""fullscreenenter"",""1"",""20286""
","
","
","""event"",""trial"",""time""
""fullscreenenter"",""1"",""20286""
","
","","","","","","null","<div style=""font-size:60px;"">+</div>","null","","fixation","","","","","","","","","","","","","",""
"learning-trial","145","650686","0.0-9.0-2.0-1.29","1551","1","2","""event"",""trial"",""time""
""fullscreenenter"",""1"",""20286""
","
","
","""event"",""trial"",""time""
""fullscreenenter"",""1"",""20286""
","
","","","","","","1473.2000000476837","images/dog1.png","","","learning","images/pets_choice3.png","images/pets_choice2.png","images/pets_choice1.png","[2,1,0]","1","1","2","images/pets_choice2.png","1","pets","","dog","1","0"
"html-keyboard-response","146","651189","0.0-9.0-2.0-0.30","1551","1","2","""event"",""trial"",""time""
""fullscreenenter"",""1"",""20286""
","
","
","""event"",""trial"",""time""
""fullscreenenter"",""1"",""20286""
","
","","","","","","null","<div style=""font-size:60px;"">+</div>","null","","fixation","","","","","","","","","","","","","",""
"learning-trial","147","655197","0.0-9.0-2.0-1.30","1551","1","2","""event"",""trial"",""time""
""fullscreenenter"",""1"",""20286""
","
","
","""event"",""trial"",""time""
""fullscreenenter"",""1"",""20286""
","
","","","","","","2101.7999999523163","images/dog4.png","","","learning","images/pets_choice1.png","images/pets_choice2.png","images/pets_choice3.png","[0,1,2]","1","1","3","images/pets_choice3.png","-1","pets","","dog","1","0"
"html-keyboard-response","148","655700","0.0-9.0-2.0-0.31","1551","1","2","""event"",""trial"",""time""
""fullscreenenter"",""1"",""20286""
","
","
","""event"",""trial"",""time""
""fullscreenenter"",""1"",""20286""
","
","","","","","","null","<div style=""font-size:60px;"">+</div>","null","","fixation","","","","","","","","","","","","","",""
"learning-trial","149","659705","0.0-9.0-2.0-1.31","1551","1","2","""event"",""trial"",""time""
""fullscreenenter"",""1"",""20286""
","
","
","""event"",""trial"",""time""
""fullscreenenter"",""1"",""20286""
","
","","","","","","833.3999999761581","images/rabbit1.png","","","learning","images/pets_choice3.png","images/pets_choice2.png","images/pets_choice1.png","[2,1,0]","2","0","2","images/pets_choice2.png","-1","pets","","rabbit","1","0"
"html-keyboard-response","150","660210","0.0-9.0-2.0-0.32","1551","1","2","""event"",""trial"",""time""
""fullscreenenter"",""1"",""20286""
","
","
","""event"",""trial"",""time""
""fullscreenenter"",""1"",""20286""
","
","","","","","","null","<div style=""font-size:60px;"">+</div>","null","","fixation","","","","","","","","","","","","","",""
"learning-trial","151","664218","0.0-9.0-2.0-1.32","1551","1","2","""event"",""trial"",""time""
""fullscreenenter"",""1"",""20286""
","
","
","""event"",""trial"",""time""
""fullscreenenter"",""1"",""20286""
","
","","","","","","1061.3999999761581","images/dog1.png","","","learning","images/pets_choice3.png","images/pets_choice1.png","images/pets_choice2.png","[2,0,1]","1","2","3","images/pets_choice2.png","1","pets","","dog","1","0"
"html-keyboard-response","152","664720","0.0-9.0-2.0-0.33","1551","1","2","""event"",""trial"",""time""
""fullscreenenter"",""1"",""20286""
","
","
","""event"",""trial"",""time""
""fullscreenenter"",""1"",""20286""
","
","","","","","","null","<div style=""font-size:60px;"">+</div>","null","","fixation","","","","","","","","","","","","","",""
"learning-trial","153","668731","0.0-9.0-2.0-1.33","1551","1","2","""event"",""trial"",""time""
""fullscreenenter"",""1"",""20286""
","
","
","""event"",""trial"",""time""
""fullscreenenter"",""1"",""20286""
","
","","","","","","2295.6999999284744","images/feline4.png","","","learning","images/pets_choice1.png","images/pets_choice2.png","images/pets_choice3.png","[0,1,2]","0","0","2","images/pets_choice2.png","-1","pets","","feline","1","0"
"html-keyboard-response","154","669233","0.0-9.0-2.0-0.34","1551","1","2","""event"",""trial"",""time""
""fullscreenenter"",""1"",""20286""
","
","
","""event"",""trial"",""time""
""fullscreenenter"",""1"",""20286""
","
","","","","","","null","<div style=""font-size:60px;"">+</div>","null","","fixation","","","","","","","","","","","","","",""
"learning-trial","155","673239","0.0-9.0-2.0-1.34","1551","1","2","""event"",""trial"",""time""
""fullscreenenter"",""1"",""20286""
","
","
","""event"",""trial"",""time""
""fullscreenenter"",""1"",""20286""
","
","","","","","","1178.7000000476837","images/feline4.png","","","learning","images/pets_choice2.png","images/pets_choice3.png","images/pets_choice1.png","[1,2,0]","0","2","3","images/pets_choice1.png","1","pets","","feline","1","0"
"html-keyboard-response","156","673741","0.0-9.0-2.0-0.35","1551","1","2","""event"",""trial"",""time""
""fullscreenenter"",""1"",""20286""
","
","
","""event"",""trial"",""time""
""fullscreenenter"",""1"",""20286""
","
","","","","","","null","<div style=""font-size:60px;"">+</div>","null","","fixation","","","","","","","","","","","","","",""
"learning-trial","157","677748","0.0-9.0-2.0-1.35","1551","1","2","""event"",""trial"",""time""
""fullscreenenter"",""1"",""20286""
","
","
","""event"",""trial"",""time""
""fullscreenenter"",""1"",""20286""
","
","","","","","","1161.7000000476837","images/rabbit1.png","","","learning","images/pets_choice3.png","images/pets_choice1.png","images/pets_choice2.png","[2,0,1]","2","0","1","images/pets_choice3.png","1","pets","","rabbit","1","0"
"html-keyboard-response","158","678250","0.0-9.0-2.0-0.36","1551","1","2","""event"",""trial"",""time""
""fullscreenenter"",""1"",""20286""
","
","
","""event"",""trial"",""time""
""fullscreenenter"",""1"",""20286""
","
","","","","","","null","<div style=""font-size:60px;"">+</div>","null","","fixation","","","","","","","","","","","","","",""
"learning-trial","159","682256","0.0-9.0-2.0-1.36","1551","1","2","""event"",""trial"",""time""
""fullscreenenter"",""1"",""20286""
","
","
","""event"",""trial"",""time""
""fullscreenenter"",""1"",""20286""
","
","","","","","","1432.5","images/dog4.png","","","learning","images/pets_choice2.png","images/pets_choice3.png","images/pets_choice1.png","[1,2,0]","1","0","1","images/pets_choice2.png","1","pets","","dog","1","0"
"html-keyboard-response","160","682758","0.0-9.0-2.0-0.37","1551","1","2","""event"",""trial"",""time""
""fullscreenenter"",""1"",""20286""
","
","
","""event"",""trial"",""time""
""fullscreenenter"",""1"",""20286""
","
","","","","","","null","<div style=""font-size:60px;"">+</div>","null","","fixation","","","","","","","","","","","","","",""
"learning-trial","161","686764","0.0-9.0-2.0-1.37","1551","1","2","""event"",""trial"",""time""
""fullscreenenter"",""1"",""20286""
","
","
","""event"",""trial"",""time""
""fullscreenenter"",""1"",""20286""
","
","","","","","","1742.6999999284744","images/rabbit2.png","","","learning","images/pets_choice3.png","images/pets_choice2.png","images/pets_choice1.png","[2,1,0]","2","0","3","images/pets_choice1.png","-1","pets","","rabbit","1","0"
"html-keyboard-response","162","687268","0.0-9.0-2.0-0.38","1551","1","2","""event"",""trial"",""time""
""fullscreenenter"",""1"",""20286""
","
","
","""event"",""trial"",""time""
""fullscreenenter"",""1"",""20286""
","
","","","","","","null","<div style=""font-size:60px;"">+</div>","null","","fixation","","","","","","","","","","","","","",""
"learning-trial","163","691274","0.0-9.0-2.0-1.38","1551","1","2","""event"",""trial"",""time""
""fullscreenenter"",""1"",""20286""
","
","
","""event"",""trial"",""time""
""fullscreenenter"",""1"",""20286""
","
","","","","","","1344.3999999761581","images/rabbit2.png","","","learning","images/pets_choice1.png","images/pets_choice3.png","images/pets_choice2.png","[0,2,1]","2","1","3","images/pets_choice2.png","-1","pets","","rabbit","1","0"
"html-keyboard-response","164","691775","0.0-9.0-2.0-0.39","1551","1","2","""event"",""trial"",""time""
""fullscreenenter"",""1"",""20286""
","
","
","""event"",""trial"",""time""
""fullscreenenter"",""1"",""20286""
","
","","","","","","null","<div style=""font-size:60px;"">+</div>","null","","fixation","","","","","","","","","","","","","",""
"learning-trial","165","695787","0.0-9.0-2.0-1.39","1551","1","2","""event"",""trial"",""time""
""fullscreenenter"",""1"",""20286""
","
","
","""event"",""trial"",""time""
""fullscreenenter"",""1"",""20286""
","
","","","","","","961.6000000238419","images/dog1.png","","","learning","images/pets_choice1.png","images/pets_choice2.png","images/pets_choice3.png","[0,1,2]","1","1","2","images/pets_choice2.png","1","pets","","dog","1","0"
"html-keyboard-response","166","696290","0.0-9.0-2.0-0.40","1551","1","2","""event"",""trial"",""time""
""fullscreenenter"",""1"",""20286""
","
","
","""event"",""trial"",""time""
""fullscreenenter"",""1"",""20286""
","
","","","","","","null","<div style=""font-size:60px;"">+</div>","null","","fixation","","","","","","","","","","","","","",""
"learning-trial","167","700295","0.0-9.0-2.0-1.40","1551","1","2","""event"",""trial"",""time""
""fullscreenenter"",""1"",""20286""
","
","
","""event"",""trial"",""time""
""fullscreenenter"",""1"",""20286""
","
","","","","","","1003.2000000476837","images/rabbit1.png","","","learning","images/pets_choice3.png","images/pets_choice1.png","images/pets_choice2.png","[2,0,1]","2","0","1","images/pets_choice3.png","1","pets","","rabbit","1","0"
"html-keyboard-response","168","700797","0.0-9.0-2.0-0.41","1551","1","2","""event"",""trial"",""time""
""fullscreenenter"",""1"",""20286""
","
","
","""event"",""trial"",""time""
""fullscreenenter"",""1"",""20286""
","
","","","","","","null","<div style=""font-size:60px;"">+</div>","null","","fixation","","","","","","","","","","","","","",""
"learning-trial","169","704804","0.0-9.0-2.0-1.41","1551","1","2","""event"",""trial"",""time""
""fullscreenenter"",""1"",""20286""
","
","
","""event"",""trial"",""time""
""fullscreenenter"",""1"",""20286""
","
","","","","","","1124.7999999523163","images/feline4.png","","","learning","images/pets_choice2.png","images/pets_choice1.png","images/pets_choice3.png","[1,0,2]","0","1","1","images/pets_choice2.png","-1","pets","","feline","1","0"
"html-keyboard-response","170","705307","0.0-9.0-2.0-0.42","1551","1","2","""event"",""trial"",""time""
""fullscreenenter"",""1"",""20286""
","
","
","""event"",""trial"",""time""
""fullscreenenter"",""1"",""20286""
","
","","","","","","null","<div style=""font-size:60px;"">+</div>","null","","fixation","","","","","","","","","","","","","",""
"learning-trial","171","709312","0.0-9.0-2.0-1.42","1551","1","2","""event"",""trial"",""time""
""fullscreenenter"",""1"",""20286""
","
","
","""event"",""trial"",""time""
""fullscreenenter"",""1"",""20286""
","
","","","","","","1175","images/dog4.png","","","learning","images/pets_choice3.png","images/pets_choice1.png","images/pets_choice2.png","[2,0,1]","1","2","3","images/pets_choice2.png","1","pets","","dog","1","0"
"html-keyboard-response","172","709815","0.0-9.0-2.0-0.43","1551","1","2","""event"",""trial"",""time""
""fullscreenenter"",""1"",""20286""
","
","
","""event"",""trial"",""time""
""fullscreenenter"",""1"",""20286""
","
","","","","","","null","<div style=""font-size:60px;"">+</div>","null","","fixation","","","","","","","","","","","","","",""
"learning-trial","173","713818","0.0-9.0-2.0-1.43","1551","1","2","""event"",""trial"",""time""
""fullscreenenter"",""1"",""20286""
","
","
","""event"",""trial"",""time""
""fullscreenenter"",""1"",""20286""
","
","","","","","","1500","images/feline2.png","","","learning","images/pets_choice1.png","images/pets_choice2.png","images/pets_choice3.png","[0,1,2]","0","0","1","images/pets_choice1.png","1","pets","","feline","1","0"
"html-keyboard-response","174","714320","0.0-9.0-2.0-0.44","1551","1","2","""event"",""trial"",""time""
""fullscreenenter"",""1"",""20286""
","
","
","""event"",""trial"",""time""
""fullscreenenter"",""1"",""20286""
","
","","","","","","null","<div style=""font-size:60px;"">+</div>","null","","fixation","","","","","","","","","","","","","",""
"learning-trial","175","718323","0.0-9.0-2.0-1.44","1551","1","2","""event"",""trial"",""time""
""fullscreenenter"",""1"",""20286""
","
","
","""event"",""trial"",""time""
""fullscreenenter"",""1"",""20286""
","
","","","","","","1754.7999999523163","images/dog5.png","","","learning","images/pets_choice1.png","images/pets_choice2.png","images/pets_choice3.png","[0,1,2]","1","1","2","images/pets_choice2.png","1","pets","","dog","1","0"
"html-keyboard-response","176","718825","0.0-9.0-2.0-0.45","1551","1","2","""event"",""trial"",""time""
""fullscreenenter"",""1"",""20286""
","
","
","""event"",""trial"",""time""
""fullscreenenter"",""1"",""20286""
","
","","","","","","null","<div style=""font-size:60px;"">+</div>","null","","fixation","","","","","","","","","","","","","",""
"learning-trial","177","722833","0.0-9.0-2.0-1.45","1551","1","2","""event"",""trial"",""time""
""fullscreenenter"",""1"",""20286""
","
","
","""event"",""trial"",""time""
""fullscreenenter"",""1"",""20286""
","
","","","","","","864.7999999523163","images/rabbit1.png","","","learning","images/pets_choice2.png","images/pets_choice3.png","images/pets_choice1.png","[1,2,0]","2","1","2","images/pets_choice3.png","1","pets","","rabbit","1","0"
"html-keyboard-response","178","723337","0.0-9.0-2.0-0.46","1551","1","2","""event"",""trial"",""time""
""fullscreenenter"",""1"",""20286""
","
","
","""event"",""trial"",""time""
""fullscreenenter"",""1"",""20286""
","
","","","","","","null","<div style=""font-size:60px;"">+</div>","null","","fixation","","","","","","","","","","","","","",""
"learning-trial","179","727343","0.0-9.0-2.0-1.46","1551","1","2","""event"",""trial"",""time""
""fullscreenenter"",""1"",""20286""
","
","
","""event"",""trial"",""time""
""fullscreenenter"",""1"",""20286""
","
","","","","","","1985.3999999761581","images/rabbit3.png","","","learning","images/pets_choice3.png","images/pets_choice2.png","images/pets_choice1.png","[2,1,0]","2","0","2","images/pets_choice2.png","-1","pets","","rabbit","1","0"
"html-keyboard-response","180","727851","0.0-9.0-2.0-0.47","1551","1","2","""event"",""trial"",""time""
""fullscreenenter"",""1"",""20286""
","
","
","""event"",""trial"",""time""
""fullscreenenter"",""1"",""20286""
","
","","","","","","null","<div style=""font-size:60px;"">+</div>","null","","fixation","","","","","","","","","","","","","",""
"learning-trial","181","731855","0.0-9.0-2.0-1.47","1551","1","2","""event"",""trial"",""time""
""fullscreenenter"",""1"",""20286""
","
","
","""event"",""trial"",""time""
""fullscreenenter"",""1"",""20286""
","
","","","","","","1312.1000000238419","images/dog1.png","","","learning","images/pets_choice3.png","images/pets_choice2.png","images/pets_choice1.png","[2,1,0]","1","1","2","images/pets_choice2.png","1","pets","","dog","1","0"
"html-keyboard-response","182","732358","0.0-9.0-2.0-0.48","1551","1","2","""event"",""trial"",""time""
""fullscreenenter"",""1"",""20286""
","
","
","""event"",""trial"",""time""
""fullscreenenter"",""1"",""20286""
","
","","","","","","null","<div style=""font-size:60px;"">+</div>","null","","fixation","","","","","","","","","","","","","",""
"learning-trial","183","736363","0.0-9.0-2.0-1.48","1551","1","2","""event"",""trial"",""time""
""fullscreenenter"",""1"",""20286""
","
","
","""event"",""trial"",""time""
""fullscreenenter"",""1"",""20286""
","
","","","","","","1574.2999999523163","images/rabbit2.png","","","learning","images/pets_choice3.png","images/pets_choice2.png","images/pets_choice1.png","[2,1,0]","2","0","3","images/pets_choice1.png","-1","pets","","rabbit","1","0"
"html-keyboard-response","184","736866","0.0-9.0-2.0-0.49","1551","1","2","""event"",""trial"",""time""
""fullscreenenter"",""1"",""20286""
","
","
","""event"",""trial"",""time""
""fullscreenenter"",""1"",""20286""
","
","","","","","","null","<div style=""font-size:60px;"">+</div>","null","","fixation","","","","","","","","","","","","","",""
"learning-trial","185","740872","0.0-9.0-2.0-1.49","1551","1","2","""event"",""trial"",""time""
""fullscreenenter"",""1"",""20286""
","
","
","""event"",""trial"",""time""
""fullscreenenter"",""1"",""20286""
","
","","","","","","1395.6999999284744","images/dog5.png","","","learning","images/pets_choice1.png","images/pets_choice3.png","images/pets_choice2.png","[0,2,1]","1","2","1","images/pets_choice1.png","-1","pets","","dog","1","0"
"html-keyboard-response","186","741374","0.0-9.0-2.0-0.50","1551","1","2","""event"",""trial"",""time""
""fullscreenenter"",""1"",""20286""
","
","
","""event"",""trial"",""time""
""fullscreenenter"",""1"",""20286""
","
","","","","","","null","<div style=""font-size:60px;"">+</div>","null","","fixation","","","","","","","","","","","","","",""
"learning-trial","187","745381","0.0-9.0-2.0-1.50","1551","1","2","""event"",""trial"",""time""
""fullscreenenter"",""1"",""20286""
","
","
","""event"",""trial"",""time""
""fullscreenenter"",""1"",""20286""
","
","","","","","","1366.8999999761581","images/feline5.png","","","learning","images/pets_choice1.png","images/pets_choice3.png","images/pets_choice2.png","[0,2,1]","0","0","2","images/pets_choice3.png","-1","pets","","feline","1","0"
"html-keyboard-response","188","745883","0.0-9.0-2.0-0.51","1551","1","2","""event"",""trial"",""time""
""fullscreenenter"",""1"",""20286""
","
","
","""event"",""trial"",""time""
""fullscreenenter"",""1"",""20286""
","
","","","","","","null","<div style=""font-size:60px;"">+</div>","null","","fixation","","","","","","","","","","","","","",""
"learning-trial","189","749886","0.0-9.0-2.0-1.51","1551","1","2","""event"",""trial"",""time""
""fullscreenenter"",""1"",""20286""
","
","
","""event"",""trial"",""time""
""fullscreenenter"",""1"",""20286""
","
","","","","","","1351.2999999523163","images/dog5.png","","","learning","images/pets_choice1.png","images/pets_choice2.png","images/pets_choice3.png","[0,1,2]","1","1","2","images/pets_choice2.png","1","pets","","dog","1","0"
"html-keyboard-response","190","750388","0.0-9.0-2.0-0.52","1551","1","2","""event"",""trial"",""time""
""fullscreenenter"",""1"",""20286""
","
","
","""event"",""trial"",""time""
""fullscreenenter"",""1"",""20286""
","
","","","","","","null","<div style=""font-size:60px;"">+</div>","null","","fixation","","","","","","","","","","","","","",""
"learning-trial","191","754395","0.0-9.0-2.0-1.52","1551","1","2","""event"",""trial"",""time""
""fullscreenenter"",""1"",""20286""
","
","
","""event"",""trial"",""time""
""fullscreenenter"",""1"",""20286""
","
","","","","","","1322.6999999284744","images/feline5.png","","","learning","images/pets_choice1.png","images/pets_choice3.png","images/pets_choice2.png","[0,2,1]","0","0","1","images/pets_choice1.png","1","pets","","feline","1","0"
"html-keyboard-response","192","754897","0.0-9.0-2.0-0.53","1551","1","2","""event"",""trial"",""time""
""fullscreenenter"",""1"",""20286""
","
","
","""event"",""trial"",""time""
""fullscreenenter"",""1"",""20286""
","
","","","","","","null","<div style=""font-size:60px;"">+</div>","null","","fixation","","","","","","","","","","","","","",""
"learning-trial","193","758903","0.0-9.0-2.0-1.53","1551","1","2","""event"",""trial"",""time""
""fullscreenenter"",""1"",""20286""
","
","
","""event"",""trial"",""time""
""fullscreenenter"",""1"",""20286""
","
","","","","","","1084.5","images/dog4.png","","","learning","images/pets_choice3.png","images/pets_choice2.png","images/pets_choice1.png","[2,1,0]","1","1","2","images/pets_choice2.png","1","pets","","dog","1","0"
"html-keyboard-response","194","759406","0.0-9.0-2.0-0.54","1551","1","2","""event"",""trial"",""time""
""fullscreenenter"",""1"",""20286""
","
","
","""event"",""trial"",""time""
""fullscreenenter"",""1"",""20286""
","
","","","","","","null","<div style=""font-size:60px;"">+</div>","null","","fixation","","","","","","","","","","","","","",""
"learning-trial","195","763413","0.0-9.0-2.0-1.54","1551","1","2","""event"",""trial"",""time""
""fullscreenenter"",""1"",""20286""
","
","
","""event"",""trial"",""time""
""fullscreenenter"",""1"",""20286""
","
","","","","","","3064.9000000953674","images/dog5.png","","","learning","images/pets_choice3.png","images/pets_choice1.png","images/pets_choice2.png","[2,0,1]","1","2","2","images/pets_choice1.png","-1","pets","","dog","1","0"
"html-keyboard-response","196","763915","0.0-9.0-2.0-0.55","1551","1","2","""event"",""trial"",""time""
""fullscreenenter"",""1"",""20286""
","
","
","""event"",""trial"",""time""
""fullscreenenter"",""1"",""20286""
","
","","","","","","null","<div style=""font-size:60px;"">+</div>","null","","fixation","","","","","","","","","","","","","",""
"learning-trial","197","767922","0.0-9.0-2.0-1.55","1551","1","2","""event"",""trial"",""time""
""fullscreenenter"",""1"",""20286""
","
","
","""event"",""trial"",""time""
""fullscreenenter"",""1"",""20286""
","
","","","","","","1066","images/dog1.png","","","learning","images/pets_choice1.png","images/pets_choice3.png","images/pets_choice2.png","[0,2,1]","1","2","3","images/pets_choice2.png","1","pets","","dog","1","0"
"html-keyboard-response","198","768424","0.0-9.0-2.0-0.56","1551","1","2","""event"",""trial"",""time""
""fullscreenenter"",""1"",""20286""
","
","
","""event"",""trial"",""time""
""fullscreenenter"",""1"",""20286""
","
","","","","","","null","<div style=""font-size:60px;"">+</div>","null","","fixation","","","","","","","","","","","","","",""
"learning-trial","199","772429","0.0-9.0-2.0-1.56","1551","1","2","""event"",""trial"",""time""
""fullscreenenter"",""1"",""20286""
","
","
","""event"",""trial"",""time""
""fullscreenenter"",""1"",""20286""
","
","","","","","","1328.5999999046326","images/rabbit3.png","","","learning","images/pets_choice2.png","images/pets_choice3.png","images/pets_choice1.png","[1,2,0]","2","1","1","images/pets_choice2.png","-1","pets","","rabbit","1","0"
"html-keyboard-response","200","772931","0.0-9.0-2.0-0.57","1551","1","2","""event"",""trial"",""time""
""fullscreenenter"",""1"",""20286""
","
","
","""event"",""trial"",""time""
""fullscreenenter"",""1"",""20286""
","
","","","","","","null","<div style=""font-size:60px;"">+</div>","null","","fixation","","","","","","","","","","","","","",""
"learning-trial","201","776939","0.0-9.0-2.0-1.57","1551","1","2","""event"",""trial"",""time""
""fullscreenenter"",""1"",""20286""
","
","
","""event"",""trial"",""time""
""fullscreenenter"",""1"",""20286""
","
","","","","","","1479.7999999523163","images/dog5.png","","","learning","images/pets_choice1.png","images/pets_choice3.png","images/pets_choice2.png","[0,2,1]","1","2","3","images/pets_choice2.png","1","pets","","dog","1","0"
"html-keyboard-response","202","777441","0.0-9.0-2.0-0.58","1551","1","2","""event"",""trial"",""time""
""fullscreenenter"",""1"",""20286""
","
","
","""event"",""trial"",""time""
""fullscreenenter"",""1"",""20286""
","
","","","","","","null","<div style=""font-size:60px;"">+</div>","null","","fixation","","","","","","","","","","","","","",""
"learning-trial","203","781448","0.0-9.0-2.0-1.58","1551","1","2","""event"",""trial"",""time""
""fullscreenenter"",""1"",""20286""
","
","
","""event"",""trial"",""time""
""fullscreenenter"",""1"",""20286""
","
","","","","","","1499.6000000238419","images/feline2.png","","","learning","images/pets_choice1.png","images/pets_choice2.png","images/pets_choice3.png","[0,1,2]","0","0","1","images/pets_choice1.png","1","pets","","feline","1","0"
"html-keyboard-response","204","781950","0.0-9.0-2.0-0.59","1551","1","2","""event"",""trial"",""time""
""fullscreenenter"",""1"",""20286""
","
","
","""event"",""trial"",""time""
""fullscreenenter"",""1"",""20286""
","
","","","","","","null","<div style=""font-size:60px;"">+</div>","null","","fixation","","","","","","","","","","","","","",""
"learning-trial","205","785958","0.0-9.0-2.0-1.59","1551","1","2","""event"",""trial"",""time""
""fullscreenenter"",""1"",""20286""
","
","
","""event"",""trial"",""time""
""fullscreenenter"",""1"",""20286""
","
","","","","","","2630.6999999284744","images/rabbit3.png","","","learning","images/pets_choice2.png","images/pets_choice3.png","images/pets_choice1.png","[1,2,0]","2","1","3","images/pets_choice1.png","-1","pets","","rabbit","1","0"
"html-keyboard-response","206","786460","0.0-9.0-2.0-0.60","1551","1","2","""event"",""trial"",""time""
""fullscreenenter"",""1"",""20286""
","
","
","""event"",""trial"",""time""
""fullscreenenter"",""1"",""20286""
","
","","","","","","null","<div style=""font-size:60px;"">+</div>","null","","fixation","","","","","","","","","","","","","",""
"learning-trial","207","790467","0.0-9.0-2.0-1.60","1551","1","2","""event"",""trial"",""time""
""fullscreenenter"",""1"",""20286""
","
","
","""event"",""trial"",""time""
""fullscreenenter"",""1"",""20286""
","
","","","","","","1890.2999999523163","images/feline5.png","","","learning","images/pets_choice2.png","images/pets_choice3.png","images/pets_choice1.png","[1,2,0]","0","2","3","images/pets_choice1.png","1","pets","","feline","1","0"
"html-keyboard-response","208","790969","0.0-9.0-2.0-0.61","1551","1","2","""event"",""trial"",""time""
""fullscreenenter"",""1"",""20286""
","
","
","""event"",""trial"",""time""
""fullscreenenter"",""1"",""20286""
","
","","","","","","null","<div style=""font-size:60px;"">+</div>","null","","fixation","","","","","","","","","","","","","",""
"learning-trial","209","794976","0.0-9.0-2.0-1.61","1551","1","2","""event"",""trial"",""time""
""fullscreenenter"",""1"",""20286""
","
","
","""event"",""trial"",""time""
""fullscreenenter"",""1"",""20286""
","
","","","","","","1611.7999999523163","images/rabbit2.png","","","learning","images/pets_choice2.png","images/pets_choice1.png","images/pets_choice3.png","[1,0,2]","2","2","3","images/pets_choice3.png","1","pets","","rabbit","1","0"
"html-keyboard-response","210","795477","0.0-9.0-2.0-0.62","1551","1","2","""event"",""trial"",""time""
""fullscreenenter"",""1"",""20286""
","
","
","""event"",""trial"",""time""
""fullscreenenter"",""1"",""20286""
","
","","","","","","null","<div style=""font-size:60px;"">+</div>","null","","fixation","","","","","","","","","","","","","",""
"learning-trial","211","799484","0.0-9.0-2.0-1.62","1551","1","2","""event"",""trial"",""time""
""fullscreenenter"",""1"",""20286""
","
","
","""event"",""trial"",""time""
""fullscreenenter"",""1"",""20286""
","
","","","","","","723.2999999523163","images/dog1.png","","","learning","images/pets_choice1.png","images/pets_choice2.png","images/pets_choice3.png","[0,1,2]","1","1","2","images/pets_choice2.png","1","pets","","dog","1","0"
"html-keyboard-response","212","799987","0.0-9.0-2.0-0.63","1551","1","2","""event"",""trial"",""time""
""fullscreenenter"",""1"",""20286""
","
","
","""event"",""trial"",""time""
""fullscreenenter"",""1"",""20286""
","
","","","","","","null","<div style=""font-size:60px;"">+</div>","null","","fixation","","","","","","","","","","","","","",""
"learning-trial","213","803993","0.0-9.0-2.0-1.63","1551","1","2","""event"",""trial"",""time""
""fullscreenenter"",""1"",""20286""
","
","
","""event"",""trial"",""time""
""fullscreenenter"",""1"",""20286""
","
","","","","","","1743.7999999523163","images/rabbit2.png","","","learning","images/pets_choice1.png","images/pets_choice3.png","images/pets_choice2.png","[0,2,1]","2","1","2","images/pets_choice3.png","1","pets","","rabbit","1","0"
"html-keyboard-response","214","804500","0.0-9.0-2.0-0.64","1551","1","2","""event"",""trial"",""time""
""fullscreenenter"",""1"",""20286""
","
","
","""event"",""trial"",""time""
""fullscreenenter"",""1"",""20286""
","
","","","","","","null","<div style=""font-size:60px;"">+</div>","null","","fixation","","","","","","","","","","","","","",""
"learning-trial","215","808506","0.0-9.0-2.0-1.64","1551","1","2","""event"",""trial"",""time""
""fullscreenenter"",""1"",""20286""
","
","
","""event"",""trial"",""time""
""fullscreenenter"",""1"",""20286""
","
","","","","","","1221.7999999523163","images/rabbit2.png","","","learning","images/pets_choice3.png","images/pets_choice2.png","images/pets_choice1.png","[2,1,0]","2","0","1","images/pets_choice3.png","1","pets","","rabbit","1","0"
"html-keyboard-response","216","809007","0.0-9.0-2.0-0.65","1551","1","2","""event"",""trial"",""time""
""fullscreenenter"",""1"",""20286""
","
","
","""event"",""trial"",""time""
""fullscreenenter"",""1"",""20286""
","
","","","","","","null","<div style=""font-size:60px;"">+</div>","null","","fixation","","","","","","","","","","","","","",""
"learning-trial","217","813015","0.0-9.0-2.0-1.65","1551","1","2","""event"",""trial"",""time""
""fullscreenenter"",""1"",""20286""
","
","
","""event"",""trial"",""time""
""fullscreenenter"",""1"",""20286""
","
","","","","","","1403.2000000476837","images/feline5.png","","","learning","images/pets_choice3.png","images/pets_choice2.png","images/pets_choice1.png","[2,1,0]","0","2","3","images/pets_choice1.png","1","pets","","feline","1","0"
"html-keyboard-response","218","813518","0.0-9.0-2.0-0.66","1551","1","2","""event"",""trial"",""time""
""fullscreenenter"",""1"",""20286""
","
","
","""event"",""trial"",""time""
""fullscreenenter"",""1"",""20286""
","
","","","","","","null","<div style=""font-size:60px;"">+</div>","null","","fixation","","","","","","","","","","","","","",""
"learning-trial","219","817524","0.0-9.0-2.0-1.66","1551","1","2","""event"",""trial"",""time""
""fullscreenenter"",""1"",""20286""
","
","
","""event"",""trial"",""time""
""fullscreenenter"",""1"",""20286""
","
","","","","","","1044.1999999284744","images/dog1.png","","","learning","images/pets_choice1.png","images/pets_choice3.png","images/pets_choice2.png","[0,2,1]","1","2","3","images/pets_choice2.png","1","pets","","dog","1","0"
"html-keyboard-response","220","818027","0.0-9.0-2.0-0.67","1551","1","2","""event"",""trial"",""time""
""fullscreenenter"",""1"",""20286""
","
","
","""event"",""trial"",""time""
""fullscreenenter"",""1"",""20286""
","
","","","","","","null","<div style=""font-size:60px;"">+</div>","null","","fixation","","","","","","","","","","","","","",""
"learning-trial","221","822033","0.0-9.0-2.0-1.67","1551","1","2","""event"",""trial"",""time""
""fullscreenenter"",""1"",""20286""
","
","
","""event"",""trial"",""time""
""fullscreenenter"",""1"",""20286""
","
","","","","","","1195.1000000238419","images/feline2.png","","","learning","images/pets_choice3.png","images/pets_choice1.png","images/pets_choice2.png","[2,0,1]","0","1","2","images/pets_choice1.png","1","pets","","feline","1","0"
"html-keyboard-response","222","822536","0.0-9.0-2.0-0.68","1551","1","2","""event"",""trial"",""time""
""fullscreenenter"",""1"",""20286""
","
","
","""event"",""trial"",""time""
""fullscreenenter"",""1"",""20286""
","
","","","","","","null","<div style=""font-size:60px;"">+</div>","null","","fixation","","","","","","","","","","","","","",""
"learning-trial","223","826540","0.0-9.0-2.0-1.68","1551","1","2","""event"",""trial"",""time""
""fullscreenenter"",""1"",""20286""
","
","
","""event"",""trial"",""time""
""fullscreenenter"",""1"",""20286""
","
","","","","","","1777.5999999046326","images/dog5.png","","","learning","images/pets_choice2.png","images/pets_choice3.png","images/pets_choice1.png","[1,2,0]","1","0","1","images/pets_choice2.png","1","pets","","dog","1","0"
"html-keyboard-response","224","827042","0.0-9.0-2.0-0.69","1551","1","2","""event"",""trial"",""time""
""fullscreenenter"",""1"",""20286""
","
","
","""event"",""trial"",""time""
""fullscreenenter"",""1"",""20286""
","
","","","","","","null","<div style=""font-size:60px;"">+</div>","null","","fixation","","","","","","","","","","","","","",""
"learning-trial","225","831048","0.0-9.0-2.0-1.69","1551","1","2","""event"",""trial"",""time""
""fullscreenenter"",""1"",""20286""
","
","
","""event"",""trial"",""time""
""fullscreenenter"",""1"",""20286""
","
","","","","","","1119.1999999284744","images/rabbit3.png","","","learning","images/pets_choice1.png","images/pets_choice3.png","images/pets_choice2.png","[0,2,1]","2","1","2","images/pets_choice3.png","1","pets","","rabbit","1","0"
"html-keyboard-response","226","831551","0.0-9.0-2.0-0.70","1551","1","2","""event"",""trial"",""time""
""fullscreenenter"",""1"",""20286""
","
","
","""event"",""trial"",""time""
""fullscreenenter"",""1"",""20286""
","
","","","","","","null","<div style=""font-size:60px;"">+</div>","null","","fixation","","","","","","","","","","","","","",""
"learning-trial","227","835558","0.0-9.0-2.0-1.70","1551","1","2","""event"",""trial"",""time""
""fullscreenenter"",""1"",""20286""
","
","
","""event"",""trial"",""time""
""fullscreenenter"",""1"",""20286""
","
","","","","","","931.1000000238419","images/rabbit3.png","","","learning","images/pets_choice2.png","images/pets_choice1.png","images/pets_choice3.png","[1,0,2]","2","2","3","images/pets_choice3.png","1","pets","","rabbit","1","0"
"html-keyboard-response","228","836060","0.0-9.0-2.0-0.71","1551","1","2","""event"",""trial"",""time""
""fullscreenenter"",""1"",""20286""
","
","
","""event"",""trial"",""time""
""fullscreenenter"",""1"",""20286""
","
","","","","","","null","<div style=""font-size:60px;"">+</div>","null","","fixation","","","","","","","","","","","","","",""
"learning-trial","229","840066","0.0-9.0-2.0-1.71","1551","1","2","""event"",""trial"",""time""
""fullscreenenter"",""1"",""20286""
","
","
","""event"",""trial"",""time""
""fullscreenenter"",""1"",""20286""
","
","","","","","","831","images/dog1.png","","","learning","images/pets_choice3.png","images/pets_choice1.png","images/pets_choice2.png","[2,0,1]","1","2","3","images/pets_choice2.png","-1","pets","","dog","1","0"
"html-button-response","230","844244","0.0-9.0-3.0","1551","1","2","""event"",""trial"",""time""
""fullscreenenter"",""1"",""20286""
","
","
","""event"",""trial"",""time""
""fullscreenenter"",""1"",""20286""
","
","","","","","","4175.299999952316","<p> You have completed the round! <p> In this round, you earned 8 points! </p>","0","","break","","","","","","","","","","","","","",""
"html-button-response","231","846409","0.0-10.0","1551","1","2","""event"",""trial"",""time""
""fullscreenenter"",""1"",""20286""
","
","
","""event"",""trial"",""time""
""fullscreenenter"",""1"",""20286""
","
","","","","","","2162","<p> Now it's time to play another round. </p>","0","","transition_screen","","","","","","","","","","","","","",""
"preload","232","852474","0.0-11.0-0.0","1551","1","2","""event"",""trial"",""time""
""fullscreenenter"",""1"",""20286""
","
","
","""event"",""trial"",""time""
""fullscreenenter"",""1"",""20286""
","
","true","false","[]","[]","[]","","","","","","","","","","","","","","","","","","",""
"learning-instructions","233","861206","0.0-11.0-1.0-0.0","1551","1","2","""event"",""trial"",""time""
""fullscreenenter"",""1"",""20286""
","
","
","""event"",""trial"",""time""
""fullscreenenter"",""1"",""20286""
","
","","","","","","1178.7000000476837","<p> Your goal in this round is to grow a beautiful garden by watering plants. </p><p> You will need to water many different plants. </p></div>","","0","instructions","","","","","","","","","","","","","",""
"learning-instructions","234","875965","0.0-11.0-1.0-0.1","1551","1","2","""event"",""trial"",""time""
""fullscreenenter"",""1"",""20286""
","
","
","""event"",""trial"",""time""
""fullscreenenter"",""1"",""20286""
","
","","","","","","1458","<p> On each turn, you will see a picture of one of your plants and three different watering cans.  </p><p> Each watering can has a different mixture of water and fertilizer.  </p><p> You need to select which watering can to use for each plant. </p>","","0","instructions","","","","","","","","","","","","","",""
"learning-instructions","235","884005","0.0-11.0-1.0-0.2","1551","1","2","""event"",""trial"",""time""
""fullscreenenter"",""1"",""20286""
","
","
","""event"",""trial"",""time""
""fullscreenenter"",""1"",""20286""
","
","","","","","","298.10000002384186","<p> You can select the watering can on the left by pressing 1, the watering can in the middle by pressing 2, and the watering can on the right by pressing 3. </p><br><div class=""choice-instructions-grid""> <div class=""choice-option""><img src=""images/plants_choice1.png"" class=""choice-option-img"" stage=""instructions"" position=""0"" ><div class=""choice-option-text""> Press ""1."" </div></div><div class=""choice-option""><img src=""images/plants_choice2.png"" class=""choice-option-img"" stage=""instructions"" position=""1"" ><div class=""choice-option-text""> Press ""2."" </div></div><div class=""choice-option""><img src=""images/plants_choice3.png"" class=""choice-option-img"" stage=""instructions"" position=""2"" ><div class=""choice-option-text""> Press ""3."" </div></div></div>","","0","instructions","","","","","","","","","","","","","",""
"learning-instructions","236","889466","0.0-11.0-1.0-0.3","1551","1","2","""event"",""trial"",""time""
""fullscreenenter"",""1"",""20286""
","
","
","""event"",""trial"",""time""
""fullscreenenter"",""1"",""20286""
","
