"trial_type","trial_index","time_elapsed","internal_node_id","subject_id","condition","task_version","interactions","blur_events","focus_events","fullscreenenter_events","fullscreenexit_events","success","timeout","failed_images","failed_audio","failed_video","rt","stimulus","response","button_pressed","task_part","left_choice","middle_choice","right_choice","choice_positions","correct_response","correct_position","key_press","option_selected","points","task_block","correct","stim_cat","block_condition","block_number"
"pavlovia","0","7","0.0-0.0","1498","2","2","""event"",""trial"",""time""
""fullscreenenter"",""1"",""4229""
","
","
","""event"",""trial"",""time""
""fullscreenenter"",""1"",""4229""
","
","","","","","","","","","","","","","","","","","","","","","","","",""
"fullscreen","1","5203","0.0-1.0","1498","2","2","""event"",""trial"",""time""
""fullscreenenter"",""1"",""4229""
","
","
","""event"",""trial"",""time""
""fullscreenenter"",""1"",""4229""
","
","true","","","","","","","","","","","","","","","","","","","","","","",""
"preload","2","15394","0.0-2.0","1498","2","2","""event"",""trial"",""time""
""fullscreenenter"",""1"",""4229""
","
","
","""event"",""trial"",""time""
""fullscreenenter"",""1"",""4229""
","
","true","false","[]","[]","[]","","","","","","","","","","","","","","","","","","",""
"audio-keyboard-response","3","21056","0.0-3.0","1498","2","2","""event"",""trial"",""time""
""fullscreenenter"",""1"",""4229""
","
","
","""event"",""trial"",""time""
""fullscreenenter"",""1"",""4229""
","
","","","","","","5661.333333333333","audio/beep_loop.wav"," ","","","","","","","","","","","","","","","",""
"audio-button-response","4","25349","0.0-4.0","1498","2","2","""event"",""trial"",""time""
""fullscreenenter"",""1"",""4229""
","
","
","""event"",""trial"",""time""
""fullscreenenter"",""1"",""4229""
","
","","","","","","4291","audio/shark.wav","4","","","","","","","","","","","","","","","",""
"audio-button-response","5","30971","0.0-5.0","1498","2","2","""event"",""trial"",""time""
""fullscreenenter"",""1"",""4229""
","
","
","""event"",""trial"",""time""
""fullscreenenter"",""1"",""4229""
","
","","","","","","4600","audio/turtle.wav","1","","","","","","","","","","","","","","","",""
"preload","6","59041","0.0-6.0","1498","2","2","""event"",""trial"",""time""
""fullscreenenter"",""1"",""4229""
","
","
","""event"",""trial"",""time""
""fullscreenenter"",""1"",""4229""
","
","true","false","[]","[]","[]","","","","","","","","","","","","","","","","","","",""
"html-keyboard-response","7","61935","0.0-7.0","1498","2","2","""event"",""trial"",""time""
""fullscreenenter"",""1"",""4229""
","
","
","""event"",""trial"",""time""
""fullscreenenter"",""1"",""4229""
","
","","","","","","2891.2999999523163","Welcome to the experiment. Press any key to begin and to advance the instructions."," ","","","","","","","","","","","","","","","",""
"learning-instructions","8","73736","0.0-8.0-0.0-0.0","1498","2","2","""event"",""trial"",""time""
""fullscreenenter"",""1"",""4229""
","
","
","""event"",""trial"",""time""
""fullscreenenter"",""1"",""4229""
","
","","","","","","3965.4000000953674","<p> Welcome! Today you are going to play 6 different rounds of a decision-making game. </p><p> Use the mouse to click next to continue. </p>","","0","instructions","","","","","","","","","","","","","",""
"learning-instructions","9","79173","0.0-8.0-0.0-0.1","1498","2","2","""event"",""trial"",""time""
""fullscreenenter"",""1"",""4229""
","
","
","""event"",""trial"",""time""
""fullscreenenter"",""1"",""4229""
","
","","","","","","2432.4000000953674","<p> You will start with a practice round to learn the rules. </p>","","0","instructions","","","","","","","","","","","","","",""
"learning-instructions","10","92572","0.0-8.0-0.0-0.2","1498","2","2","""event"",""trial"",""time""
""fullscreenenter"",""1"",""4229""
","
","
","""event"",""trial"",""time""
""fullscreenenter"",""1"",""4229""
","
","","","","","","5651.399999856949","<p> Your goal in this round is to deliver sports equipment to three different parks. </p><p> You will need to deliver many types of equipment. </p></div>","","0","instructions","","","","","","","","","","","","","",""
"learning-instructions","11","104954","0.0-8.0-0.0-0.3","1498","2","2","""event"",""trial"",""time""
""fullscreenenter"",""1"",""4229""
","
","
","""event"",""trial"",""time""
""fullscreenenter"",""1"",""4229""
","
","","","","","","3891.7000000476837","<p> On each turn, you will see one piece of sports equipment and three different parks.  </p><p> You need to select which park to deliver the equipment to.  </p>","","0","instructions","","","","","","","","","","","","","",""
"learning-instructions","12","122232","0.0-8.0-0.0-0.4","1498","2","2","""event"",""trial"",""time""
""fullscreenenter"",""1"",""4229""
","
","
","""event"",""trial"",""time""
""fullscreenenter"",""1"",""4229""
","
","","","","","","3990.399999856949","<p> You can select the park on the left by pressing the '1' key on your keyboard. <br>You can select the park in the middle by pressing the '2' key on your keyboard. <br>You can select the park on the right by pressing the '3' key on your keyboard.  </p><br><div class=""choice-instructions-grid""> <div class=""choice-option""><img src=""images/park1.png"" class=""choice-option-img"" stage=""instructions"" position=""0"" ><div class=""choice-option-text""> Press ""1."" </div></div><div class=""choice-option""><img src=""images/park2.png"" class=""choice-option-img"" stage=""instructions"" position=""1"" ><div class=""choice-option-text""> Press ""2."" </div></div><div class=""choice-option""><img src=""images/park3.png"" class=""choice-option-img"" stage=""instructions"" position=""2"" ><div class=""choice-option-text""> Press ""3."" </div></div></div>","","0","instructions","","","","","","","","","","","","","",""
"learning-instructions","13","129313","0.0-8.0-0.0-0.5","1498","2","2","""event"",""trial"",""time""
""fullscreenenter"",""1"",""4229""
","
","
","""event"",""trial"",""time""
""fullscreenenter"",""1"",""4229""
","
","","","","","","1681","<p> If the kids in the park you chose like the equipment, they will be very happy! </p><div style='float: center;'><img src='images/check.png' width = '200' height = '200'></img>","","0","instructions","","","","","","","","","","","","","",""
"learning-instructions","14","136042","0.0-8.0-0.0-0.6","1498","2","2","""event"",""trial"",""time""
""fullscreenenter"",""1"",""4229""
","
","
","""event"",""trial"",""time""
""fullscreenenter"",""1"",""4229""
","
","","","","","","1132.0999999046326","<p> But, if the kids in the park you chose do not like the equipment, they will be sad. </p><div style='float: center;'><img src='images/x.png' width = '200' height = '200'></img>","","0","instructions","","","","","","","","","","","","","",""
"learning-instructions","15","146091","0.0-8.0-0.0-0.7","1498","2","2","""event"",""trial"",""time""
""fullscreenenter"",""1"",""4229""
","
","
","""event"",""trial"",""time""
""fullscreenenter"",""1"",""4229""
","
","","","","","","3611.2000000476837","<p> Importantly, the kids in each park like some pieces of sports equipment more than others. </p>","","0","instructions","","","","","","","","","","","","","",""
"learning-instructions","16","153691","0.0-8.0-0.0-0.8","1498","2","2","""event"",""trial"",""time""
""fullscreenenter"",""1"",""4229""
","
","
","""event"",""trial"",""time""
""fullscreenenter"",""1"",""4229""
","
","","","","","","1530.9000000953674","<p> If you choose the best park for each piece of equipment, the kids there will usually be happy. </p>","","0","instructions","","","","","","","","","","","","","",""
"learning-instructions","17","161411","0.0-8.0-0.0-0.9","1498","2","2","""event"",""trial"",""time""
""fullscreenenter"",""1"",""4229""
","
","
","""event"",""trial"",""time""
""fullscreenenter"",""1"",""4229""
","
","","","","","","1071.0999999046326","<p> However, even if you choose the best park for the equipment, the kids may sometimes be sad. </p>","","0","instructions","","","","","","","","","","","","","",""
"learning-instructions","18","170051","0.0-8.0-0.0-0.10","1498","2","2","""event"",""trial"",""time""
""fullscreenenter"",""1"",""4229""
","
","
","""event"",""trial"",""time""
""fullscreenenter"",""1"",""4229""
","
","","","","","","1391.1000001430511","<p> Similarly, even if you choose the <i>wrong</i> park for the equipment, the kids may still be happy sometimes.","","0","instructions","","","","","","","","","","","","","",""
"learning-instructions","19","176891","0.0-8.0-0.0-0.11","1498","2","2","""event"",""trial"",""time""
""fullscreenenter"",""1"",""4229""
","
","
","""event"",""trial"",""time""
""fullscreenenter"",""1"",""4229""
","
","","","","","","1771.2000000476837","<p> For example, the best park for this soccer ball is this one.<div style='float: center;'><img src='images/i1.png' width = '500' height = '268'></img>","","0","instructions","","","","","","","","","","","","","",""
"learning-instructions","20","183671","0.0-8.0-0.0-0.12","1498","2","2","""event"",""trial"",""time""
""fullscreenenter"",""1"",""4229""
","
","
","""event"",""trial"",""time""
""fullscreenenter"",""1"",""4229""
","
","","","","","","1471.5","<p> Let's see what happens if you choose this park for the soccer ball five times.","","0","instructions","","","","","","","","","","","","","",""
"learning-instructions","21","187081","0.0-8.0-0.0-0.13","1498","2","2","""event"",""trial"",""time""
""fullscreenenter"",""1"",""4229""
","
","
","""event"",""trial"",""time""
""fullscreenenter"",""1"",""4229""
","
","","","","","","1231.5","<p> The kids are happy.<div style='float: left;'><img src='images/i2.png' width = '640' height = '360'></img>","","0","instructions","","","","","","","","","","","","","",""
"learning-instructions","22","191131","0.0-8.0-0.0-0.14","1498","2","2","""event"",""trial"",""time""
""fullscreenenter"",""1"",""4229""
","
","
","""event"",""trial"",""time""
""fullscreenenter"",""1"",""4229""
","
","","","","","","1871.2000000476837","<p> The kids are happy.<div style='float: left;'><img src='images/i3.png' width = '640' height = '360'></img>","","0","instructions","","","","","","","","","","","","","",""
"learning-instructions","23","197163","0.0-8.0-0.0-0.15","1498","2","2","""event"",""trial"",""time""
""fullscreenenter"",""1"",""4229""
","
","
","""event"",""trial"",""time""
""fullscreenenter"",""1"",""4229""
","
","","","","","","3840.2999999523163","<p> The kids are happy.<div style='float: left;'><img src='images/i4.png' width = '640' height = '360'></img>","","0","instructions","","","","","","","","","","","","","",""
"learning-instructions","24","200411","0.0-8.0-0.0-0.16","1498","2","2","""event"",""trial"",""time""
""fullscreenenter"",""1"",""4229""
","
","
","""event"",""trial"",""time""
""fullscreenenter"",""1"",""4229""
","
","","","","","","1041.2000000476837","<p> The kids are sad.<div style='float: left;'><img src='images/i5.png' width = '640' height = '360'></img>","","0","instructions","","","","","","","","","","","","","",""
"learning-instructions","25","204323","0.0-8.0-0.0-0.17","1498","2","2","""event"",""trial"",""time""
""fullscreenenter"",""1"",""4229""
","
","
","""event"",""trial"",""time""
""fullscreenenter"",""1"",""4229""
","
","","","","","","1742.3999998569489","<p> The kids are happy.<div style='float: left;'><img src='images/i6.png' width = '640' height = '360'></img>","","0","instructions","","","","","","","","","","","","","",""
"learning-instructions","26","213211","0.0-8.0-0.0-0.18","1498","2","2","""event"",""trial"",""time""
""fullscreenenter"",""1"",""4229""
","
","
","""event"",""trial"",""time""
""fullscreenenter"",""1"",""4229""
","
","","","","","","1611.2999999523163","<p> As you can see, selecting that park for the soccer ball made the kids happy most of the time, but not all the time.","","0","instructions","","","","","","","","","","","","","",""
"learning-instructions","27","220551","0.0-8.0-0.0-0.19","1498","2","2","""event"",""trial"",""time""
""fullscreenenter"",""1"",""4229""
","
","
","""event"",""trial"",""time""
""fullscreenenter"",""1"",""4229""
","
","","","","","","1330.6000001430511","<p> Now let's see what happens if you choose a DIFFERENT park for the soccer ball 5 times.","","0","instructions","","","","","","","","","","","","","",""
"learning-instructions","28","224003","0.0-8.0-0.0-0.20","1498","2","2","""event"",""trial"",""time""
""fullscreenenter"",""1"",""4229""
","
","
","""event"",""trial"",""time""
""fullscreenenter"",""1"",""4229""
","
","","","","","","1231.2000000476837","<p> The kids are sad.<div style='float: left;'><img src='images/i7.png' width = '640' height = '360'></img>","","0","instructions","","","","","","","","","","","","","",""
"learning-instructions","29","226761","0.0-8.0-0.0-0.21","1498","2","2","""event"",""trial"",""time""
""fullscreenenter"",""1"",""4229""
","
","
","""event"",""trial"",""time""
""fullscreenenter"",""1"",""4229""
","
","","","","","","550.4000000953674","<p> The kids are sad.<div style='float: left;'><img src='images/i8.png' width = '640' height = '360'></img>","","0","instructions","","","","","","","","","","","","","",""
"learning-instructions","30","229382","0.0-8.0-0.0-0.22","1498","2","2","""event"",""trial"",""time""
""fullscreenenter"",""1"",""4229""
","
","
","""event"",""trial"",""time""
""fullscreenenter"",""1"",""4229""
","
","","","","","","441.89999985694885","<p> The kids are happy.<div style='float: left;'><img src='images/i9.png' width = '640' height = '360'></img>","","0","instructions","","","","","","","","","","","","","",""
"learning-instructions","31","231892","0.0-8.0-0.0-0.23","1498","2","2","""event"",""trial"",""time""
""fullscreenenter"",""1"",""4229""
","
","
","""event"",""trial"",""time""
""fullscreenenter"",""1"",""4229""
","
","","","","","","291.2999999523163","<p> The kids are sad.<div style='float: left;'><img src='images/i10.png' width = '640' height = '360'></img>","","0","instructions","","","","","","","","","","","","","",""
"learning-instructions","32","235071","0.0-8.0-0.0-0.24","1498","2","2","""event"",""trial"",""time""
""fullscreenenter"",""1"",""4229""
","
","
","""event"",""trial"",""time""
""fullscreenenter"",""1"",""4229""
","
","","","","","","971.0999999046326","<p> The kids are sad.<div style='float: left;'><img src='images/i11.png' width = '640' height = '360'></img>","","0","instructions","","","","","","","","","","","","","",""
"learning-instructions","33","244390","0.0-8.0-0.0-0.25","1498","2","2","""event"",""trial"",""time""
""fullscreenenter"",""1"",""4229""
","
","
","""event"",""trial"",""time""
""fullscreenenter"",""1"",""4229""
","
","","","","","","1179.4000000953674","<p> As you can see, selecting the wrong park for the soccer ball made the kids sad most of the time, but not all the time.","","0","instructions","","","","","","","","","","","","","",""
"learning-instructions","34","255057","0.0-8.0-0.0-0.26","1498","2","2","""event"",""trial"",""time""
""fullscreenenter"",""1"",""4229""
","
","
","""event"",""trial"",""time""
""fullscreenenter"",""1"",""4229""
","
","","","","","","1531.5999999046326","<p> The different pieces of equipment belong in different parks. You need to try to learn which is the best park for each piece of equipment.","","0","instructions","","","","","","","","","","","","","",""
"learning-instructions","35","275342","0.0-8.0-0.0-0.27","1498","2","2","""event"",""trial"",""time""
""fullscreenenter"",""1"",""4229""
","
","
","""event"",""trial"",""time""
""fullscreenenter"",""1"",""4229""
","
","","","","","","3891.7999999523163","<p> Try to choose the best park for each piece of equipment, because you will <b> WIN </b> 1 point for each time you make the kids happy and <b>LOSE</b> 1 point for each time you make them sad. </p><p> Remember, if you make the best choice, you will win 1 point most of the time, but not all the time. </p>","","0","instructions","","","","","","","","","","","","","",""
"learning-instructions","36","282313","0.0-8.0-0.0-0.28","1498","2","2","""event"",""trial"",""time""
""fullscreenenter"",""1"",""4229""
","
","
","""event"",""trial"",""time""
""fullscreenenter"",""1"",""4229""
","
","","","","","","1482.7999999523163","<p> This is just a practice round, but in the real game, your bonus payment will depend on your total number of points.","","0","instructions","","","","","","","","","","","","","",""
"learning-instructions","37","293902","0.0-8.0-0.0-0.29","1498","2","2","""event"",""trial"",""time""
""fullscreenenter"",""1"",""4229""
","
","
","""event"",""trial"",""time""
""fullscreenenter"",""1"",""4229""
","
","","","","","","1261.4000000953674","<p> The position where each park appears will change throughout the game. </p><p> The position where the park appears <i> does not </i> influence how likely the kids are to be happy or sad. </p>","","0","instructions","","","","","","","","","","","","","",""
"learning-instructions","38","306631","0.0-8.0-0.0-0.30","1498","2","2","""event"",""trial"",""time""
""fullscreenenter"",""1"",""4229""
","
","
","""event"",""trial"",""time""
""fullscreenenter"",""1"",""4229""
","
","","","","","","1901.0999999046326","<p> You will have 4 seconds to make each choice. Try to respond before time runs out! </p><p> You will lose 1 point each time you do not make a response. </p>","","0","instructions","","","","","","","","","","","","","",""
"learning-instructions","39","314611","0.0-8.0-0.0-0.31","1498","2","2","""event"",""trial"",""time""
""fullscreenenter"",""1"",""4229""
","
","
","""event"",""trial"",""time""
""fullscreenenter"",""1"",""4229""
","
","","","","","","1170.2000000476837","<p> Remember, you should use the 1, 2, and 3 keys to select the park for each piece of equipment. </p><br><div class=""choice-instructions-grid""> <div class=""choice-option""><img src=""images/park1.png"" class=""choice-option-img"" stage=""instructions"" position=""0"" ><div class=""choice-option-text""> Press ""1."" </div></div><div class=""choice-option""><img src=""images/park2.png"" class=""choice-option-img"" stage=""instructions"" position=""1"" ><div class=""choice-option-text""> Press ""2."" </div></div><div class=""choice-option""><img src=""images/park3.png"" class=""choice-option-img"" stage=""instructions"" position=""2"" ><div class=""choice-option-text""> Press ""3."" </div></div></div>","","0","instructions","","","","","","","","","","","","","",""
"html-button-response","40","318843","0.0-8.0-1.0","1498","2","2","""event"",""trial"",""time""
""fullscreenenter"",""1"",""4229""
","
","
","""event"",""trial"",""time""
""fullscreenenter"",""1"",""4229""
","
","","","","","","4122.599999904633","<p> Ready to practice? </p>","0","","","","","","","","","","","","","","","",""
"html-keyboard-response","41","319451","0.0-8.0-2.0-0.0","1498","2","2","""event"",""trial"",""time""
""fullscreenenter"",""1"",""4229""
","
","
","""event"",""trial"",""time""
""fullscreenenter"",""1"",""4229""
","
","","","","","","null","<div style=""font-size:60px;"">+</div>","null","","fixation","","","","","","","","","","","","","",""
"learning-trial","42","323459","0.0-8.0-2.0-1.0","1498","2","2","""event"",""trial"",""time""
""fullscreenenter"",""1"",""4229""
","
","
","""event"",""trial"",""time""
""fullscreenenter"",""1"",""4229""
","
","","","","","","null","images/racket2.png","","","practice","images/park1.png","images/park3.png","images/park2.png","[0,2,1]","0","0","null","null","-1","practice","","","",""
"html-keyboard-response","43","323979","0.0-8.0-2.0-0.1","1498","2","2","""event"",""trial"",""time""
""fullscreenenter"",""1"",""4229""
","
","
","""event"",""trial"",""time""
""fullscreenenter"",""1"",""4229""
","
","","","","","","null","<div style=""font-size:60px;"">+</div>","null","","fixation","","","","","","","","","","","","","",""
"learning-trial","44","327986","0.0-8.0-2.0-1.1","1498","2","2","""event"",""trial"",""time""
""fullscreenenter"",""1"",""4229""
","
","
","""event"",""trial"",""time""
""fullscreenenter"",""1"",""4229""
","
","","","","","","2200.5999999046326","images/ball3.png","","","practice","images/park2.png","images/park1.png","images/park3.png","[1,0,2]","1","0","2","images/park1.png","-1","practice","","","",""
"html-keyboard-response","45","328498","0.0-8.0-2.0-0.2","1498","2","2","""event"",""trial"",""time""
""fullscreenenter"",""1"",""4229""
","
","
","""event"",""trial"",""time""
""fullscreenenter"",""1"",""4229""
","
","","","","","","null","<div style=""font-size:60px;"">+</div>","null","","fixation","","","","","","","","","","","","","",""
"learning-trial","46","332519","0.0-8.0-2.0-1.2","1498","2","2","""event"",""trial"",""time""
""fullscreenenter"",""1"",""4229""
","
","
","""event"",""trial"",""time""
""fullscreenenter"",""1"",""4229""
","
","","","","","","1603.5","images/racket1.png","","","practice","images/park2.png","images/park1.png","images/park3.png","[1,0,2]","0","1","1","images/park2.png","-1","practice","","","",""
"html-keyboard-response","47","333038","0.0-8.0-2.0-0.3","1498","2","2","""event"",""trial"",""time""
""fullscreenenter"",""1"",""4229""
","
","
","""event"",""trial"",""time""
""fullscreenenter"",""1"",""4229""
","
","","","","","","null","<div style=""font-size:60px;"">+</div>","null","","fixation","","","","","","","","","","","","","",""
"learning-trial","48","337060","0.0-8.0-2.0-1.3","1498","2","2","""event"",""trial"",""time""
""fullscreenenter"",""1"",""4229""
","
","
","""event"",""trial"",""time""
""fullscreenenter"",""1"",""4229""
","
","","","","","","1980.5","images/racket1.png","","","practice","images/park3.png","images/park1.png","images/park2.png","[2,0,1]","0","1","1","images/park3.png","-1","practice","","","",""
"html-keyboard-response","49","337578","0.0-8.0-2.0-0.4","1498","2","2","""event"",""trial"",""time""
""fullscreenenter"",""1"",""4229""
","
","
","""event"",""trial"",""time""
""fullscreenenter"",""1"",""4229""
","
","","","","","","null","<div style=""font-size:60px;"">+</div>","null","","fixation","","","","","","","","","","","","","",""
"learning-trial","50","341598","0.0-8.0-2.0-1.4","1498","2","2","""event"",""trial"",""time""
""fullscreenenter"",""1"",""4229""
","
","
","""event"",""trial"",""time""
""fullscreenenter"",""1"",""4229""
","
","","","","","","2069.2000000476837","images/racket4.png","","","practice","images/park1.png","images/park2.png","images/park3.png","[0,1,2]","2","2","1","images/park1.png","-1","practice","","","",""
"html-keyboard-response","51","342103","0.0-8.0-2.0-0.5","1498","2","2","""event"",""trial"",""time""
""fullscreenenter"",""1"",""4229""
","
","
","""event"",""trial"",""time""
""fullscreenenter"",""1"",""4229""
","
","","","","","","null","<div style=""font-size:60px;"">+</div>","null","","fixation","","","","","","","","","","","","","",""
"learning-trial","52","346107","0.0-8.0-2.0-1.5","1498","2","2","""event"",""trial"",""time""
""fullscreenenter"",""1"",""4229""
","
","
","""event"",""trial"",""time""
""fullscreenenter"",""1"",""4229""
","
","","","","","","2701","images/racket2.png","","","practice","images/park2.png","images/park1.png","images/park3.png","[1,0,2]","0","1","2","images/park1.png","1","practice","","","",""
"html-keyboard-response","53","346609","0.0-8.0-2.0-0.6","1498","2","2","""event"",""trial"",""time""
""fullscreenenter"",""1"",""4229""
","
","
","""event"",""trial"",""time""
""fullscreenenter"",""1"",""4229""
","
","","","","","","null","<div style=""font-size:60px;"">+</div>","null","","fixation","","","","","","","","","","","","","",""
"learning-trial","54","350613","0.0-8.0-2.0-1.6","1498","2","2","""event"",""trial"",""time""
""fullscreenenter"",""1"",""4229""
","
","
","""event"",""trial"",""time""
""fullscreenenter"",""1"",""4229""
","
","","","","","","3479.7000000476837","images/racket4.png","","","practice","images/park2.png","images/park1.png","images/park3.png","[1,0,2]","2","2","3","images/park3.png","1","practice","","","",""
"html-keyboard-response","55","351114","0.0-8.0-2.0-0.7","1498","2","2","""event"",""trial"",""time""
""fullscreenenter"",""1"",""4229""
","
","
","""event"",""trial"",""time""
""fullscreenenter"",""1"",""4229""
","
","","","","","","null","<div style=""font-size:60px;"">+</div>","null","","fixation","","","","","","","","","","","","","",""
"learning-trial","56","355118","0.0-8.0-2.0-1.7","1498","2","2","""event"",""trial"",""time""
""fullscreenenter"",""1"",""4229""
","
","
","""event"",""trial"",""time""
""fullscreenenter"",""1"",""4229""
","
","","","","","","1162.0999999046326","images/ball4.png","","","practice","images/park1.png","images/park2.png","images/park3.png","[0,1,2]","1","1","1","images/park1.png","-1","practice","","","",""
"html-keyboard-response","57","355619","0.0-8.0-2.0-0.8","1498","2","2","""event"",""trial"",""time""
""fullscreenenter"",""1"",""4229""
","
","
","""event"",""trial"",""time""
""fullscreenenter"",""1"",""4229""
","
","","","","","","null","<div style=""font-size:60px;"">+</div>","null","","fixation","","","","","","","","","","","","","",""
"learning-trial","58","359624","0.0-8.0-2.0-1.8","1498","2","2","""event"",""trial"",""time""
""fullscreenenter"",""1"",""4229""
","
","
","""event"",""trial"",""time""
""fullscreenenter"",""1"",""4229""
","
","","","","","","2281.9000000953674","images/ball2.png","","","practice","images/park2.png","images/park1.png","images/park3.png","[1,0,2]","2","2","1","images/park2.png","-1","practice","","","",""
"html-keyboard-response","59","360126","0.0-8.0-2.0-0.9","1498","2","2","""event"",""trial"",""time""
""fullscreenenter"",""1"",""4229""
","
","
","""event"",""trial"",""time""
""fullscreenenter"",""1"",""4229""
","
","","","","","","null","<div style=""font-size:60px;"">+</div>","null","","fixation","","","","","","","","","","","","","",""
"learning-trial","60","364130","0.0-8.0-2.0-1.9","1498","2","2","""event"",""trial"",""time""
""fullscreenenter"",""1"",""4229""
","
","
","""event"",""trial"",""time""
""fullscreenenter"",""1"",""4229""
","
","","","","","","3098","images/ball3.png","","","practice","images/park1.png","images/park3.png","images/park2.png","[0,2,1]","1","2","3","images/park2.png","1","practice","","","",""
"html-keyboard-response","61","364632","0.0-8.0-2.0-0.10","1498","2","2","""event"",""trial"",""time""
""fullscreenenter"",""1"",""4229""
","
","
","""event"",""trial"",""time""
""fullscreenenter"",""1"",""4229""
","
","","","","","","null","<div style=""font-size:60px;"">+</div>","null","","fixation","","","","","","","","","","","","","",""
"learning-trial","62","368635","0.0-8.0-2.0-1.10","1498","2","2","""event"",""trial"",""time""
""fullscreenenter"",""1"",""4229""
","
","
","""event"",""trial"",""time""
""fullscreenenter"",""1"",""4229""
","
","","","","","","1757.1000001430511","images/ball4.png","","","practice","images/park3.png","images/park2.png","images/park1.png","[2,1,0]","1","1","1","images/park3.png","-1","practice","","","",""
"html-keyboard-response","63","369137","0.0-8.0-2.0-0.11","1498","2","2","""event"",""trial"",""time""
""fullscreenenter"",""1"",""4229""
","
","
","""event"",""trial"",""time""
""fullscreenenter"",""1"",""4229""
","
","","","","","","null","<div style=""font-size:60px;"">+</div>","null","","fixation","","","","","","","","","","","","","",""
"learning-trial","64","373142","0.0-8.0-2.0-1.11","1498","2","2","""event"",""trial"",""time""
""fullscreenenter"",""1"",""4229""
","
","
","""event"",""trial"",""time""
""fullscreenenter"",""1"",""4229""
","
","","","","","","1552.2000000476837","images/ball2.png","","","practice","images/park1.png","images/park2.png","images/park3.png","[0,1,2]","2","2","3","images/park3.png","-1","practice","","","",""
"html-button-response","65","375090","0.0-8.0-3.0","1498","2","2","""event"",""trial"",""time""
""fullscreenenter"",""1"",""4229""
","
","
","""event"",""trial"",""time""
""fullscreenenter"",""1"",""4229""
","
","","","","","","1945","<p> You earned -6 points in the practice round! </p>","0","","break","","","","","","","","","","","","","",""
"learning-instructions","66","387260","0.0-8.0-4.0-0.0","1498","2","2","""event"",""trial"",""time""
""fullscreenenter"",""1"",""4229""
","
","
","""event"",""trial"",""time""
""fullscreenenter"",""1"",""4229""
","
","","","","","","4332.400000095367","<p> It's almost time to start the real game. </p><p> Before you start, we're going to ask you a few questions about how the game works. </p>","","0","instructions","","","","","","","","","","","","","",""
"preload","67","391263","0.0-8.0-5.0","1498","2","2","""event"",""trial"",""time""
""fullscreenenter"",""1"",""4229""
","
","
","""event"",""trial"",""time""
""fullscreenenter"",""1"",""4229""
","
","true","false","[]","[]","[]","","","","","","","","","","","","","","","","","","",""
"comp-q","68","400053","0.0-8.0-6.0-0.0","1498","2","2","""event"",""trial"",""time""
""fullscreenenter"",""1"",""4229""
","
","
","""event"",""trial"",""time""
""fullscreenenter"",""1"",""4229""
","
","","","","","","3345.2000000476837","<p> <b> True or False? </b> </p><p> If you choose the best option, you will always earn 1 point. </p>","","0","comp_question","","","","","","","","","","","false","","",""
"comp-q","69","407818","0.0-8.0-6.0-1.0","1498","2","2","""event"",""trial"",""time""
""fullscreenenter"",""1"",""4229""
","
","
","""event"",""trial"",""time""
""fullscreenenter"",""1"",""4229""
","
","","","","","","2210.9000000953674","<p><b> Incorrect. </b> Sometimes you will lose 1 point, even if you choose the best option. </p>","","0","comp_answer","","","","","","","","","","","","","",""
"comp-q","70","414000","0.0-8.0-6.0-0.1","1498","2","2","""event"",""trial"",""time""
""fullscreenenter"",""1"",""4229""
","
","
","""event"",""trial"",""time""
""fullscreenenter"",""1"",""4229""
","
","","","","","","1532.7000000476837","<p> <b> True or False? </b> </p><p> You will have as much time as you want to make each choice. </p>","","1","comp_question","","","","","","","","","","","true","","",""
"comp-q","71","421318","0.0-8.0-6.0-1.1","1498","2","2","""event"",""trial"",""time""
""fullscreenenter"",""1"",""4229""
","
","
","""event"",""trial"",""time""
""fullscreenenter"",""1"",""4229""
","
","","","","","","2490.7999999523163","<p> <b> That's right! </b> You will only have 4 seconds to make each choice. </p>","","0","comp_answer","","","","","","","","","","","","","",""
"comp-q","72","430552","0.0-8.0-6.0-0.2","1498","2","2","""event"",""trial"",""time""
""fullscreenenter"",""1"",""4229""
","
","
","""event"",""trial"",""time""
""fullscreenenter"",""1"",""4229""
","
","","","","","","3064.7000000476837","<p> <b> True or False? </b> </p><p> You should use the '1', '2', and '3' keys to make your choices. </p>","","0","comp_question","","","","","","","","","","","true","","",""
"comp-q","73","437560","0.0-8.0-6.0-1.2","1498","2","2","""event"",""trial"",""time""
""fullscreenenter"",""1"",""4229""
","
","
","""event"",""trial"",""time""
""fullscreenenter"",""1"",""4229""
","
","","","","","","2162.399999856949","<p> <b> That's right! </b> You should use the '1', '2', and '3' keys to make each choice. </p>","","0","comp_answer","","","","","","","","","","","","","",""
"learning-instructions","74","448909","0.0-8.0-7.0-0.0","1498","2","2","""event"",""trial"",""time""
""fullscreenenter"",""1"",""4229""
","
","
","""event"",""trial"",""time""
""fullscreenenter"",""1"",""4229""
","
","","","","","","2851.0999999046326","<p> It's now time to start the real game. </p>Do your best, because the points you earn in the next rounds will influence your bonus payment. </p>","","0","instructions","","","","","","","","","","","","","",""
"preload","75","454342","0.0-9.0-0.0","1498","2","2","""event"",""trial"",""time""
""fullscreenenter"",""1"",""4229""
","
","
","""event"",""trial"",""time""
""fullscreenenter"",""1"",""4229""
","
","true","false","[]","[]","[]","","","","","","","","","","","","","","","","","","",""
"learning-instructions","76","462959","0.0-9.0-1.0-0.0","1498","2","2","""event"",""trial"",""time""
""fullscreenenter"",""1"",""4229""
","
","
","""event"",""trial"",""time""
""fullscreenenter"",""1"",""4229""
","
","","","","","","1781.4000000953674","<p> Your goal in this round is to grow a beautiful garden by watering plants. </p><p> You will need to water many different plants. </p></div>","","0","instructions","","","","","","","","","","","","","",""
"learning-instructions","77","477158","0.0-9.0-1.0-0.1","1498","2","2","""event"",""trial"",""time""
""fullscreenenter"",""1"",""4229""
","
","
","""event"",""trial"",""time""
""fullscreenenter"",""1"",""4229""
","
","","","","","","911.5","<p> On each turn, you will see a picture of one of your plants and three different watering cans.  </p><p> Each watering can has a different mixture of water and fertilizer.  </p><p> You need to select which watering can to use for each plant. </p>","","0","instructions","","","","","","","","","","","","","",""
"learning-instructions","78","489969","0.0-9.0-1.0-0.2","1498","2","2","""event"",""trial"",""time""
""fullscreenenter"",""1"",""4229""
","
","
","""event"",""trial"",""time""
""fullscreenenter"",""1"",""4229""
","
","","","","","","5060.800000190735","<p> You can select the watering can on the left by pressing 1, the watering can in the middle by pressing 2, and the watering can on the right by pressing 3. </p><br><div class=""choice-instructions-grid""> <div class=""choice-option""><img src=""images/plants_choice1.png"" class=""choice-option-img"" stage=""instructions"" position=""0"" ><div class=""choice-option-text""> Press ""1."" </div></div><div class=""choice-option""><img src=""images/plants_choice2.png"" class=""choice-option-img"" stage=""instructions"" position=""1"" ><div class=""choice-option-text""> Press ""2."" </div></div><div class=""choice-option""><img src=""images/plants_choice3.png"" class=""choice-option-img"" stage=""instructions"" position=""2"" ><div class=""choice-option-text""> Press ""3."" </div></div></div>","","0","instructions","","","","","","","","","","","","","",""
"learning-instructions","79","496028","0.0-9.0-1.0-0.3","1498","2","2","""event"",""trial"",""time""
""fullscreenenter"",""1"",""4229""
","
","
","""event"",""trial"",""time""
""fullscreenenter"",""1"",""4229""
","
","","","","","","1870.7999999523163","<p> If the watering can you chose works for the plant, it will grow! </p><div style='float: center;'><img src='images/check.png' width = '200' height = '200'></img>","","0","instructions","","","","","","","","","","","","","",""
"learning-instructions","80","502109","0.0-9.0-1.0-0.4","1498","2","2","""event"",""trial"",""time""
""fullscreenenter"",""1"",""4229""
","
","
","""event"",""trial"",""time""
""fullscreenenter"",""1"",""4229""
","
","","","","","","1260.9000000953674","<p> But, if the watering can you chose does not work, your plant will droop. </p><div style='float: center;'><img src='images/x.png' width = '200' height = '200'></img>","","0","instructions","","","","","","","","","","","","","",""
"learning-instructions","81","513452","0.0-9.0-1.0-0.5","1498","2","2","""event"",""trial"",""time""
""fullscreenenter"",""1"",""4229""
","
","
","""event"",""trial"",""time""
""fullscreenenter"",""1"",""4229""
","
","","","","","","1244","<p> Importantly, each plant has one fertilizer mixture that works best for it. </p><p> If you choose the watering can with the right fertilizer, the plant will be more likely to grow. </p>","","0","instructions","","","","","","","","","","","","","",""
"learning-instructions","82","526448","0.0-9.0-1.0-0.6","1498","2","2","""event"",""trial"",""time""
""fullscreenenter"",""1"",""4229""
","
","
","""event"",""trial"",""time""
""fullscreenenter"",""1"",""4229""
","
","","","","","","2661.4000000953674","<p> However, even if you choose the best watering can for the plant, the plant may still droop. </p><p> Similarly, even if you choose the <i>wrong</i> watering can, the plant may still grow.","","0","instructions","","","","","","","","","","","","","",""
"learning-instructions","83","541290","0.0-9.0-1.0-0.7","1498","2","2","""event"",""trial"",""time""
""fullscreenenter"",""1"",""4229""
","
","
","""event"",""trial"",""time""
""fullscreenenter"",""1"",""4229""
","
","","","","","","2961.199999809265","<p> Try to choose the best watering can for each plant, because you will <b> WIN </b> 1 point each time a plant grows and <b>LOSE</b>  1 point each time a plant droops. </p><p> Your bonus payment will depend on your total number of points.","","0","instructions","","","","","","","","","","","","","",""
"learning-instructions","84","550338","0.0-9.0-1.0-0.8","1498","2","2","""event"",""trial"",""time""
""fullscreenenter"",""1"",""4229""
","
","
","""event"",""trial"",""time""
""fullscreenenter"",""1"",""4229""
","
","","","","","","1041","<p> The position of each watering can will change throughout the round. </p><p> The watering can's position <i> does not </i> influence how likely each plant is to droop or grow. </p>","","0","instructions","","","","","","","","","","","","","",""
"learning-instructions","85","561070","0.0-9.0-1.0-0.9","1498","2","2","""event"",""trial"",""time""
""fullscreenenter"",""1"",""4229""
","
","
","""event"",""trial"",""time""
""fullscreenenter"",""1"",""4229""
","
","","","","","","1421.2000000476837","<p> You will have 4 seconds to make each choice. Try to respond before time runs out! </p><p> You will lose 1 point each time you do not make a response. </p>","","0","instructions","","","","","","","","","","","","","",""
"html-keyboard-response","86","561695","0.0-9.0-2.0-0.0","1498","2","2","""event"",""trial"",""time""
""fullscreenenter"",""1"",""4229""
","
","
","""event"",""trial"",""time""
""fullscreenenter"",""1"",""4229""
","
","","","","","","null","<div style=""font-size:60px;"">+</div>","null","","fixation","","","","","","","","","","","","","",""
"learning-trial","87","565706","0.0-9.0-2.0-1.0","1498","2","2","""event"",""trial"",""time""
""fullscreenenter"",""1"",""4229""
","
","
","""event"",""trial"",""time""
""fullscreenenter"",""1"",""4229""
","
","","","","","","3114","images/tree4.png","","","learning","images/plants_choice3.png","images/plants_choice1.png","images/plants_choice2.png","[2,0,1]","1","2","3","images/plants_choice2.png","1","plants","","tree","2","0"
"html-keyboard-response","88","566224","0.0-9.0-2.0-0.1","1498","2","2","""event"",""trial"",""time""
""fullscreenenter"",""1"",""4229""
","
","
","""event"",""trial"",""time""
""fullscreenenter"",""1"",""4229""
","
","","","","","","null","<div style=""font-size:60px;"">+</div>","null","","fixation","","","","","","","","","","","","","",""
"learning-trial","89","570235","0.0-9.0-2.0-1.1","1498","2","2","""event"",""trial"",""time""
""fullscreenenter"",""1"",""4229""
","
","
","""event"",""trial"",""time""
""fullscreenenter"",""1"",""4229""
","
","","","","","","1994.5","images/tree5.png","","","learning","images/plants_choice3.png","images/plants_choice1.png","images/plants_choice2.png","[2,0,1]","2","0","2","images/plants_choice1.png","-1","plants","","tree","2","0"
"html-keyboard-response","90","570755","0.0-9.0-2.0-0.2","1498","2","2","""event"",""trial"",""time""
""fullscreenenter"",""1"",""4229""
","
","
","""event"",""trial"",""time""
""fullscreenenter"",""1"",""4229""
","
","","","","","","null","<div style=""font-size:60px;"">+</div>","null","","fixation","","","","","","","","","","","","","",""
"learning-trial","91","574775","0.0-9.0-2.0-1.2","1498","2","2","""event"",""trial"",""time""
""fullscreenenter"",""1"",""4229""
","
","
","""event"",""trial"",""time""
""fullscreenenter"",""1"",""4229""
","
","","","","","","2456.2000000476837","images/tree4.png","","","learning","images/plants_choice2.png","images/plants_choice1.png","images/plants_choice3.png","[1,0,2]","1","0","3","images/plants_choice3.png","-1","plants","","tree","2","0"
"html-keyboard-response","92","575295","0.0-9.0-2.0-0.3","1498","2","2","""event"",""trial"",""time""
""fullscreenenter"",""1"",""4229""
","
","
","""event"",""trial"",""time""
""fullscreenenter"",""1"",""4229""
","
","","","","","","null","<div style=""font-size:60px;"">+</div>","null","","fixation","","","","","","","","","","","","","",""
"learning-trial","93","579305","0.0-9.0-2.0-1.3","1498","2","2","""event"",""trial"",""time""
""fullscreenenter"",""1"",""4229""
","
","
","""event"",""trial"",""time""
""fullscreenenter"",""1"",""4229""
","
","","","","","","1332.7999999523163","images/cactus3.png","","","learning","images/plants_choice2.png","images/plants_choice1.png","images/plants_choice3.png","[1,0,2]","0","1","1","images/plants_choice2.png","-1","plants","","cactus","2","0"
"html-keyboard-response","94","579814","0.0-9.0-2.0-0.4","1498","2","2","""event"",""trial"",""time""
""fullscreenenter"",""1"",""4229""
","
","
","""event"",""trial"",""time""
""fullscreenenter"",""1"",""4229""
","
","","","","","","null","<div style=""font-size:60px;"">+</div>","null","","fixation","","","","","","","","","","","","","",""
"learning-trial","95","583825","0.0-9.0-2.0-1.4","1498","2","2","""event"",""trial"",""time""
""fullscreenenter"",""1"",""4229""
","
","
","""event"",""trial"",""time""
""fullscreenenter"",""1"",""4229""
","
","","","","","","2980","images/tree4.png","","","learning","images/plants_choice3.png","images/plants_choice2.png","images/plants_choice1.png","[2,1,0]","1","1","2","images/plants_choice2.png","1","plants","","tree","2","0"
"html-keyboard-response","96","584345","0.0-9.0-2.0-0.5","1498","2","2","""event"",""trial"",""time""
""fullscreenenter"",""1"",""4229""
","
","
","""event"",""trial"",""time""
""fullscreenenter"",""1"",""4229""
","
","","","","","","null","<div style=""font-size:60px;"">+</div>","null","","fixation","","","","","","","","","","","","","",""
"learning-trial","97","588365","0.0-9.0-2.0-1.5","1498","2","2","""event"",""trial"",""time""
""fullscreenenter"",""1"",""4229""
","
","
","""event"",""trial"",""time""
""fullscreenenter"",""1"",""4229""
","
","","","","","","2000.4000000953674","images/bush4.png","","","learning","images/plants_choice3.png","images/plants_choice1.png","images/plants_choice2.png","[2,0,1]","1","2","1","images/plants_choice3.png","-1","plants","","bush","2","0"
"html-keyboard-response","98","588886","0.0-9.0-2.0-0.6","1498","2","2","""event"",""trial"",""time""
""fullscreenenter"",""1"",""4229""
","
","
","""event"",""trial"",""time""
""fullscreenenter"",""1"",""4229""
","
","","","","","","null","<div style=""font-size:60px;"">+</div>","null","","fixation","","","","","","","","","","","","","",""
"learning-trial","99","592890","0.0-9.0-2.0-1.6","1498","2","2","""event"",""trial"",""time""
""fullscreenenter"",""1"",""4229""
","
","
","""event"",""trial"",""time""
""fullscreenenter"",""1"",""4229""
","
","","","","","","1741.4000000953674","images/bush3.png","","","learning","images/plants_choice1.png","images/plants_choice3.png","images/plants_choice2.png","[0,2,1]","2","1","2","images/plants_choice3.png","1","plants","","bush","2","0"
"html-keyboard-response","100","593391","0.0-9.0-2.0-0.7","1498","2","2","""event"",""trial"",""time""
""fullscreenenter"",""1"",""4229""
","
","
","""event"",""trial"",""time""
""fullscreenenter"",""1"",""4229""
","
","","","","","","null","<div style=""font-size:60px;"">+</div>","null","","fixation","","","","","","","","","","","","","",""
"learning-trial","101","597395","0.0-9.0-2.0-1.7","1498","2","2","""event"",""trial"",""time""
""fullscreenenter"",""1"",""4229""
","
","
","""event"",""trial"",""time""
""fullscreenenter"",""1"",""4229""
","
","","","","","","3451.100000143051","images/cactus3.png","","","learning","images/plants_choice3.png","images/plants_choice2.png","images/plants_choice1.png","[2,1,0]","0","2","2","images/plants_choice2.png","-1","plants","","cactus","2","0"
"html-keyboard-response","102","597898","0.0-9.0-2.0-0.8","1498","2","2","""event"",""trial"",""time""
""fullscreenenter"",""1"",""4229""
","
","
","""event"",""trial"",""time""
""fullscreenenter"",""1"",""4229""
","
","","","","","","null","<div style=""font-size:60px;"">+</div>","null","","fixation","","","","","","","","","","","","","",""
"learning-trial","103","601902","0.0-9.0-2.0-1.8","1498","2","2","""event"",""trial"",""time""
""fullscreenenter"",""1"",""4229""
","
","
","""event"",""trial"",""time""
""fullscreenenter"",""1"",""4229""
","
","","","","","","1613.3000001907349","images/tree5.png","","","learning","images/plants_choice1.png","images/plants_choice3.png","images/plants_choice2.png","[0,2,1]","2","1","1","images/plants_choice1.png","1","plants","","tree","2","0"
"html-keyboard-response","104","602404","0.0-9.0-2.0-0.9","1498","2","2","""event"",""trial"",""time""
""fullscreenenter"",""1"",""4229""
","
","
","""event"",""trial"",""time""
""fullscreenenter"",""1"",""4229""
","
","","","","","","null","<div style=""font-size:60px;"">+</div>","null","","fixation","","","","","","","","","","","","","",""
"learning-trial","105","606408","0.0-9.0-2.0-1.9","1498","2","2","""event"",""trial"",""time""
""fullscreenenter"",""1"",""4229""
","
","
","""event"",""trial"",""time""
""fullscreenenter"",""1"",""4229""
","
","","","","","","1332.8999998569489","images/bush3.png","","","learning","images/plants_choice2.png","images/plants_choice3.png","images/plants_choice1.png","[1,2,0]","2","1","2","images/plants_choice3.png","1","plants","","bush","2","0"
"html-keyboard-response","106","606910","0.0-9.0-2.0-0.10","1498","2","2","""event"",""trial"",""time""
""fullscreenenter"",""1"",""4229""
","
","
","""event"",""trial"",""time""
""fullscreenenter"",""1"",""4229""
","
","","","","","","null","<div style=""font-size:60px;"">+</div>","null","","fixation","","","","","","","","","","","","","",""
"learning-trial","107","610913","0.0-9.0-2.0-1.10","1498","2","2","""event"",""trial"",""time""
""fullscreenenter"",""1"",""4229""
","
","
","""event"",""trial"",""time""
""fullscreenenter"",""1"",""4229""
","
","","","","","","1683.1000001430511","images/cactus4.png","","","learning","images/plants_choice1.png","images/plants_choice2.png","images/plants_choice3.png","[0,1,2]","2","2","1","images/plants_choice1.png","-1","plants","","cactus","2","0"
"html-keyboard-response","108","611415","0.0-9.0-2.0-0.11","1498","2","2","""event"",""trial"",""time""
""fullscreenenter"",""1"",""4229""
","
","
","""event"",""trial"",""time""
""fullscreenenter"",""1"",""4229""
","
","","","","","","null","<div style=""font-size:60px;"">+</div>","null","","fixation","","","","","","","","","","","","","",""
"learning-trial","109","615420","0.0-9.0-2.0-1.11","1498","2","2","""event"",""trial"",""time""
""fullscreenenter"",""1"",""4229""
","
","
","""event"",""trial"",""time""
""fullscreenenter"",""1"",""4229""
","
","","","","","","1336.4000000953674","images/cactus5.png","","","learning","images/plants_choice1.png","images/plants_choice3.png","images/plants_choice2.png","[0,2,1]","1","2","2","images/plants_choice3.png","-1","plants","","cactus","2","0"
"html-keyboard-response","110","615921","0.0-9.0-2.0-0.12","1498","2","2","""event"",""trial"",""time""
""fullscreenenter"",""1"",""4229""
","
","
","""event"",""trial"",""time""
""fullscreenenter"",""1"",""4229""
","
","","","","","","null","<div style=""font-size:60px;"">+</div>","null","","fixation","","","","","","","","","","","","","",""
"learning-trial","111","619925","0.0-9.0-2.0-1.12","1498","2","2","""event"",""trial"",""time""
""fullscreenenter"",""1"",""4229""
","
","
","""event"",""trial"",""time""
""fullscreenenter"",""1"",""4229""
","
","","","","","","1533.7000000476837","images/bush4.png","","","learning","images/plants_choice1.png","images/plants_choice3.png","images/plants_choice2.png","[0,2,1]","1","2","1","images/plants_choice1.png","-1","plants","","bush","2","0"
"html-keyboard-response","112","620427","0.0-9.0-2.0-0.13","1498","2","2","""event"",""trial"",""time""
""fullscreenenter"",""1"",""4229""
","
","
","""event"",""trial"",""time""
""fullscreenenter"",""1"",""4229""
","
","","","","","","null","<div style=""font-size:60px;"">+</div>","null","","fixation","","","","","","","","","","","","","",""
"learning-trial","113","624432","0.0-9.0-2.0-1.13","1498","2","2","""event"",""trial"",""time""
""fullscreenenter"",""1"",""4229""
","
","
","""event"",""trial"",""time""
""fullscreenenter"",""1"",""4229""
","
","","","","","","1787.2000000476837","images/cactus5.png","","","learning","images/plants_choice1.png","images/plants_choice2.png","images/plants_choice3.png","[0,1,2]","1","1","3","images/plants_choice3.png","-1","plants","","cactus","2","0"
"html-keyboard-response","114","624934","0.0-9.0-2.0-0.14","1498","2","2","""event"",""trial"",""time""
""fullscreenenter"",""1"",""4229""
","
","
","""event"",""trial"",""time""
""fullscreenenter"",""1"",""4229""
","
","","","","","","null","<div style=""font-size:60px;"">+</div>","null","","fixation","","","","","","","","","","","","","",""
"learning-trial","115","628938","0.0-9.0-2.0-1.14","1498","2","2","""event"",""trial"",""time""
""fullscreenenter"",""1"",""4229""
","
","
","""event"",""trial"",""time""
""fullscreenenter"",""1"",""4229""
","
","","","","","","2252.899999856949","images/bush3.png","","","learning","images/plants_choice2.png","images/plants_choice1.png","images/plants_choice3.png","[1,0,2]","2","2","2","images/plants_choice1.png","-1","plants","","bush","2","0"
"html-keyboard-response","116","629441","0.0-9.0-2.0-0.15","1498","2","2","""event"",""trial"",""time""
""fullscreenenter"",""1"",""4229""
","
","
","""event"",""trial"",""time""
""fullscreenenter"",""1"",""4229""
","
","","","","","","null","<div style=""font-size:60px;"">+</div>","null","","fixation","","","","","","","","","","","","","",""
"learning-trial","117","633444","0.0-9.0-2.0-1.15","1498","2","2","""event"",""trial"",""time""
""fullscreenenter"",""1"",""4229""
","
","
","""event"",""trial"",""time""
""fullscreenenter"",""1"",""4229""
","
","","","","","","2285.7000000476837","images/tree4.png","","","learning","images/plants_choice1.png","images/plants_choice3.png","images/plants_choice2.png","[0,2,1]","1","2","3","images/plants_choice2.png","1","plants","","tree","2","0"
"html-keyboard-response","118","633946","0.0-9.0-2.0-0.16","1498","2","2","""event"",""trial"",""time""
""fullscreenenter"",""1"",""4229""
","
","
","""event"",""trial"",""time""
""fullscreenenter"",""1"",""4229""
","
","","","","","","null","<div style=""font-size:60px;"">+</div>","null","","fixation","","","","","","","","","","","","","",""
"learning-trial","119","637950","0.0-9.0-2.0-1.16","1498","2","2","""event"",""trial"",""time""
""fullscreenenter"",""1"",""4229""
","
","
","""event"",""trial"",""time""
""fullscreenenter"",""1"",""4229""
","
","","","","","","1486.6000001430511","images/tree4.png","","","learning","images/plants_choice2.png","images/plants_choice3.png","images/plants_choice1.png","[1,2,0]","1","0","3","images/plants_choice1.png","-1","plants","","tree","2","0"
"html-keyboard-response","120","638451","0.0-9.0-2.0-0.17","1498","2","2","""event"",""trial"",""time""
""fullscreenenter"",""1"",""4229""
","
","
","""event"",""trial"",""time""
""fullscreenenter"",""1"",""4229""
","
","","","","","","null","<div style=""font-size:60px;"">+</div>","null","","fixation","","","","","","","","","","","","","",""
"learning-trial","121","642455","0.0-9.0-2.0-1.17","1498","2","2","""event"",""trial"",""time""
""fullscreenenter"",""1"",""4229""
","
","
","""event"",""trial"",""time""
""fullscreenenter"",""1"",""4229""
","
","","","","","","1393","images/tree5.png","","","learning","images/plants_choice2.png","images/plants_choice3.png","images/plants_choice1.png","[1,2,0]","2","1","2","images/plants_choice3.png","1","plants","","tree","2","0"
"html-keyboard-response","122","642959","0.0-9.0-2.0-0.18","1498","2","2","""event"",""trial"",""time""
""fullscreenenter"",""1"",""4229""
","
","
","""event"",""trial"",""time""
""fullscreenenter"",""1"",""4229""
","
","","","","","","null","<div style=""font-size:60px;"">+</div>","null","","fixation","","","","","","","","","","","","","",""
"learning-trial","123","646962","0.0-9.0-2.0-1.18","1498","2","2","""event"",""trial"",""time""
""fullscreenenter"",""1"",""4229""
","
","
","""event"",""trial"",""time""
""fullscreenenter"",""1"",""4229""
","
","","","","","","1549.7999999523163","images/tree5.png","","","learning","images/plants_choice3.png","images/plants_choice1.png","images/plants_choice2.png","[2,0,1]","2","0","1","images/plants_choice3.png","1","plants","","tree","2","0"
"html-keyboard-response","124","647464","0.0-9.0-2.0-0.19","1498","2","2","""event"",""trial"",""time""
""fullscreenenter"",""1"",""4229""
","
","
","""event"",""trial"",""time""
""fullscreenenter"",""1"",""4229""
","
","","","","","","null","<div style=""font-size:60px;"">+</div>","null","","fixation","","","","","","","","","","","","","",""
"learning-trial","125","651468","0.0-9.0-2.0-1.19","1498","2","2","""event"",""trial"",""time""
""fullscreenenter"",""1"",""4229""
","
","
","""event"",""trial"",""time""
""fullscreenenter"",""1"",""4229""
","
","","","","","","1422.6000001430511","images/cactus4.png","","","learning","images/plants_choice3.png","images/plants_choice2.png","images/plants_choice1.png","[2,1,0]","2","0","3","images/plants_choice1.png","-1","plants","","cactus","2","0"
"html-keyboard-response","126","651970","0.0-9.0-2.0-0.20","1498","2","2","""event"",""trial"",""time""
""fullscreenenter"",""1"",""4229""
","
","
","""event"",""trial"",""time""
""fullscreenenter"",""1"",""4229""
","
","","","","","","null","<div style=""font-size:60px;"">+</div>","null","","fixation","","","","","","","","","","","","","",""
"learning-trial","127","655974","0.0-9.0-2.0-1.20","1498","2","2","""event"",""trial"",""time""
""fullscreenenter"",""1"",""4229""
","
","
","""event"",""trial"",""time""
""fullscreenenter"",""1"",""4229""
","
","","","","","","1167.6000001430511","images/bush4.png","","","learning","images/plants_choice3.png","images/plants_choice1.png","images/plants_choice2.png","[2,0,1]","1","2","2","images/plants_choice1.png","-1","plants","","bush","2","0"
"html-keyboard-response","128","656476","0.0-9.0-2.0-0.21","1498","2","2","""event"",""trial"",""time""
""fullscreenenter"",""1"",""4229""
","
","
","""event"",""trial"",""time""
""fullscreenenter"",""1"",""4229""
","
","","","","","","null","<div style=""font-size:60px;"">+</div>","null","","fixation","","","","","","","","","","","","","",""
"learning-trial","129","660479","0.0-9.0-2.0-1.21","1498","2","2","""event"",""trial"",""time""
""fullscreenenter"",""1"",""4229""
","
","
","""event"",""trial"",""time""
""fullscreenenter"",""1"",""4229""
","
","","","","","","2007.8999998569489","images/cactus4.png","","","learning","images/plants_choice2.png","images/plants_choice3.png","images/plants_choice1.png","[1,2,0]","2","1","2","images/plants_choice3.png","1","plants","","cactus","2","0"
"html-keyboard-response","130","660981","0.0-9.0-2.0-0.22","1498","2","2","""event"",""trial"",""time""
""fullscreenenter"",""1"",""4229""
","
","
","""event"",""trial"",""time""
""fullscreenenter"",""1"",""4229""
","
","","","","","","null","<div style=""font-size:60px;"">+</div>","null","","fixation","","","","","","","","","","","","","",""
"learning-trial","131","664985","0.0-9.0-2.0-1.22","1498","2","2","""event"",""trial"",""time""
""fullscreenenter"",""1"",""4229""
","
","
","""event"",""trial"",""time""
""fullscreenenter"",""1"",""4229""
","
","","","","","","1497.4000000953674","images/cactus3.png","","","learning","images/plants_choice2.png","images/plants_choice1.png","images/plants_choice3.png","[1,0,2]","0","1","3","images/plants_choice3.png","-1","plants","","cactus","2","0"
"html-keyboard-response","132","665487","0.0-9.0-2.0-0.23","1498","2","2","""event"",""trial"",""time""
""fullscreenenter"",""1"",""4229""
","
","
","""event"",""trial"",""time""
""fullscreenenter"",""1"",""4229""
","
","","","","","","null","<div style=""font-size:60px;"">+</div>","null","","fixation","","","","","","","","","","","","","",""
"learning-trial","133","669490","0.0-9.0-2.0-1.23","1498","2","2","""event"",""trial"",""time""
""fullscreenenter"",""1"",""4229""
","
","
","""event"",""trial"",""time""
""fullscreenenter"",""1"",""4229""
","
","","","","","","1817","images/tree3.png","","","learning","images/plants_choice1.png","images/plants_choice2.png","images/plants_choice3.png","[0,1,2]","0","0","2","images/plants_choice2.png","-1","plants","","tree","2","0"
"html-keyboard-response","134","669992","0.0-9.0-2.0-0.24","1498","2","2","""event"",""trial"",""time""
""fullscreenenter"",""1"",""4229""
","
","
","""event"",""trial"",""time""
""fullscreenenter"",""1"",""4229""
","
","","","","","","null","<div style=""font-size:60px;"">+</div>","null","","fixation","","","","","","","","","","","","","",""
"learning-trial","135","673996","0.0-9.0-2.0-1.24","1498","2","2","""event"",""trial"",""time""
""fullscreenenter"",""1"",""4229""
","
","
","""event"",""trial"",""time""
""fullscreenenter"",""1"",""4229""
","
","","","","","","1533.1000001430511","images/cactus5.png","","","learning","images/plants_choice3.png","images/plants_choice2.png","images/plants_choice1.png","[2,1,0]","1","1","3","images/plants_choice1.png","-1","plants","","cactus","2","0"
"html-keyboard-response","136","674498","0.0-9.0-2.0-0.25","1498","2","2","""event"",""trial"",""time""
""fullscreenenter"",""1"",""4229""
","
","
","""event"",""trial"",""time""
""fullscreenenter"",""1"",""4229""
","
","","","","","","null","<div style=""font-size:60px;"">+</div>","null","","fixation","","","","","","","","","","","","","",""
"learning-trial","137","678503","0.0-9.0-2.0-1.25","1498","2","2","""event"",""trial"",""time""
""fullscreenenter"",""1"",""4229""
","
","
","""event"",""trial"",""time""
""fullscreenenter"",""1"",""4229""
","
","","","","","","2099.9000000953674","images/cactus5.png","","","learning","images/plants_choice2.png","images/plants_choice3.png","images/plants_choice1.png","[1,2,0]","1","0","1","images/plants_choice2.png","1","plants","","cactus","2","0"
"html-keyboard-response","138","679006","0.0-9.0-2.0-0.26","1498","2","2","""event"",""trial"",""time""
""fullscreenenter"",""1"",""4229""
","
","
","""event"",""trial"",""time""
""fullscreenenter"",""1"",""4229""
","
","","","","","","null","<div style=""font-size:60px;"">+</div>","null","","fixation","","","","","","","","","","","","","",""
"learning-trial","139","683010","0.0-9.0-2.0-1.26","1498","2","2","""event"",""trial"",""time""
""fullscreenenter"",""1"",""4229""
","
","
","""event"",""trial"",""time""
""fullscreenenter"",""1"",""4229""
","
","","","","","","3435.0999999046326","images/bush4.png","","","learning","images/plants_choice3.png","images/plants_choice2.png","images/plants_choice1.png","[2,1,0]","1","1","2","images/plants_choice2.png","1","plants","","bush","2","0"
"html-keyboard-response","140","683512","0.0-9.0-2.0-0.27","1498","2","2","""event"",""trial"",""time""
""fullscreenenter"",""1"",""4229""
","
","
","""event"",""trial"",""time""
""fullscreenenter"",""1"",""4229""
","
","","","","","","null","<div style=""font-size:60px;"">+</div>","null","","fixation","","","","","","","","","","","","","",""
"learning-trial","141","687516","0.0-9.0-2.0-1.27","1498","2","2","""event"",""trial"",""time""
""fullscreenenter"",""1"",""4229""
","
","
","""event"",""trial"",""time""
""fullscreenenter"",""1"",""4229""
","
","","","","","","3322.600000143051","images/tree5.png","","","learning","images/plants_choice1.png","images/plants_choice3.png","images/plants_choice2.png","[0,2,1]","2","1","1","images/plants_choice1.png","-1","plants","","tree","2","0"
"html-keyboard-response","142","688017","0.0-9.0-2.0-0.28","1498","2","2","""event"",""trial"",""time""
""fullscreenenter"",""1"",""4229""
","
","
","""event"",""trial"",""time""
""fullscreenenter"",""1"",""4229""
","
","","","","","","null","<div style=""font-size:60px;"">+</div>","null","","fixation","","","","","","","","","","","","","",""
"learning-trial","143","692021","0.0-9.0-2.0-1.28","1498","2","2","""event"",""trial"",""time""
""fullscreenenter"",""1"",""4229""
","
","
","""event"",""trial"",""time""
""fullscreenenter"",""1"",""4229""
","
","","","","","","1942.7999999523163","images/tree4.png","","","learning","images/plants_choice2.png","images/plants_choice1.png","images/plants_choice3.png","[1,0,2]","1","0","3","images/plants_choice3.png","1","plants","","tree","2","0"
"html-keyboard-response","144","692523","0.0-9.0-2.0-0.29","1498","2","2","""event"",""trial"",""time""
""fullscreenenter"",""1"",""4229""
","
","
","""event"",""trial"",""time""
""fullscreenenter"",""1"",""4229""
","
","","","","","","null","<div style=""font-size:60px;"">+</div>","null","","fixation","","","","","","","","","","","","","",""
"learning-trial","145","696526","0.0-9.0-2.0-1.29","1498","2","2","""event"",""trial"",""time""
""fullscreenenter"",""1"",""4229""
","
","
","""event"",""trial"",""time""
""fullscreenenter"",""1"",""4229""
","
","","","","","","1781.7000000476837","images/bush1.png","","","learning","images/plants_choice1.png","images/plants_choice3.png","images/plants_choice2.png","[0,2,1]","0","0","1","images/plants_choice1.png","1","plants","","bush","2","0"
"html-keyboard-response","146","697028","0.0-9.0-2.0-0.30","1498","2","2","""event"",""trial"",""time""
""fullscreenenter"",""1"",""4229""
","
","
","""event"",""trial"",""time""
""fullscreenenter"",""1"",""4229""
","
","","","","","","null","<div style=""font-size:60px;"">+</div>","null","","fixation","","","","","","","","","","","","","",""
"learning-trial","147","701032","0.0-9.0-2.0-1.30","1498","2","2","""event"",""trial"",""time""
""fullscreenenter"",""1"",""4229""
","
","
","""event"",""trial"",""time""
""fullscreenenter"",""1"",""4229""
","
","","","","","","2026.9000000953674","images/bush1.png","","","learning","images/plants_choice2.png","images/plants_choice1.png","images/plants_choice3.png","[1,0,2]","0","1","2","images/plants_choice1.png","1","plants","","bush","2","0"
"html-keyboard-response","148","701533","0.0-9.0-2.0-0.31","1498","2","2","""event"",""trial"",""time""
""fullscreenenter"",""1"",""4229""
","
","
","""event"",""trial"",""time""
""fullscreenenter"",""1"",""4229""
","
","","","","","","null","<div style=""font-size:60px;"">+</div>","null","","fixation","","","","","","","","","","","","","",""
"learning-trial","149","705539","0.0-9.0-2.0-1.31","1498","2","2","""event"",""trial"",""time""
""fullscreenenter"",""1"",""4229""
","
","
","""event"",""trial"",""time""
""fullscreenenter"",""1"",""4229""
","
","","","","","","1215.5999999046326","images/bush1.png","","","learning","images/plants_choice2.png","images/plants_choice3.png","images/plants_choice1.png","[1,2,0]","0","2","3","images/plants_choice1.png","1","plants","","bush","2","0"
"html-keyboard-response","150","706040","0.0-9.0-2.0-0.32","1498","2","2","""event"",""trial"",""time""
""fullscreenenter"",""1"",""4229""
","
","
","""event"",""trial"",""time""
""fullscreenenter"",""1"",""4229""
","
","","","","","","null","<div style=""font-size:60px;"">+</div>","null","","fixation","","","","","","","","","","","","","",""
"learning-trial","151","710045","0.0-9.0-2.0-1.32","1498","2","2","""event"",""trial"",""time""
""fullscreenenter"",""1"",""4229""
","
","
","""event"",""trial"",""time""
""fullscreenenter"",""1"",""4229""
","
","","","","","","1841","images/tree3.png","","","learning","images/plants_choice3.png","images/plants_choice1.png","images/plants_choice2.png","[2,0,1]","0","1","1","images/plants_choice3.png","-1","plants","","tree","2","0"
"html-keyboard-response","152","710546","0.0-9.0-2.0-0.33","1498","2","2","""event"",""trial"",""time""
""fullscreenenter"",""1"",""4229""
","
","
","""event"",""trial"",""time""
""fullscreenenter"",""1"",""4229""
","
","","","","","","null","<div style=""font-size:60px;"">+</div>","null","","fixation","","","","","","","","","","","","","",""
"learning-trial","153","714552","0.0-9.0-2.0-1.33","1498","2","2","""event"",""trial"",""time""
""fullscreenenter"",""1"",""4229""
","
","
","""event"",""trial"",""time""
""fullscreenenter"",""1"",""4229""
","
","","","","","","2599.9000000953674","images/tree3.png","","","learning","images/plants_choice1.png","images/plants_choice3.png","images/plants_choice2.png","[0,2,1]","0","0","3","images/plants_choice2.png","-1","plants","","tree","2","0"
"html-keyboard-response","154","715053","0.0-9.0-2.0-0.34","1498","2","2","""event"",""trial"",""time""
""fullscreenenter"",""1"",""4229""
","
","
","""event"",""trial"",""time""
""fullscreenenter"",""1"",""4229""
","
","","","","","","null","<div style=""font-size:60px;"">+</div>","null","","fixation","","","","","","","","","","","","","",""
"learning-trial","155","719056","0.0-9.0-2.0-1.34","1498","2","2","""event"",""trial"",""time""
""fullscreenenter"",""1"",""4229""
","
","
","""event"",""trial"",""time""
""fullscreenenter"",""1"",""4229""
","
","","","","","","1508.5999999046326","images/tree5.png","","","learning","images/plants_choice2.png","images/plants_choice1.png","images/plants_choice3.png","[1,0,2]","2","2","1","images/plants_choice2.png","-1","plants","","tree","2","0"
"html-keyboard-response","156","719558","0.0-9.0-2.0-0.35","1498","2","2","""event"",""trial"",""time""
""fullscreenenter"",""1"",""4229""
","
","
","""event"",""trial"",""time""
""fullscreenenter"",""1"",""4229""
","
","","","","","","null","<div style=""font-size:60px;"">+</div>","null","","fixation","","","","","","","","","","","","","",""
"learning-trial","157","723562","0.0-9.0-2.0-1.35","1498","2","2","""event"",""trial"",""time""
""fullscreenenter"",""1"",""4229""
","
","
","""event"",""trial"",""time""
""fullscreenenter"",""1"",""4229""
","
","","","","","","1885.8999998569489","images/cactus4.png","","","learning","images/plants_choice3.png","images/plants_choice2.png","images/plants_choice1.png","[2,1,0]","2","0","3","images/plants_choice1.png","-1","plants","","cactus","2","0"
"html-keyboard-response","158","724064","0.0-9.0-2.0-0.36","1498","2","2","""event"",""trial"",""time""
""fullscreenenter"",""1"",""4229""
","
","
","""event"",""trial"",""time""
""fullscreenenter"",""1"",""4229""
","
","","","","","","null","<div style=""font-size:60px;"">+</div>","null","","fixation","","","","","","","","","","","","","",""
"learning-trial","159","728068","0.0-9.0-2.0-1.36","1498","2","2","""event"",""trial"",""time""
""fullscreenenter"",""1"",""4229""
","
","
","""event"",""trial"",""time""
""fullscreenenter"",""1"",""4229""
","
","","","","","","1786.7000000476837","images/cactus4.png","","","learning","images/plants_choice3.png","images/plants_choice1.png","images/plants_choice2.png","[2,0,1]","2","0","1","images/plants_choice3.png","1","plants","","cactus","2","0"
"html-keyboard-response","160","728570","0.0-9.0-2.0-0.37","1498","2","2","""event"",""trial"",""time""
""fullscreenenter"",""1"",""4229""
","
","
","""event"",""trial"",""time""
""fullscreenenter"",""1"",""4229""
","
","","","","","","null","<div style=""font-size:60px;"">+</div>","null","","fixation","","","","","","","","","","","","","",""
"learning-trial","161","732573","0.0-9.0-2.0-1.37","1498","2","2","""event"",""trial"",""time""
""fullscreenenter"",""1"",""4229""
","
","
","""event"",""trial"",""time""
""fullscreenenter"",""1"",""4229""
","
","","","","","","2169.2999999523163","images/tree3.png","","","learning","images/plants_choice1.png","images/plants_choice2.png","images/plants_choice3.png","[0,1,2]","0","0","3","images/plants_choice3.png","-1","plants","","tree","2","0"
"html-keyboard-response","162","733075","0.0-9.0-2.0-0.38","1498","2","2","""event"",""trial"",""time""
""fullscreenenter"",""1"",""4229""
","
","
","""event"",""trial"",""time""
""fullscreenenter"",""1"",""4229""
","
","","","","","","null","<div style=""font-size:60px;"">+</div>","null","","fixation","","","","","","","","","","","","","",""
"learning-trial","163","737079","0.0-9.0-2.0-1.38","1498","2","2","""event"",""trial"",""time""
""fullscreenenter"",""1"",""4229""
","
","
","""event"",""trial"",""time""
""fullscreenenter"",""1"",""4229""
","
","","","","","","1585.3999998569489","images/tree3.png","","","learning","images/plants_choice1.png","images/plants_choice3.png","images/plants_choice2.png","[0,2,1]","0","0","2","images/plants_choice3.png","-1","plants","","tree","2","0"
"html-keyboard-response","164","737583","0.0-9.0-2.0-0.39","1498","2","2","""event"",""trial"",""time""
""fullscreenenter"",""1"",""4229""
","
","
","""event"",""trial"",""time""
""fullscreenenter"",""1"",""4229""
","
","","","","","","null","<div style=""font-size:60px;"">+</div>","null","","fixation","","","","","","","","","","","","","",""
"learning-trial","165","741588","0.0-9.0-2.0-1.39","1498","2","2","""event"",""trial"",""time""
""fullscreenenter"",""1"",""4229""
","
","
","""event"",""trial"",""time""
""fullscreenenter"",""1"",""4229""
","
","","","","","","2162.7999999523163","images/bush3.png","","","learning","images/plants_choice1.png","images/plants_choice2.png","images/plants_choice3.png","[0,1,2]","2","2","3","images/plants_choice3.png","1","plants","","bush","2","0"
"html-keyboard-response","166","742090","0.0-9.0-2.0-0.40","1498","2","2","""event"",""trial"",""time""
""fullscreenenter"",""1"",""4229""
","
","
","""event"",""trial"",""time""
""fullscreenenter"",""1"",""4229""
","
","","","","","","null","<div style=""font-size:60px;"">+</div>","null","","fixation","","","","","","","","","","","","","",""
"learning-trial","167","746094","0.0-9.0-2.0-1.40","1498","2","2","""event"",""trial"",""time""
""fullscreenenter"",""1"",""4229""
","
","
","""event"",""trial"",""time""
""fullscreenenter"",""1"",""4229""
","
","","","","","","2874.2999999523163","images/bush3.png","","","learning","images/plants_choice2.png","images/plants_choice3.png","images/plants_choice1.png","[1,2,0]","2","1","2","images/plants_choice3.png","1","plants","","bush","2","0"
"html-keyboard-response","168","746595","0.0-9.0-2.0-0.41","1498","2","2","""event"",""trial"",""time""
""fullscreenenter"",""1"",""4229""
","
","
","""event"",""trial"",""time""
""fullscreenenter"",""1"",""4229""
","
","","","","","","null","<div style=""font-size:60px;"">+</div>","null","","fixation","","","","","","","","","","","","","",""
"learning-trial","169","750599","0.0-9.0-2.0-1.41","1498","2","2","""event"",""trial"",""time""
""fullscreenenter"",""1"",""4229""
","
","
","""event"",""trial"",""time""
""fullscreenenter"",""1"",""4229""
","
","","","","","","1456.1000001430511","images/bush3.png","","","learning","images/plants_choice3.png","images/plants_choice2.png","images/plants_choice1.png","[2,1,0]","2","0","1","images/plants_choice3.png","-1","plants","","bush","2","0"
"html-keyboard-response","170","751102","0.0-9.0-2.0-0.42","1498","2","2","""event"",""trial"",""time""
""fullscreenenter"",""1"",""4229""
","
","
","""event"",""trial"",""time""
""fullscreenenter"",""1"",""4229""
","
","","","","","","null","<div style=""font-size:60px;"">+</div>","null","","fixation","","","","","","","","","","","","","",""
"learning-trial","171","755105","0.0-9.0-2.0-1.42","1498","2","2","""event"",""trial"",""time""
""fullscreenenter"",""1"",""4229""
","
","
","""event"",""trial"",""time""
""fullscreenenter"",""1"",""4229""
","
","","","","","","1303.7999999523163","images/cactus3.png","","","learning","images/plants_choice1.png","images/plants_choice2.png","images/plants_choice3.png","[0,1,2]","0","0","3","images/plants_choice3.png","-1","plants","","cactus","2","0"
"html-keyboard-response","172","755606","0.0-9.0-2.0-0.43","1498","2","2","""event"",""trial"",""time""
""fullscreenenter"",""1"",""4229""
","
","
","""event"",""trial"",""time""
""fullscreenenter"",""1"",""4229""
","
","","","","","","null","<div style=""font-size:60px;"">+</div>","null","","fixation","","","","","","","","","","","","","",""
"learning-trial","173","759610","0.0-9.0-2.0-1.43","1498","2","2","""event"",""trial"",""time""
""fullscreenenter"",""1"",""4229""
","
","
","""event"",""trial"",""time""
""fullscreenenter"",""1"",""4229""
","
","","","","","","1674.3999998569489","images/bush1.png","","","learning","images/plants_choice3.png","images/plants_choice1.png","images/plants_choice2.png","[2,0,1]","0","1","2","images/plants_choice1.png","1","plants","","bush","2","0"
"html-keyboard-response","174","760112","0.0-9.0-2.0-0.44","1498","2","2","""event"",""trial"",""time""
""fullscreenenter"",""1"",""4229""
","
","
","""event"",""trial"",""time""
""fullscreenenter"",""1"",""4229""
","
","","","","","","null","<div style=""font-size:60px;"">+</div>","null","","fixation","","","","","","","","","","","","","",""
"learning-trial","175","764116","0.0-9.0-2.0-1.44","1498","2","2","""event"",""trial"",""time""
""fullscreenenter"",""1"",""4229""
","
","
","""event"",""trial"",""time""
""fullscreenenter"",""1"",""4229""
","
","","","","","","2157.7999999523163","images/tree4.png","","","learning","images/plants_choice1.png","images/plants_choice3.png","images/plants_choice2.png","[0,2,1]","1","2","2","images/plants_choice3.png","-1","plants","","tree","2","0"
"html-keyboard-response","176","764618","0.0-9.0-2.0-0.45","1498","2","2","""event"",""trial"",""time""
""fullscreenenter"",""1"",""4229""
","
","
","""event"",""trial"",""time""
""fullscreenenter"",""1"",""4229""
","
","","","","","","null","<div style=""font-size:60px;"">+</div>","null","","fixation","","","","","","","","","","","","","",""
"learning-trial","177","768623","0.0-9.0-2.0-1.45","1498","2","2","""event"",""trial"",""time""
""fullscreenenter"",""1"",""4229""
","
","
","""event"",""trial"",""time""
""fullscreenenter"",""1"",""4229""
","
","","","","","","1261","images/tree3.png","","","learning","images/plants_choice1.png","images/plants_choice2.png","images/plants_choice3.png","[0,1,2]","0","0","3","images/plants_choice3.png","1","plants","","tree","2","0"
"html-keyboard-response","178","769126","0.0-9.0-2.0-0.46","1498","2","2","""event"",""trial"",""time""
""fullscreenenter"",""1"",""4229""
","
","
","""event"",""trial"",""time""
""fullscreenenter"",""1"",""4229""
","
","","","","","","null","<div style=""font-size:60px;"">+</div>","null","","fixation","","","","","","","","","","","","","",""
"learning-trial","179","773130","0.0-9.0-2.0-1.46","1498","2","2","""event"",""trial"",""time""
""fullscreenenter"",""1"",""4229""
","
","
","""event"",""trial"",""time""
""fullscreenenter"",""1"",""4229""
","
","","","","","","2018.7000000476837","images/tree3.png","","","learning","images/plants_choice3.png","images/plants_choice2.png","images/plants_choice1.png","[2,1,0]","0","2","1","images/plants_choice3.png","-1","plants","","tree","2","0"
"html-keyboard-response","180","773634","0.0-9.0-2.0-0.47","1498","2","2","""event"",""trial"",""time""
""fullscreenenter"",""1"",""4229""
","
","
","""event"",""trial"",""time""
""fullscreenenter"",""1"",""4229""
","
","","","","","","null","<div style=""font-size:60px;"">+</div>","null","","fixation","","","","","","","","","","","","","",""
"learning-trial","181","777638","0.0-9.0-2.0-1.47","1498","2","2","""event"",""trial"",""time""
""fullscreenenter"",""1"",""4229""
","
","
","""event"",""trial"",""time""
""fullscreenenter"",""1"",""4229""
","
","","","","","","2814.0999999046326","images/bush3.png","","","learning","images/plants_choice1.png","images/plants_choice2.png","images/plants_choice3.png","[0,1,2]","2","2","1","images/plants_choice1.png","-1","plants","","bush","2","0"
"html-keyboard-response","182","778139","0.0-9.0-2.0-0.48","1498","2","2","""event"",""trial"",""time""
""fullscreenenter"",""1"",""4229""
","
","
","""event"",""trial"",""time""
""fullscreenenter"",""1"",""4229""
","
","","","","","","null","<div style=""font-size:60px;"">+</div>","null","","fixation","","","","","","","","","","","","","",""
"learning-trial","183","782143","0.0-9.0-2.0-1.48","1498","2","2","""event"",""trial"",""time""
""fullscreenenter"",""1"",""4229""
","
","
","""event"",""trial"",""time""
""fullscreenenter"",""1"",""4229""
","
","","","","","","2453.2000000476837","images/cactus5.png","","","learning","images/plants_choice2.png","images/plants_choice3.png","images/plants_choice1.png","[1,2,0]","1","0","2","images/plants_choice3.png","-1","plants","","cactus","2","0"
"html-keyboard-response","184","782645","0.0-9.0-2.0-0.49","1498","2","2","""event"",""trial"",""time""
""fullscreenenter"",""1"",""4229""
","
","
","""event"",""trial"",""time""
""fullscreenenter"",""1"",""4229""
","
","","","","","","null","<div style=""font-size:60px;"">+</div>","null","","fixation","","","","","","","","","","","","","",""
"learning-trial","185","786649","0.0-9.0-2.0-1.49","1498","2","2","""event"",""trial"",""time""
""fullscreenenter"",""1"",""4229""
","
","
","""event"",""trial"",""time""
""fullscreenenter"",""1"",""4229""
","
","","","","","","1630.1999998092651","images/tree5.png","","","learning","images/plants_choice1.png","images/plants_choice2.png","images/plants_choice3.png","[0,1,2]","2","2","1","images/plants_choice1.png","-1","plants","","tree","2","0"
"html-keyboard-response","186","787151","0.0-9.0-2.0-0.50","1498","2","2","""event"",""trial"",""time""
""fullscreenenter"",""1"",""4229""
","
","
","""event"",""trial"",""time""
""fullscreenenter"",""1"",""4229""
","
","","","","","","null","<div style=""font-size:60px;"">+</div>","null","","fixation","","","","","","","","","","","","","",""
"learning-trial","187","791156","0.0-9.0-2.0-1.50","1498","2","2","""event"",""trial"",""time""
""fullscreenenter"",""1"",""4229""
","
","
","""event"",""trial"",""time""
""fullscreenenter"",""1"",""4229""
","
","","","","","","2350.2999999523163","images/bush1.png","","","learning","images/plants_choice3.png","images/plants_choice1.png","images/plants_choice2.png","[2,0,1]","0","1","2","images/plants_choice1.png","1","plants","","bush","2","0"
"html-keyboard-response","188","791658","0.0-9.0-2.0-0.51","1498","2","2","""event"",""trial"",""time""
""fullscreenenter"",""1"",""4229""
","
","
","""event"",""trial"",""time""
""fullscreenenter"",""1"",""4229""
","
","","","","","","null","<div style=""font-size:60px;"">+</div>","null","","fixation","","","","","","","","","","","","","",""
"learning-trial","189","795662","0.0-9.0-2.0-1.51","1498","2","2","""event"",""trial"",""time""
""fullscreenenter"",""1"",""4229""
","
","
","""event"",""trial"",""time""
""fullscreenenter"",""1"",""4229""
","
","","","","","","2390.899999856949","images/bush4.png","","","learning","images/plants_choice1.png","images/plants_choice2.png","images/plants_choice3.png","[0,1,2]","1","1","3","images/plants_choice3.png","-1","plants","","bush","2","0"
"html-keyboard-response","190","796163","0.0-9.0-2.0-0.52","1498","2","2","""event"",""trial"",""time""
""fullscreenenter"",""1"",""4229""
","
","
","""event"",""trial"",""time""
""fullscreenenter"",""1"",""4229""
","
","","","","","","null","<div style=""font-size:60px;"">+</div>","null","","fixation","","","","","","","","","","","","","",""
"learning-trial","191","800168","0.0-9.0-2.0-1.52","1498","2","2","""event"",""trial"",""time""
""fullscreenenter"",""1"",""4229""
","
","
","""event"",""trial"",""time""
""fullscreenenter"",""1"",""4229""
","
","","","","","","1110.1000001430511","images/tree5.png","","","learning","images/plants_choice1.png","images/plants_choice2.png","images/plants_choice3.png","[0,1,2]","2","2","2","images/plants_choice2.png","-1","plants","","tree","2","0"
"html-keyboard-response","192","800670","0.0-9.0-2.0-0.53","1498","2","2","""event"",""trial"",""time""
""fullscreenenter"",""1"",""4229""
","
","
","""event"",""trial"",""time""
""fullscreenenter"",""1"",""4229""
","
","","","","","","null","<div style=""font-size:60px;"">+</div>","null","","fixation","","","","","","","","","","","","","",""
"learning-trial","193","804675","0.0-9.0-2.0-1.53","1498","2","2","""event"",""trial"",""time""
""fullscreenenter"",""1"",""4229""
","
","
","""event"",""trial"",""time""
""fullscreenenter"",""1"",""4229""
","
","","","","","","1761.3999998569489","images/cactus3.png","","","learning","images/plants_choice2.png","images/plants_choice3.png","images/plants_choice1.png","[1,2,0]","0","2","2","images/plants_choice3.png","-1","plants","","cactus","2","0"
"html-keyboard-response","194","805176","0.0-9.0-2.0-0.54","1498","2","2","""event"",""trial"",""time""
""fullscreenenter"",""1"",""4229""
","
","
","""event"",""trial"",""time""
""fullscreenenter"",""1"",""4229""
","
","","","","","","null","<div style=""font-size:60px;"">+</div>","null","","fixation","","","","","","","","","","","","","",""
"learning-trial","195","809183","0.0-9.0-2.0-1.54","1498","2","2","""event"",""trial"",""time""
""fullscreenenter"",""1"",""4229""
","
","
","""event"",""trial"",""time""
""fullscreenenter"",""1"",""4229""
","
","","","","","","2099.899999856949","images/cactus3.png","","","learning","images/plants_choice3.png","images/plants_choice2.png","images/plants_choice1.png","[2,1,0]","0","2","3","images/plants_choice1.png","1","plants","","cactus","2","0"
"html-keyboard-response","196","809685","0.0-9.0-2.0-0.55","1498","2","2","""event"",""trial"",""time""
""fullscreenenter"",""1"",""4229""
","
","
","""event"",""trial"",""time""
""fullscreenenter"",""1"",""4229""
","
","","","","","","null","<div style=""font-size:60px;"">+</div>","null","","fixation","","","","","","","","","","","","","",""
"learning-trial","197","813689","0.0-9.0-2.0-1.55","1498","2","2","""event"",""trial"",""time""
""fullscreenenter"",""1"",""4229""
","
","
","""event"",""trial"",""time""
""fullscreenenter"",""1"",""4229""
","
","","","","","","2420.0999999046326","images/bush1.png","","","learning","images/plants_choice1.png","images/plants_choice3.png","images/plants_choice2.png","[0,2,1]","0","0","1","images/plants_choice1.png","1","plants","","bush","2","0"
"html-keyboard-response","198","814191","0.0-9.0-2.0-0.56","1498","2","2","""event"",""trial"",""time""
""fullscreenenter"",""1"",""4229""
","
","
","""event"",""trial"",""time""
""fullscreenenter"",""1"",""4229""
","
","","","","","","null","<div style=""font-size:60px;"">+</div>","null","","fixation","","","","","","","","","","","","","",""
"learning-trial","199","818195","0.0-9.0-2.0-1.56","1498","2","2","""event"",""trial"",""time""
""fullscreenenter"",""1"",""4229""
","
","
","""event"",""trial"",""time""
""fullscreenenter"",""1"",""4229""
","
","","","","","","1764.0999999046326","images/cactus4.png","","","learning","images/plants_choice2.png","images/plants_choice1.png","images/plants_choice3.png","[1,0,2]","2","2","1","images/plants_choice2.png","-1","plants","","cactus","2","0"
"html-keyboard-response","200","818697","0.0-9.0-2.0-0.57","1498","2","2","""event"",""trial"",""time""
""fullscreenenter"",""1"",""4229""
","
","
","""event"",""trial"",""time""
""fullscreenenter"",""1"",""4229""
","
","","","","","","null","<div style=""font-size:60px;"">+</div>","null","","fixation","","","","","","","","","","","","","",""
"learning-trial","201","822701","0.0-9.0-2.0-1.57","1498","2","2","""event"",""trial"",""time""
""fullscreenenter"",""1"",""4229""
","
","
","""event"",""trial"",""time""
""fullscreenenter"",""1"",""4229""
","
","","","","","","3525.7999999523163","images/cactus3.png","","","learning","images/plants_choice3.png","images/plants_choice1.png","images/plants_choice2.png","[2,0,1]","0","1","3","images/plants_choice2.png","-1","plants","","cactus","2","0"
"html-keyboard-response","202","823203","0.0-9.0-2.0-0.58","1498","2","2","""event"",""trial"",""time""
""fullscreenenter"",""1"",""4229""
","
","
","""event"",""trial"",""time""
""fullscreenenter"",""1"",""4229""
","
","","","","","","null","<div style=""font-size:60px;"">+</div>","null","","fixation","","","","","","","","","","","","","",""
"learning-trial","203","827207","0.0-9.0-2.0-1.58","1498","2","2","""event"",""trial"",""time""
""fullscreenenter"",""1"",""4229""
","
","
","""event"",""trial"",""time""
""fullscreenenter"",""1"",""4229""
","
","","","","","","3852.5999999046326","images/tree3.png","","","learning","images/plants_choice3.png","images/plants_choice2.png","images/plants_choice1.png","[2,1,0]","0","2","1","images/plants_choice3.png","-1","plants","","tree","2","0"
"html-keyboard-response","204","827710","0.0-9.0-2.0-0.59","1498","2","2","""event"",""trial"",""time""
""fullscreenenter"",""1"",""4229""
","
","
","""event"",""trial"",""time""
""fullscreenenter"",""1"",""4229""
","
","","","","","","null","<div style=""font-size:60px;"">+</div>","null","","fixation","","","","","","","","","","","","","",""
"learning-trial","205","831713","0.0-9.0-2.0-1.59","1498","2","2","""event"",""trial"",""time""
""fullscreenenter"",""1"",""4229""
","
","
","""event"",""trial"",""time""
""fullscreenenter"",""1"",""4229""
","
","","","","","","2809.300000190735","images/bush4.png","","","learning","images/plants_choice1.png","images/plants_choice2.png","images/plants_choice3.png","[0,1,2]","1","1","2","images/plants_choice2.png","1","plants","","bush","2","0"
"html-keyboard-response","206","832215","0.0-9.0-2.0-0.60","1498","2","2","""event"",""trial"",""time""
""fullscreenenter"",""1"",""4229""
","
","
","""event"",""trial"",""time""
""fullscreenenter"",""1"",""4229""
","
","","","","","","null","<div style=""font-size:60px;"">+</div>","null","","fixation","","","","","","","","","","","","","",""
"learning-trial","207","836220","0.0-9.0-2.0-1.60","1498","2","2","""event"",""trial"",""time""
""fullscreenenter"",""1"",""4229""
","
","
","""event"",""trial"",""time""
""fullscreenenter"",""1"",""4229""
","
","","","","","","1352","images/cactus5.png","","","learning","images/plants_choice2.png","images/plants_choice1.png","images/plants_choice3.png","[1,0,2]","1","0","1","images/plants_choice2.png","1","plants","","cactus","2","0"
"html-keyboard-response","208","836721","0.0-9.0-2.0-0.61","1498","2","2","""event"",""trial"",""time""
""fullscreenenter"",""1"",""4229""
","
","
","""event"",""trial"",""time""
""fullscreenenter"",""1"",""4229""
","
","","","","","","null","<div style=""font-size:60px;"">+</div>","null","","fixation","","","","","","","","","","","","","",""
"learning-trial","209","840725","0.0-9.0-2.0-1.61","1498","2","2","""event"",""trial"",""time""
""fullscreenenter"",""1"",""4229""
","
","
","""event"",""trial"",""time""
""fullscreenenter"",""1"",""4229""
","
","","","","","","1949.5999999046326","images/bush4.png","","","learning","images/plants_choice2.png","images/plants_choice1.png","images/plants_choice3.png","[1,0,2]","1","0","3","images/plants_choice3.png","-1","plants","","bush","2","0"
"html-keyboard-response","210","841228","0.0-9.0-2.0-0.62","1498","2","2","""event"",""trial"",""time""
""fullscreenenter"",""1"",""4229""
","
","
","""event"",""trial"",""time""
""fullscreenenter"",""1"",""4229""
","
","","","","","","null","<div style=""font-size:60px;"">+</div>","null","","fixation","","","","","","","","","","","","","",""
"learning-trial","211","845232","0.0-9.0-2.0-1.62","1498","2","2","""event"",""trial"",""time""
""fullscreenenter"",""1"",""4229""
","
","
","""event"",""trial"",""time""
""fullscreenenter"",""1"",""4229""
","
","","","","","","1401.1999998092651","images/cactus4.png","","","learning","images/plants_choice1.png","images/plants_choice3.png","images/plants_choice2.png","[0,2,1]","2","1","1","images/plants_choice1.png","-1","plants","","cactus","2","0"
"html-keyboard-response","212","845734","0.0-9.0-2.0-0.63","1498","2","2","""event"",""trial"",""time""
""fullscreenenter"",""1"",""4229""
","
","
","""event"",""trial"",""time""
""fullscreenenter"",""1"",""4229""
","
","","","","","","null","<div style=""font-size:60px;"">+</div>","null","","fixation","","","","","","","","","","","","","",""
"learning-trial","213","849738","0.0-9.0-2.0-1.63","1498","2","2","""event"",""trial"",""time""
""fullscreenenter"",""1"",""4229""
","
","
","""event"",""trial"",""time""
""fullscreenenter"",""1"",""4229""
","
","","","","","","2403.100000143051","images/bush3.png","","","learning","images/plants_choice2.png","images/plants_choice1.png","images/plants_choice3.png","[1,0,2]","2","2","2","images/plants_choice1.png","-1","plants","","bush","2","0"
"html-keyboard-response","214","850240","0.0-9.0-2.0-0.64","1498","2","2","""event"",""trial"",""time""
""fullscreenenter"",""1"",""4229""
","
","
","""event"",""trial"",""time""
""fullscreenenter"",""1"",""4229""
","
","","","","","","null","<div style=""font-size:60px;"">+</div>","null","","fixation","","","","","","","","","","","","","",""
"learning-trial","215","854244","0.0-9.0-2.0-1.64","1498","2","2","""event"",""trial"",""time""
""fullscreenenter"",""1"",""4229""
","
","
","""event"",""trial"",""time""
""fullscreenenter"",""1"",""4229""
","
","","","","","","1965.3999998569489","images/cactus4.png","","","learning","images/plants_choice1.png","images/plants_choice2.png","images/plants_choice3.png","[0,1,2]","2","2","3","images/plants_choice3.png","1","plants","","cactus","2","0"
"html-keyboard-response","216","854745","0.0-9.0-2.0-0.65","1498","2","2","""event"",""trial"",""time""
""fullscreenenter"",""1"",""4229""
","
","
","""event"",""trial"",""time""
""fullscreenenter"",""1"",""4229""
","
","","","","","","null","<div style=""font-size:60px;"">+</div>","null","","fixation","","","","","","","","","","","","","",""
"learning-trial","217","858749","0.0-9.0-2.0-1.65","1498","2","2","""event"",""trial"",""time""
""fullscreenenter"",""1"",""4229""
","
","
","""event"",""trial"",""time""
""fullscreenenter"",""1"",""4229""
","
","","","","","","1962.9000000953674","images/cactus5.png","","","learning","images/plants_choice3.png","images/plants_choice2.png","images/plants_choice1.png","[2,1,0]","1","1","3","images/plants_choice1.png","-1","plants","","cactus","2","0"
"html-keyboard-response","218","859250","0.0-9.0-2.0-0.66","1498","2","2","""event"",""trial"",""time""
""fullscreenenter"",""1"",""4229""
","
","
","""event"",""trial"",""time""
""fullscreenenter"",""1"",""4229""
","
","","","","","","null","<div style=""font-size:60px;"">+</div>","null","","fixation","","","","","","","","","","","","","",""
"learning-trial","219","863253","0.0-9.0-2.0-1.66","1498","2","2","""event"",""trial"",""time""
""fullscreenenter"",""1"",""4229""
","
","
","""event"",""trial"",""time""
""fullscreenenter"",""1"",""4229""
","
","","","","","","1421.2000000476837","images/tree4.png","","","learning","images/plants_choice1.png","images/plants_choice2.png","images/plants_choice3.png","[0,1,2]","1","1","1","images/plants_choice1.png","-1","plants","","tree","2","0"
"html-keyboard-response","220","863755","0.0-9.0-2.0-0.67","1498","2","2","""event"",""trial"",""time""
""fullscreenenter"",""1"",""4229""
","
","
","""event"",""trial"",""time""
""fullscreenenter"",""1"",""4229""
","
","","","","","","null","<div style=""font-size:60px;"">+</div>","null","","fixation","","","","","","","","","","","","","",""
"learning-trial","221","867759","0.0-9.0-2.0-1.67","1498","2","2","""event"",""trial"",""time""
""fullscreenenter"",""1"",""4229""
","
","
","""event"",""trial"",""time""
""fullscreenenter"",""1"",""4229""
","
","","","","","","3496.7000000476837","images/cactus3.png","","","learning","images/plants_choice1.png","images/plants_choice3.png","images/plants_choice2.png","[0,2,1]","0","0","3","images/plants_choice2.png","-1","plants","","cactus","2","0"
"html-keyboard-response","222","868260","0.0-9.0-2.0-0.68","1498","2","2","""event"",""trial"",""time""
""fullscreenenter"",""1"",""4229""
","
","
","""event"",""trial"",""time""
""fullscreenenter"",""1"",""4229""
","
","","","","","","null","<div style=""font-size:60px;"">+</div>","null","","fixation","","","","","","","","","","","","","",""
"learning-trial","223","872265","0.0-9.0-2.0-1.68","1498","2","2","""event"",""trial"",""time""
""fullscreenenter"",""1"",""4229""
","
","
","""event"",""trial"",""time""
""fullscreenenter"",""1"",""4229""
","
","","","","","","1902.7000000476837","images/bush1.png","","","learning","images/plants_choice2.png","images/plants_choice3.png","images/plants_choice1.png","[1,2,0]","0","2","2","images/plants_choice3.png","-1","plants","","bush","2","0"
"html-keyboard-response","224","872767","0.0-9.0-2.0-0.69","1498","2","2","""event"",""trial"",""time""
""fullscreenenter"",""1"",""4229""
","
","
","""event"",""trial"",""time""
""fullscreenenter"",""1"",""4229""
","
","","","","","","null","<div style=""font-size:60px;"">+</div>","null","","fixation","","","","","","","","","","","","","",""
"learning-trial","225","876772","0.0-9.0-2.0-1.69","1498","2","2","""event"",""trial"",""time""
""fullscreenenter"",""1"",""4229""
","
","
","""event"",""trial"",""time""
""fullscreenenter"",""1"",""4229""
","
","","","","","","1370.5","images/cactus5.png","","","learning","images/plants_choice2.png","images/plants_choice1.png","images/plants_choice3.png","[1,0,2]","1","0","1","images/plants_choice2.png","1","plants","","cactus","2","0"
"html-keyboard-response","226","877274","0.0-9.0-2.0-0.70","1498","2","2","""event"",""trial"",""time""
""fullscreenenter"",""1"",""4229""
","
","
","""event"",""trial"",""time""
""fullscreenenter"",""1"",""4229""
","
","","","","","","null","<div style=""font-size:60px;"">+</div>","null","","fixation","","","","","","","","","","","","","",""
"learning-trial","227","881277","0.0-9.0-2.0-1.70","1498","2","2","""event"",""trial"",""time""
""fullscreenenter"",""1"",""4229""
","
","
","""event"",""trial"",""time""
""fullscreenenter"",""1"",""4229""
","
","","","","","","2011.5999999046326","images/bush4.png","","","learning","images/plants_choice2.png","images/plants_choice1.png","images/plants_choice3.png","[1,0,2]","1","0","2","images/plants_choice1.png","1","plants","","bush","2","0"
"html-keyboard-response","228","881779","0.0-9.0-2.0-0.71","1498","2","2","""event"",""trial"",""time""
""fullscreenenter"",""1"",""4229""
","
","
","""event"",""trial"",""time""
""fullscreenenter"",""1"",""4229""
","
","","","","","","null","<div style=""font-size:60px;"">+</div>","null","","fixation","","","","","","","","","","","","","",""
"learning-trial","229","885783","0.0-9.0-2.0-1.71","1498","2","2","""event"",""trial"",""time""
""fullscreenenter"",""1"",""4229""
","
","
","""event"",""trial"",""time""
""fullscreenenter"",""1"",""4229""
","
","","","","","","2465.399999856949","images/bush1.png","","","learning","images/plants_choice3.png","images/plants_choice1.png","images/plants_choice2.png","[2,0,1]","0","1","2","images/plants_choice1.png","1","plants","","bush","2","0"
"html-button-response","230","889841","0.0-9.0-3.0","1498","2","2","""event"",""trial"",""time""
""fullscreenenter"",""1"",""4229""
","
","
","""event"",""trial"",""time""
""fullscreenenter"",""1"",""4229""
","
","","","","","","4056.2000000476837","<p> You have completed the round! <p> In this round, you earned -14 points! </p>","0","","break","","","","","","","","","","","","","",""
"html-button-response","231","891337","0.0-10.0","1498","2","2","""event"",""trial"",""time""
""fullscreenenter"",""1"",""4229""
","
","
","""event"",""trial"",""time""
""fullscreenenter"",""1"",""4229""
","
","","","","","","1491.2999999523163","<p> Now it's time to play another round. </p>","0","","transition_screen","","","","","","","","","","","","","",""
"preload","232","902772","0.0-11.0-0.0","1498","2","2","""event"",""trial"",""time""
""fullscreenenter"",""1"",""4229""
","
","
","""event"",""trial"",""time""
""fullscreenenter"",""1"",""4229""
","
","true","false","[]","[]","[]","","","","","","","","","","","","","","","","","","",""
"learning-instructions","233","917128","0.0-11.0-1.0-0.0","1498","2","2","""event"",""trial"",""time""
""fullscreenenter"",""1"",""4229""
","
","
","""event"",""trial"",""time""
""fullscreenenter"",""1"",""4229""
","
","","","","","","5781.299999952316","<p> Your goal in this round is to travel the world by putting fuel into different vehicles. </p><p> To travel, you will need to put fuel into many different vehicles. </p></div>","","0","instructions","","","","","","","","","","","","","",""
"learning-instructions","234","927488","0.0-11.0-1.0-0.1","1498","2","2","""event"",""trial"",""time""
""fullscreenenter"",""1"",""4229""
","
","
","""event"",""trial"",""time""
""fullscreenenter"",""1"",""4229""
","
","","","","","","1560.7999999523163","<p> On each turn, you will see a picture of one of your vehicles and three different types of fuel.  </p><p> You need to select which kind of fuel to use.  </p>","","0","instructions","","","","","","","","","","","","","",""
"learning-instructions","235","936078","0.0-11.0-1.0-0.2","1498","2","2","""event"",""trial"",""time""
""fullscreenenter"",""1"",""4229""
","
","
","""event"",""trial"",""time""
""fullscreenenter"",""1"",""4229""
","
","","","","","","1700.2999999523163","<p> You can select the fuel on the left by pressing 1, the fuel in the middle by pressing 2, and the fuel on the right by pressing 3. </p><br><div class=""choice-instructions-grid""> <div class=""choice-option""><img src=""images/vehicles_choice1.png"" class=""choice-option-img"" stage=""instructions"" position=""0"" ><div class=""choice-option-text""> Press ""1."" </div></div><div class=""choice-option""><img src=""images/vehicles_choice2.png"" class=""choice-option-img"" stage=""instructions"" position=""1"" ><div class=""choice-option-text""> Press ""2."" </div></div><div class=""choice-option""><img src=""images/vehicles_choice3.png"" class=""choice-option-img"" stage=""instructions"" position=""2"" ><div class=""choice-option-text""> Press ""3."" </div></div></div>","","0","instructions","","","","","","","","","","","","","",""
