"trial_type","trial_index","time_elapsed","internal_node_id","subject_id","condition","task_version","interactions","blur_events","focus_events","fullscreenenter_events","fullscreenexit_events","success","timeout","failed_images","failed_audio","failed_video","rt","stimulus","response","button_pressed","task_part","left_choice","middle_choice","right_choice","choice_positions","correct_response","correct_position","key_press","option_selected","points","task_block","correct","stim_cat","block_condition","block_number"
"pavlovia","0","19","0.0-0.0","1590","2","2","""event"",""trial"",""time""
""focus"",""0"",""1""
""fullscreenenter"",""1"",""2505""
","
","""event"",""trial"",""time""
""focus"",""0"",""1""
","""event"",""trial"",""time""
""fullscreenenter"",""1"",""2505""
","
","","","","","","","","","","","","","","","","","","","","","","","",""
"fullscreen","1","3222","0.0-1.0","1590","2","2","""event"",""trial"",""time""
""focus"",""0"",""1""
""fullscreenenter"",""1"",""2505""
","
","""event"",""trial"",""time""
""focus"",""0"",""1""
","""event"",""trial"",""time""
""fullscreenenter"",""1"",""2505""
","
","true","","","","","","","","","","","","","","","","","","","","","","",""
"preload","2","5695","0.0-2.0","1590","2","2","""event"",""trial"",""time""
""focus"",""0"",""1""
""fullscreenenter"",""1"",""2505""
","
","""event"",""trial"",""time""
""focus"",""0"",""1""
","""event"",""trial"",""time""
""fullscreenenter"",""1"",""2505""
","
","true","false","[]","[]","[]","","","","","","","","","","","","","","","","","","",""
"audio-keyboard-response","3","7566","0.0-3.0","1590","2","2","""event"",""trial"",""time""
""focus"",""0"",""1""
""fullscreenenter"",""1"",""2505""
","
","""event"",""trial"",""time""
""focus"",""0"",""1""
","""event"",""trial"",""time""
""fullscreenenter"",""1"",""2505""
","
","","","","","","1869.3333333333335","audio/beep_loop.wav"," ","","","","","","","","","","","","","","","",""
"audio-button-response","4","10429","0.0-4.0","1590","2","2","""event"",""trial"",""time""
""focus"",""0"",""1""
""fullscreenenter"",""1"",""2505""
","
","""event"",""trial"",""time""
""focus"",""0"",""1""
","""event"",""trial"",""time""
""fullscreenenter"",""1"",""2505""
","
","","","","","","2861","audio/shark.wav","4","","","","","","","","","","","","","","","",""
"audio-button-response","5","12619","0.0-5.0","1590","2","2","""event"",""trial"",""time""
""focus"",""0"",""1""
""fullscreenenter"",""1"",""2505""
""fullscreenexit"",""6"",""15772""
","
","""event"",""trial"",""time""
""focus"",""0"",""1""
","""event"",""trial"",""time""
""fullscreenenter"",""1"",""2505""
","""event"",""trial"",""time""
""fullscreenexit"",""6"",""15772""
","","","","","","1171","audio/turtle.wav","1","","","","","","","","","","","","","","","",""
"preload","6","16293","0.0-6.0","1590","2","2","""event"",""trial"",""time""
""focus"",""0"",""1""
""fullscreenenter"",""1"",""2505""
""fullscreenexit"",""6"",""15772""
","
","""event"",""trial"",""time""
""focus"",""0"",""1""
","""event"",""trial"",""time""
""fullscreenenter"",""1"",""2505""
","""event"",""trial"",""time""
""fullscreenexit"",""6"",""15772""
","true","false","[]","[]","[]","","","","","","","","","","","","","","","","","","",""
"html-keyboard-response","7","18414","0.0-7.0","1590","2","2","""event"",""trial"",""time""
""focus"",""0"",""1""
""fullscreenenter"",""1"",""2505""
""fullscreenexit"",""6"",""15772""
","
","""event"",""trial"",""time""
""focus"",""0"",""1""
","""event"",""trial"",""time""
""fullscreenenter"",""1"",""2505""
","""event"",""trial"",""time""
""fullscreenexit"",""6"",""15772""
","","","","","","2118","Welcome to the experiment. Press any key to begin and to advance the instructions."," ","","","","","","","","","","","","","","","",""
"learning-instructions","8","27246","0.0-8.0-0.0-0.0","1590","2","2","""event"",""trial"",""time""
""focus"",""0"",""1""
""fullscreenenter"",""1"",""2505""
""fullscreenexit"",""6"",""15772""
","
","""event"",""trial"",""time""
""focus"",""0"",""1""
","""event"",""trial"",""time""
""fullscreenenter"",""1"",""2505""
","""event"",""trial"",""time""
""fullscreenexit"",""6"",""15772""
","","","","","","1076","<p> Welcome! Today you are going to play 6 different rounds of a decision-making game. </p><p> Use the mouse to click next to continue. </p>","","0","instructions","","","","","","","","","","","","","",""
"learning-instructions","9","31028","0.0-8.0-0.0-0.1","1590","2","2","""event"",""trial"",""time""
""focus"",""0"",""1""
""fullscreenenter"",""1"",""2505""
""fullscreenexit"",""6"",""15772""
","
","""event"",""trial"",""time""
""focus"",""0"",""1""
","""event"",""trial"",""time""
""fullscreenenter"",""1"",""2505""
","""event"",""trial"",""time""
""fullscreenexit"",""6"",""15772""
","","","","","","758","<p> You will start with a practice round to learn the rules. </p>","","0","instructions","","","","","","","","","","","","","",""
"learning-instructions","10","39435","0.0-8.0-0.0-0.2","1590","2","2","""event"",""trial"",""time""
""focus"",""0"",""1""
""fullscreenenter"",""1"",""2505""
""fullscreenexit"",""6"",""15772""
","
","""event"",""trial"",""time""
""focus"",""0"",""1""
","""event"",""trial"",""time""
""fullscreenenter"",""1"",""2505""
","""event"",""trial"",""time""
""fullscreenexit"",""6"",""15772""
","","","","","","636","<p> Your goal in this round is to deliver sports equipment to three different parks. </p><p> You will need to deliver many types of equipment. </p></div>","","0","instructions","","","","","","","","","","","","","",""
"learning-instructions","11","48564","0.0-8.0-0.0-0.3","1590","2","2","""event"",""trial"",""time""
""focus"",""0"",""1""
""fullscreenenter"",""1"",""2505""
""fullscreenexit"",""6"",""15772""
","
","""event"",""trial"",""time""
""focus"",""0"",""1""
","""event"",""trial"",""time""
""fullscreenenter"",""1"",""2505""
","""event"",""trial"",""time""
""fullscreenexit"",""6"",""15772""
","","","","","","626","<p> On each turn, you will see one piece of sports equipment and three different parks.  </p><p> You need to select which park to deliver the equipment to.  </p>","","0","instructions","","","","","","","","","","","","","",""
"learning-instructions","12","62534","0.0-8.0-0.0-0.4","1590","2","2","""event"",""trial"",""time""
""focus"",""0"",""1""
""fullscreenenter"",""1"",""2505""
""fullscreenexit"",""6"",""15772""
","
","""event"",""trial"",""time""
""focus"",""0"",""1""
","""event"",""trial"",""time""
""fullscreenenter"",""1"",""2505""
","""event"",""trial"",""time""
""fullscreenexit"",""6"",""15772""
","","","","","","674","<p> You can select the park on the left by pressing the '1' key on your keyboard. <br>You can select the park in the middle by pressing the '2' key on your keyboard. <br>You can select the park on the right by pressing the '3' key on your keyboard.  </p><br><div class=""choice-instructions-grid""> <div class=""choice-option""><img src=""images/park1.png"" class=""choice-option-img"" stage=""instructions"" position=""0"" ><div class=""choice-option-text""> Press ""1."" </div></div><div class=""choice-option""><img src=""images/park2.png"" class=""choice-option-img"" stage=""instructions"" position=""1"" ><div class=""choice-option-text""> Press ""2."" </div></div><div class=""choice-option""><img src=""images/park3.png"" class=""choice-option-img"" stage=""instructions"" position=""2"" ><div class=""choice-option-text""> Press ""3."" </div></div></div>","","0","instructions","","","","","","","","","","","","","",""
"learning-instructions","13","68430","0.0-8.0-0.0-0.5","1590","2","2","""event"",""trial"",""time""
""focus"",""0"",""1""
""fullscreenenter"",""1"",""2505""
""fullscreenexit"",""6"",""15772""
","
","""event"",""trial"",""time""
""focus"",""0"",""1""
","""event"",""trial"",""time""
""fullscreenenter"",""1"",""2505""
","""event"",""trial"",""time""
""fullscreenexit"",""6"",""15772""
","","","","","","491","<p> If the kids in the park you chose like the equipment, they will be very happy! </p><div style='float: center;'><img src='images/check.png' width = '200' height = '200'></img>","","0","instructions","","","","","","","","","","","","","",""
"learning-instructions","14","74567","0.0-8.0-0.0-0.6","1590","2","2","""event"",""trial"",""time""
""focus"",""0"",""1""
""fullscreenenter"",""1"",""2505""
""fullscreenexit"",""6"",""15772""
","
","""event"",""trial"",""time""
""focus"",""0"",""1""
","""event"",""trial"",""time""
""fullscreenenter"",""1"",""2505""
","""event"",""trial"",""time""
""fullscreenexit"",""6"",""15772""
","","","","","","527","<p> But, if the kids in the park you chose do not like the equipment, they will be sad. </p><div style='float: center;'><img src='images/x.png' width = '200' height = '200'></img>","","0","instructions","","","","","","","","","","","","","",""
"learning-instructions","15","81541","0.0-8.0-0.0-0.7","1590","2","2","""event"",""trial"",""time""
""focus"",""0"",""1""
""fullscreenenter"",""1"",""2505""
""fullscreenexit"",""6"",""15772""
","
","""event"",""trial"",""time""
""focus"",""0"",""1""
","""event"",""trial"",""time""
""fullscreenenter"",""1"",""2505""
","""event"",""trial"",""time""
""fullscreenexit"",""6"",""15772""
","","","","","","520","<p> Importantly, the kids in each park like some pieces of sports equipment more than others. </p>","","0","instructions","","","","","","","","","","","","","",""
"learning-instructions","16","88349","0.0-8.0-0.0-0.8","1590","2","2","""event"",""trial"",""time""
""focus"",""0"",""1""
""fullscreenenter"",""1"",""2505""
""fullscreenexit"",""6"",""15772""
","
","""event"",""trial"",""time""
""focus"",""0"",""1""
","""event"",""trial"",""time""
""fullscreenenter"",""1"",""2505""
","""event"",""trial"",""time""
""fullscreenexit"",""6"",""15772""
","","","","","","740","<p> If you choose the best park for each piece of equipment, the kids there will usually be happy. </p>","","0","instructions","","","","","","","","","","","","","",""
"learning-instructions","17","95466","0.0-8.0-0.0-0.9","1590","2","2","""event"",""trial"",""time""
""focus"",""0"",""1""
""fullscreenenter"",""1"",""2505""
""fullscreenexit"",""6"",""15772""
","
","""event"",""trial"",""time""
""focus"",""0"",""1""
","""event"",""trial"",""time""
""fullscreenenter"",""1"",""2505""
","""event"",""trial"",""time""
""fullscreenexit"",""6"",""15772""
","","","","","","447","<p> However, even if you choose the best park for the equipment, the kids may sometimes be sad. </p>","","0","instructions","","","","","","","","","","","","","",""
"learning-instructions","18","103684","0.0-8.0-0.0-0.10","1590","2","2","""event"",""trial"",""time""
""focus"",""0"",""1""
""fullscreenenter"",""1"",""2505""
""fullscreenexit"",""6"",""15772""
","
","""event"",""trial"",""time""
""focus"",""0"",""1""
","""event"",""trial"",""time""
""fullscreenenter"",""1"",""2505""
","""event"",""trial"",""time""
""fullscreenexit"",""6"",""15772""
","","","","","","974","<p> Similarly, even if you choose the <i>wrong</i> park for the equipment, the kids may still be happy sometimes.","","0","instructions","","","","","","","","","","","","","",""
"learning-instructions","19","109187","0.0-8.0-0.0-0.11","1590","2","2","""event"",""trial"",""time""
""focus"",""0"",""1""
""fullscreenenter"",""1"",""2505""
""fullscreenexit"",""6"",""15772""
","
","""event"",""trial"",""time""
""focus"",""0"",""1""
","""event"",""trial"",""time""
""fullscreenenter"",""1"",""2505""
","""event"",""trial"",""time""
""fullscreenexit"",""6"",""15772""
","","","","","","438","<p> For example, the best park for this soccer ball is this one.<div style='float: center;'><img src='images/i1.png' width = '500' height = '268'></img>","","0","instructions","","","","","","","","","","","","","",""
"learning-instructions","20","115275","0.0-8.0-0.0-0.12","1590","2","2","""event"",""trial"",""time""
""focus"",""0"",""1""
""fullscreenenter"",""1"",""2505""
""fullscreenexit"",""6"",""15772""
","
","""event"",""trial"",""time""
""focus"",""0"",""1""
","""event"",""trial"",""time""
""fullscreenenter"",""1"",""2505""
","""event"",""trial"",""time""
""fullscreenexit"",""6"",""15772""
","","","","","","766","<p> Let's see what happens if you choose this park for the soccer ball five times.","","0","instructions","","","","","","","","","","","","","",""
"learning-instructions","21","117979","0.0-8.0-0.0-0.13","1590","2","2","""event"",""trial"",""time""
""focus"",""0"",""1""
""fullscreenenter"",""1"",""2505""
""fullscreenexit"",""6"",""15772""
","
","""event"",""trial"",""time""
""focus"",""0"",""1""
","""event"",""trial"",""time""
""fullscreenenter"",""1"",""2505""
","""event"",""trial"",""time""
""fullscreenexit"",""6"",""15772""
","","","","","","520","<p> The kids are happy.<div style='float: left;'><img src='images/i2.png' width = '640' height = '360'></img>","","0","instructions","","","","","","","","","","","","","",""
"learning-instructions","22","121885","0.0-8.0-0.0-0.14","1590","2","2","""event"",""trial"",""time""
""focus"",""0"",""1""
""fullscreenenter"",""1"",""2505""
""fullscreenexit"",""6"",""15772""
","
","""event"",""trial"",""time""
""focus"",""0"",""1""
","""event"",""trial"",""time""
""fullscreenenter"",""1"",""2505""
","""event"",""trial"",""time""
""fullscreenexit"",""6"",""15772""
","","","","","","1713","<p> The kids are happy.<div style='float: left;'><img src='images/i3.png' width = '640' height = '360'></img>","","0","instructions","","","","","","","","","","","","","",""
"learning-instructions","23","124782","0.0-8.0-0.0-0.15","1590","2","2","""event"",""trial"",""time""
""focus"",""0"",""1""
""fullscreenenter"",""1"",""2505""
""fullscreenexit"",""6"",""15772""
","
","""event"",""trial"",""time""
""focus"",""0"",""1""
","""event"",""trial"",""time""
""fullscreenenter"",""1"",""2505""
","""event"",""trial"",""time""
""fullscreenexit"",""6"",""15772""
","","","","","","721","<p> The kids are happy.<div style='float: left;'><img src='images/i4.png' width = '640' height = '360'></img>","","0","instructions","","","","","","","","","","","","","",""
"learning-instructions","24","127362","0.0-8.0-0.0-0.16","1590","2","2","""event"",""trial"",""time""
""focus"",""0"",""1""
""fullscreenenter"",""1"",""2505""
""fullscreenexit"",""6"",""15772""
","
","""event"",""trial"",""time""
""focus"",""0"",""1""
","""event"",""trial"",""time""
""fullscreenenter"",""1"",""2505""
","""event"",""trial"",""time""
""fullscreenexit"",""6"",""15772""
","","","","","","351","<p> The kids are sad.<div style='float: left;'><img src='images/i5.png' width = '640' height = '360'></img>","","0","instructions","","","","","","","","","","","","","",""
"learning-instructions","25","134307","0.0-8.0-0.0-0.17","1590","2","2","""event"",""trial"",""time""
""focus"",""0"",""1""
""fullscreenenter"",""1"",""2505""
""fullscreenexit"",""6"",""15772""
","
","""event"",""trial"",""time""
""focus"",""0"",""1""
","""event"",""trial"",""time""
""fullscreenenter"",""1"",""2505""
","""event"",""trial"",""time""
""fullscreenexit"",""6"",""15772""
","","","","","","4767","<p> The kids are happy.<div style='float: left;'><img src='images/i6.png' width = '640' height = '360'></img>","","0","instructions","","","","","","","","","","","","","",""
"learning-instructions","26","142757","0.0-8.0-0.0-0.18","1590","2","2","""event"",""trial"",""time""
""focus"",""0"",""1""
""fullscreenenter"",""1"",""2505""
""fullscreenexit"",""6"",""15772""
","
","""event"",""trial"",""time""
""focus"",""0"",""1""
","""event"",""trial"",""time""
""fullscreenenter"",""1"",""2505""
","""event"",""trial"",""time""
""fullscreenexit"",""6"",""15772""
","","","","","","1157","<p> As you can see, selecting that park for the soccer ball made the kids happy most of the time, but not all the time.","","0","instructions","","","","","","","","","","","","","",""
"learning-instructions","27","149167","0.0-8.0-0.0-0.19","1590","2","2","""event"",""trial"",""time""
""focus"",""0"",""1""
""fullscreenenter"",""1"",""2505""
""fullscreenexit"",""6"",""15772""
","
","""event"",""trial"",""time""
""focus"",""0"",""1""
","""event"",""trial"",""time""
""fullscreenenter"",""1"",""2505""
","""event"",""trial"",""time""
""fullscreenexit"",""6"",""15772""
","","","","","","386","<p> Now let's see what happens if you choose a DIFFERENT park for the soccer ball 5 times.","","0","instructions","","","","","","","","","","","","","",""
"learning-instructions","28","151796","0.0-8.0-0.0-0.20","1590","2","2","""event"",""trial"",""time""
""focus"",""0"",""1""
""fullscreenenter"",""1"",""2505""
""fullscreenexit"",""6"",""15772""
","
","""event"",""trial"",""time""
""focus"",""0"",""1""
","""event"",""trial"",""time""
""fullscreenenter"",""1"",""2505""
","""event"",""trial"",""time""
""fullscreenexit"",""6"",""15772""
","","","","","","416","<p> The kids are sad.<div style='float: left;'><img src='images/i7.png' width = '640' height = '360'></img>","","0","instructions","","","","","","","","","","","","","",""
"learning-instructions","29","154377","0.0-8.0-0.0-0.21","1590","2","2","""event"",""trial"",""time""
""focus"",""0"",""1""
""fullscreenenter"",""1"",""2505""
""fullscreenexit"",""6"",""15772""
","
","""event"",""trial"",""time""
""focus"",""0"",""1""
","""event"",""trial"",""time""
""fullscreenenter"",""1"",""2505""
","""event"",""trial"",""time""
""fullscreenexit"",""6"",""15772""
","","","","","","356","<p> The kids are sad.<div style='float: left;'><img src='images/i8.png' width = '640' height = '360'></img>","","0","instructions","","","","","","","","","","","","","",""
"learning-instructions","30","157122","0.0-8.0-0.0-0.22","1590","2","2","""event"",""trial"",""time""
""focus"",""0"",""1""
""fullscreenenter"",""1"",""2505""
""fullscreenexit"",""6"",""15772""
","
","""event"",""trial"",""time""
""focus"",""0"",""1""
","""event"",""trial"",""time""
""fullscreenenter"",""1"",""2505""
","""event"",""trial"",""time""
""fullscreenexit"",""6"",""15772""
","","","","","","551","<p> The kids are happy.<div style='float: left;'><img src='images/i9.png' width = '640' height = '360'></img>","","0","instructions","","","","","","","","","","","","","",""
"learning-instructions","31","159710","0.0-8.0-0.0-0.23","1590","2","2","""event"",""trial"",""time""
""focus"",""0"",""1""
""fullscreenenter"",""1"",""2505""
""fullscreenexit"",""6"",""15772""
","
","""event"",""trial"",""time""
""focus"",""0"",""1""
","""event"",""trial"",""time""
""fullscreenenter"",""1"",""2505""
","""event"",""trial"",""time""
""fullscreenexit"",""6"",""15772""
","","","","","","370","<p> The kids are sad.<div style='float: left;'><img src='images/i10.png' width = '640' height = '360'></img>","","0","instructions","","","","","","","","","","","","","",""
"learning-instructions","32","163793","0.0-8.0-0.0-0.24","1590","2","2","""event"",""trial"",""time""
""focus"",""0"",""1""
""fullscreenenter"",""1"",""2505""
""fullscreenexit"",""6"",""15772""
","
","""event"",""trial"",""time""
""focus"",""0"",""1""
","""event"",""trial"",""time""
""fullscreenenter"",""1"",""2505""
","""event"",""trial"",""time""
""fullscreenexit"",""6"",""15772""
","","","","","","1862","<p> The kids are sad.<div style='float: left;'><img src='images/i11.png' width = '640' height = '360'></img>","","0","instructions","","","","","","","","","","","","","",""
"learning-instructions","33","172866","0.0-8.0-0.0-0.25","1590","2","2","""event"",""trial"",""time""
""focus"",""0"",""1""
""fullscreenenter"",""1"",""2505""
""fullscreenexit"",""6"",""15772""
","
","""event"",""trial"",""time""
""focus"",""0"",""1""
","""event"",""trial"",""time""
""fullscreenenter"",""1"",""2505""
","""event"",""trial"",""time""
""fullscreenexit"",""6"",""15772""
","","","","","","937","<p> As you can see, selecting the wrong park for the soccer ball made the kids sad most of the time, but not all the time.","","0","instructions","","","","","","","","","","","","","",""
"learning-instructions","34","182605","0.0-8.0-0.0-0.26","1590","2","2","""event"",""trial"",""time""
""focus"",""0"",""1""
""fullscreenenter"",""1"",""2505""
""fullscreenexit"",""6"",""15772""
","
","""event"",""trial"",""time""
""focus"",""0"",""1""
","""event"",""trial"",""time""
""fullscreenenter"",""1"",""2505""
","""event"",""trial"",""time""
""fullscreenexit"",""6"",""15772""
","","","","","","615","<p> The different pieces of equipment belong in different parks. You need to try to learn which is the best park for each piece of equipment.","","0","instructions","","","","","","","","","","","","","",""
"learning-instructions","35","199411","0.0-8.0-0.0-0.27","1590","2","2","""event"",""trial"",""time""
""focus"",""0"",""1""
""fullscreenenter"",""1"",""2505""
""fullscreenexit"",""6"",""15772""
","
","""event"",""trial"",""time""
""focus"",""0"",""1""
","""event"",""trial"",""time""
""fullscreenenter"",""1"",""2505""
","""event"",""trial"",""time""
""fullscreenexit"",""6"",""15772""
","","","","","","411","<p> Try to choose the best park for each piece of equipment, because you will <b> WIN </b> 1 point for each time you make the kids happy and <b>LOSE</b> 1 point for each time you make them sad. </p><p> Remember, if you make the best choice, you will win 1 point most of the time, but not all the time. </p>","","0","instructions","","","","","","","","","","","","","",""
"learning-instructions","36","231853","0.0-8.0-0.0-0.28","1590","2","2","""event"",""trial"",""time""
""focus"",""0"",""1""
""fullscreenenter"",""1"",""2505""
""fullscreenexit"",""6"",""15772""
","
","""event"",""trial"",""time""
""focus"",""0"",""1""
","""event"",""trial"",""time""
""fullscreenenter"",""1"",""2505""
","""event"",""trial"",""time""
""fullscreenexit"",""6"",""15772""
","","","","","","26941","<p> This is just a practice round, but in the real game, your bonus payment will depend on your total number of points.","","0","instructions","","","","","","","","","","","","","",""
"learning-instructions","37","242565","0.0-8.0-0.0-0.29","1590","2","2","""event"",""trial"",""time""
""focus"",""0"",""1""
""fullscreenenter"",""1"",""2505""
""fullscreenexit"",""6"",""15772""
","
","""event"",""trial"",""time""
""focus"",""0"",""1""
","""event"",""trial"",""time""
""fullscreenenter"",""1"",""2505""
","""event"",""trial"",""time""
""fullscreenexit"",""6"",""15772""
","","","","","","375","<p> The position where each park appears will change throughout the game. </p><p> The position where the park appears <i> does not </i> influence how likely the kids are to be happy or sad. </p>","","0","instructions","","","","","","","","","","","","","",""
"learning-instructions","38","254309","0.0-8.0-0.0-0.30","1590","2","2","""event"",""trial"",""time""
""focus"",""0"",""1""
""fullscreenenter"",""1"",""2505""
""fullscreenexit"",""6"",""15772""
","
","""event"",""trial"",""time""
""focus"",""0"",""1""
","""event"",""trial"",""time""
""fullscreenenter"",""1"",""2505""
","""event"",""trial"",""time""
""fullscreenexit"",""6"",""15772""
","","","","","","1027","<p> You will have 4 seconds to make each choice. Try to respond before time runs out! </p><p> You will lose 1 point each time you do not make a response. </p>","","0","instructions","","","","","","","","","","","","","",""
"learning-instructions","39","263423","0.0-8.0-0.0-0.31","1590","2","2","""event"",""trial"",""time""
""focus"",""0"",""1""
""fullscreenenter"",""1"",""2505""
""fullscreenexit"",""6"",""15772""
","
","""event"",""trial"",""time""
""focus"",""0"",""1""
","""event"",""trial"",""time""
""fullscreenenter"",""1"",""2505""
","""event"",""trial"",""time""
""fullscreenexit"",""6"",""15772""
","","","","","","2292","<p> Remember, you should use the 1, 2, and 3 keys to select the park for each piece of equipment. </p><br><div class=""choice-instructions-grid""> <div class=""choice-option""><img src=""images/park1.png"" class=""choice-option-img"" stage=""instructions"" position=""0"" ><div class=""choice-option-text""> Press ""1."" </div></div><div class=""choice-option""><img src=""images/park2.png"" class=""choice-option-img"" stage=""instructions"" position=""1"" ><div class=""choice-option-text""> Press ""2."" </div></div><div class=""choice-option""><img src=""images/park3.png"" class=""choice-option-img"" stage=""instructions"" position=""2"" ><div class=""choice-option-text""> Press ""3."" </div></div></div>","","0","instructions","","","","","","","","","","","","","",""
"html-button-response","40","265627","0.0-8.0-1.0","1590","2","2","""event"",""trial"",""time""
""focus"",""0"",""1""
""fullscreenenter"",""1"",""2505""
""fullscreenexit"",""6"",""15772""
","
","""event"",""trial"",""time""
""focus"",""0"",""1""
","""event"",""trial"",""time""
""fullscreenenter"",""1"",""2505""
","""event"",""trial"",""time""
""fullscreenexit"",""6"",""15772""
","","","","","","2085","<p> Ready to practice? </p>","0","","","","","","","","","","","","","","","",""
"html-keyboard-response","41","266256","0.0-8.0-2.0-0.0","1590","2","2","""event"",""trial"",""time""
""focus"",""0"",""1""
""fullscreenenter"",""1"",""2505""
""fullscreenexit"",""6"",""15772""
","
","""event"",""trial"",""time""
""focus"",""0"",""1""
","""event"",""trial"",""time""
""fullscreenenter"",""1"",""2505""
","""event"",""trial"",""time""
""fullscreenexit"",""6"",""15772""
","","","","","","null","<div style=""font-size:60px;"">+</div>","null","","fixation","","","","","","","","","","","","","",""
"learning-trial","42","270260","0.0-8.0-2.0-1.0","1590","2","2","""event"",""trial"",""time""
""focus"",""0"",""1""
""fullscreenenter"",""1"",""2505""
""fullscreenexit"",""6"",""15772""
","
","""event"",""trial"",""time""
""focus"",""0"",""1""
","""event"",""trial"",""time""
""fullscreenenter"",""1"",""2505""
","""event"",""trial"",""time""
""fullscreenexit"",""6"",""15772""
","","","","","","1308","images/ball4.png","","","practice","images/park2.png","images/park1.png","images/park3.png","[1,0,2]","2","2","2","images/park1.png","-1","practice","","","",""
"html-keyboard-response","43","270776","0.0-8.0-2.0-0.1","1590","2","2","""event"",""trial"",""time""
""focus"",""0"",""1""
""fullscreenenter"",""1"",""2505""
""fullscreenexit"",""6"",""15772""
","
","""event"",""trial"",""time""
""focus"",""0"",""1""
","""event"",""trial"",""time""
""fullscreenenter"",""1"",""2505""
","""event"",""trial"",""time""
""fullscreenexit"",""6"",""15772""
","","","","","","null","<div style=""font-size:60px;"">+</div>","null","","fixation","","","","","","","","","","","","","",""
"learning-trial","44","274780","0.0-8.0-2.0-1.1","1590","2","2","""event"",""trial"",""time""
""focus"",""0"",""1""
""fullscreenenter"",""1"",""2505""
""fullscreenexit"",""6"",""15772""
","
","""event"",""trial"",""time""
""focus"",""0"",""1""
","""event"",""trial"",""time""
""fullscreenenter"",""1"",""2505""
","""event"",""trial"",""time""
""fullscreenexit"",""6"",""15772""
","","","","","","2598","images/racket1.png","","","practice","images/park2.png","images/park3.png","images/park1.png","[1,2,0]","1","0","2","images/park3.png","-1","practice","","","",""
"html-keyboard-response","45","275299","0.0-8.0-2.0-0.2","1590","2","2","""event"",""trial"",""time""
""focus"",""0"",""1""
""fullscreenenter"",""1"",""2505""
""fullscreenexit"",""6"",""15772""
","
","""event"",""trial"",""time""
""focus"",""0"",""1""
","""event"",""trial"",""time""
""fullscreenenter"",""1"",""2505""
","""event"",""trial"",""time""
""fullscreenexit"",""6"",""15772""
","","","","","","null","<div style=""font-size:60px;"">+</div>","null","","fixation","","","","","","","","","","","","","",""
"learning-trial","46","279321","0.0-8.0-2.0-1.2","1590","2","2","""event"",""trial"",""time""
""focus"",""0"",""1""
""fullscreenenter"",""1"",""2505""
""fullscreenexit"",""6"",""15772""
","
","""event"",""trial"",""time""
""focus"",""0"",""1""
","""event"",""trial"",""time""
""fullscreenenter"",""1"",""2505""
","""event"",""trial"",""time""
""fullscreenexit"",""6"",""15772""
","","","","","","3154","images/racket3.png","","","practice","images/park3.png","images/park1.png","images/park2.png","[2,0,1]","0","1","1","images/park3.png","-1","practice","","","",""
"html-keyboard-response","47","279840","0.0-8.0-2.0-0.3","1590","2","2","""event"",""trial"",""time""
""focus"",""0"",""1""
""fullscreenenter"",""1"",""2505""
""fullscreenexit"",""6"",""15772""
","
","""event"",""trial"",""time""
""focus"",""0"",""1""
","""event"",""trial"",""time""
""fullscreenenter"",""1"",""2505""
","""event"",""trial"",""time""
""fullscreenexit"",""6"",""15772""
","","","","","","null","<div style=""font-size:60px;"">+</div>","null","","fixation","","","","","","","","","","","","","",""
"learning-trial","48","283860","0.0-8.0-2.0-1.3","1590","2","2","""event"",""trial"",""time""
""focus"",""0"",""1""
""fullscreenenter"",""1"",""2505""
""fullscreenexit"",""6"",""15772""
","
","""event"",""trial"",""time""
""focus"",""0"",""1""
","""event"",""trial"",""time""
""fullscreenenter"",""1"",""2505""
","""event"",""trial"",""time""
""fullscreenexit"",""6"",""15772""
","","","","","","3494","images/ball3.png","","","practice","images/park1.png","images/park3.png","images/park2.png","[0,2,1]","0","0","2","images/park3.png","-1","practice","","","",""
"html-keyboard-response","49","284380","0.0-8.0-2.0-0.4","1590","2","2","""event"",""trial"",""time""
""focus"",""0"",""1""
""fullscreenenter"",""1"",""2505""
""fullscreenexit"",""6"",""15772""
","
","""event"",""trial"",""time""
""focus"",""0"",""1""
","""event"",""trial"",""time""
""fullscreenenter"",""1"",""2505""
","""event"",""trial"",""time""
""fullscreenexit"",""6"",""15772""
","","","","","","null","<div style=""font-size:60px;"">+</div>","null","","fixation","","","","","","","","","","","","","",""
"learning-trial","50","288391","0.0-8.0-2.0-1.4","1590","2","2","""event"",""trial"",""time""
""focus"",""0"",""1""
""fullscreenenter"",""1"",""2505""
""fullscreenexit"",""6"",""15772""
","
","""event"",""trial"",""time""
""focus"",""0"",""1""
","""event"",""trial"",""time""
""fullscreenenter"",""1"",""2505""
","""event"",""trial"",""time""
""fullscreenexit"",""6"",""15772""
","","","","","","1464","images/racket4.png","","","practice","images/park3.png","images/park1.png","images/park2.png","[2,0,1]","2","0","1","images/park3.png","1","practice","","","",""
"html-keyboard-response","51","288905","0.0-8.0-2.0-0.5","1590","2","2","""event"",""trial"",""time""
""focus"",""0"",""1""
""fullscreenenter"",""1"",""2505""
""fullscreenexit"",""6"",""15772""
","
","""event"",""trial"",""time""
""focus"",""0"",""1""
","""event"",""trial"",""time""
""fullscreenenter"",""1"",""2505""
","""event"",""trial"",""time""
""fullscreenexit"",""6"",""15772""
","","","","","","null","<div style=""font-size:60px;"">+</div>","null","","fixation","","","","","","","","","","","","","",""
"learning-trial","52","292910","0.0-8.0-2.0-1.5","1590","2","2","""event"",""trial"",""time""
""focus"",""0"",""1""
""fullscreenenter"",""1"",""2505""
""fullscreenexit"",""6"",""15772""
","
","""event"",""trial"",""time""
""focus"",""0"",""1""
","""event"",""trial"",""time""
""fullscreenenter"",""1"",""2505""
","""event"",""trial"",""time""
""fullscreenexit"",""6"",""15772""
","","","","","","2510","images/ball3.png","","","practice","images/park2.png","images/park1.png","images/park3.png","[1,0,2]","0","1","2","images/park1.png","1","practice","","","",""
"html-keyboard-response","53","293430","0.0-8.0-2.0-0.6","1590","2","2","""event"",""trial"",""time""
""focus"",""0"",""1""
""fullscreenenter"",""1"",""2505""
""fullscreenexit"",""6"",""15772""
","
","""event"",""trial"",""time""
""focus"",""0"",""1""
","""event"",""trial"",""time""
""fullscreenenter"",""1"",""2505""
","""event"",""trial"",""time""
""fullscreenexit"",""6"",""15772""
","","","","","","null","<div style=""font-size:60px;"">+</div>","null","","fixation","","","","","","","","","","","","","",""
"learning-trial","54","297451","0.0-8.0-2.0-1.6","1590","2","2","""event"",""trial"",""time""
""focus"",""0"",""1""
""fullscreenenter"",""1"",""2505""
""fullscreenexit"",""6"",""15772""
","
","""event"",""trial"",""time""
""focus"",""0"",""1""
","""event"",""trial"",""time""
""fullscreenenter"",""1"",""2505""
","""event"",""trial"",""time""
""fullscreenexit"",""6"",""15772""
","","","","","","1343","images/ball2.png","","","practice","images/park1.png","images/park3.png","images/park2.png","[0,2,1]","1","2","1","images/park1.png","-1","practice","","","",""
"html-keyboard-response","55","297970","0.0-8.0-2.0-0.7","1590","2","2","""event"",""trial"",""time""
""focus"",""0"",""1""
""fullscreenenter"",""1"",""2505""
""fullscreenexit"",""6"",""15772""
","
","""event"",""trial"",""time""
""focus"",""0"",""1""
","""event"",""trial"",""time""
""fullscreenenter"",""1"",""2505""
","""event"",""trial"",""time""
""fullscreenexit"",""6"",""15772""
","","","","","","null","<div style=""font-size:60px;"">+</div>","null","","fixation","","","","","","","","","","","","","",""
"learning-trial","56","301990","0.0-8.0-2.0-1.7","1590","2","2","""event"",""trial"",""time""
""focus"",""0"",""1""
""fullscreenenter"",""1"",""2505""
""fullscreenexit"",""6"",""15772""
","
","""event"",""trial"",""time""
""focus"",""0"",""1""
","""event"",""trial"",""time""
""fullscreenenter"",""1"",""2505""
","""event"",""trial"",""time""
""fullscreenexit"",""6"",""15772""
","","","","","","1254","images/ball4.png","","","practice","images/park3.png","images/park1.png","images/park2.png","[2,0,1]","2","0","2","images/park1.png","-1","practice","","","",""
"html-keyboard-response","57","302499","0.0-8.0-2.0-0.8","1590","2","2","""event"",""trial"",""time""
""focus"",""0"",""1""
""fullscreenenter"",""1"",""2505""
""fullscreenexit"",""6"",""15772""
","
","""event"",""trial"",""time""
""focus"",""0"",""1""
","""event"",""trial"",""time""
""fullscreenenter"",""1"",""2505""
","""event"",""trial"",""time""
""fullscreenexit"",""6"",""15772""
","","","","","","null","<div style=""font-size:60px;"">+</div>","null","","fixation","","","","","","","","","","","","","",""
"learning-trial","58","306520","0.0-8.0-2.0-1.8","1590","2","2","""event"",""trial"",""time""
""focus"",""0"",""1""
""fullscreenenter"",""1"",""2505""
""fullscreenexit"",""6"",""15772""
","
","""event"",""trial"",""time""
""focus"",""0"",""1""
","""event"",""trial"",""time""
""fullscreenenter"",""1"",""2505""
","""event"",""trial"",""time""
""fullscreenexit"",""6"",""15772""
","","","","","","1718","images/racket1.png","","","practice","images/park3.png","images/park2.png","images/park1.png","[2,1,0]","1","1","1","images/park3.png","-1","practice","","","",""
"html-keyboard-response","59","307040","0.0-8.0-2.0-0.9","1590","2","2","""event"",""trial"",""time""
""focus"",""0"",""1""
""fullscreenenter"",""1"",""2505""
""fullscreenexit"",""6"",""15772""
","
","""event"",""trial"",""time""
""focus"",""0"",""1""
","""event"",""trial"",""time""
""fullscreenenter"",""1"",""2505""
","""event"",""trial"",""time""
""fullscreenexit"",""6"",""15772""
","","","","","","null","<div style=""font-size:60px;"">+</div>","null","","fixation","","","","","","","","","","","","","",""
"learning-trial","60","311051","0.0-8.0-2.0-1.9","1590","2","2","""event"",""trial"",""time""
""focus"",""0"",""1""
""fullscreenenter"",""1"",""2505""
""fullscreenexit"",""6"",""15772""
","
","""event"",""trial"",""time""
""focus"",""0"",""1""
","""event"",""trial"",""time""
""fullscreenenter"",""1"",""2505""
","""event"",""trial"",""time""
""fullscreenexit"",""6"",""15772""
","","","","","","1693","images/racket3.png","","","practice","images/park2.png","images/park3.png","images/park1.png","[1,2,0]","0","2","2","images/park3.png","-1","practice","","","",""
"html-keyboard-response","61","311560","0.0-8.0-2.0-0.10","1590","2","2","""event"",""trial"",""time""
""focus"",""0"",""1""
""fullscreenenter"",""1"",""2505""
""fullscreenexit"",""6"",""15772""
","
","""event"",""trial"",""time""
""focus"",""0"",""1""
","""event"",""trial"",""time""
""fullscreenenter"",""1"",""2505""
","""event"",""trial"",""time""
""fullscreenexit"",""6"",""15772""
","","","","","","null","<div style=""font-size:60px;"">+</div>","null","","fixation","","","","","","","","","","","","","",""
"learning-trial","62","315581","0.0-8.0-2.0-1.10","1590","2","2","""event"",""trial"",""time""
""focus"",""0"",""1""
""fullscreenenter"",""1"",""2505""
""fullscreenexit"",""6"",""15772""
","
","""event"",""trial"",""time""
""focus"",""0"",""1""
","""event"",""trial"",""time""
""fullscreenenter"",""1"",""2505""
","""event"",""trial"",""time""
""fullscreenexit"",""6"",""15772""
","","","","","","995","images/racket4.png","","","practice","images/park3.png","images/park2.png","images/park1.png","[2,1,0]","2","0","1","images/park3.png","1","practice","","","",""
"html-keyboard-response","63","316090","0.0-8.0-2.0-0.11","1590","2","2","""event"",""trial"",""time""
""focus"",""0"",""1""
""fullscreenenter"",""1"",""2505""
""fullscreenexit"",""6"",""15772""
","
","""event"",""trial"",""time""
""focus"",""0"",""1""
","""event"",""trial"",""time""
""fullscreenenter"",""1"",""2505""
","""event"",""trial"",""time""
""fullscreenexit"",""6"",""15772""
","","","","","","null","<div style=""font-size:60px;"">+</div>","null","","fixation","","","","","","","","","","","","","",""
"learning-trial","64","320111","0.0-8.0-2.0-1.11","1590","2","2","""event"",""trial"",""time""
""focus"",""0"",""1""
""fullscreenenter"",""1"",""2505""
""fullscreenexit"",""6"",""15772""
","
","""event"",""trial"",""time""
""focus"",""0"",""1""
","""event"",""trial"",""time""
""fullscreenenter"",""1"",""2505""
","""event"",""trial"",""time""
""fullscreenexit"",""6"",""15772""
","","","","","","1413","images/ball2.png","","","practice","images/park2.png","images/park3.png","images/park1.png","[1,2,0]","1","0","3","images/park1.png","-1","practice","","","",""
"html-button-response","65","322372","0.0-8.0-3.0","1590","2","2","""event"",""trial"",""time""
""focus"",""0"",""1""
""fullscreenenter"",""1"",""2505""
""fullscreenexit"",""6"",""15772""
","
","""event"",""trial"",""time""
""focus"",""0"",""1""
","""event"",""trial"",""time""
""fullscreenenter"",""1"",""2505""
","""event"",""trial"",""time""
""fullscreenexit"",""6"",""15772""
","","","","","","2260","<p> You earned -6 points in the practice round! </p>","0","","break","","","","","","","","","","","","","",""
"learning-instructions","66","331919","0.0-8.0-4.0-0.0","1590","2","2","""event"",""trial"",""time""
""focus"",""0"",""1""
""fullscreenenter"",""1"",""2505""
""fullscreenexit"",""6"",""15772""
","
","""event"",""trial"",""time""
""focus"",""0"",""1""
","""event"",""trial"",""time""
""fullscreenenter"",""1"",""2505""
","""event"",""trial"",""time""
""fullscreenexit"",""6"",""15772""
","","","","","","1867","<p> It's almost time to start the real game. </p><p> Before you start, we're going to ask you a few questions about how the game works. </p>","","0","instructions","","","","","","","","","","","","","",""
"preload","67","333088","0.0-8.0-5.0","1590","2","2","""event"",""trial"",""time""
""focus"",""0"",""1""
""fullscreenenter"",""1"",""2505""
""fullscreenexit"",""6"",""15772""
","
","""event"",""trial"",""time""
""focus"",""0"",""1""
","""event"",""trial"",""time""
""fullscreenenter"",""1"",""2505""
","""event"",""trial"",""time""
""fullscreenexit"",""6"",""15772""
","true","false","[]","[]","[]","","","","","","","","","","","","","","","","","","",""
"comp-q","68","339776","0.0-8.0-6.0-0.0","1590","2","2","""event"",""trial"",""time""
""focus"",""0"",""1""
""fullscreenenter"",""1"",""2505""
""fullscreenexit"",""6"",""15772""
","
","""event"",""trial"",""time""
""focus"",""0"",""1""
","""event"",""trial"",""time""
""fullscreenenter"",""1"",""2505""
","""event"",""trial"",""time""
""fullscreenexit"",""6"",""15772""
","","","","","","1234","<p> <b> True or False? </b> </p><p> If you choose the best option, you will always earn 1 point. </p>","","1","comp_question","","","","","","","","","","","true","","",""
"comp-q","69","346571","0.0-8.0-6.0-1.0","1590","2","2","""event"",""trial"",""time""
""focus"",""0"",""1""
""fullscreenenter"",""1"",""2505""
""fullscreenexit"",""6"",""15772""
","
","""event"",""trial"",""time""
""focus"",""0"",""1""
","""event"",""trial"",""time""
""fullscreenenter"",""1"",""2505""
","""event"",""trial"",""time""
""fullscreenexit"",""6"",""15772""
","","","","","","1109","<p><b> That's right! </b> Sometimes you will lose 1 point, even if you choose the best option. </p>","","0","comp_answer","","","","","","","","","","","","","",""
"comp-q","70","352034","0.0-8.0-6.0-0.1","1590","2","2","""event"",""trial"",""time""
""focus"",""0"",""1""
""fullscreenenter"",""1"",""2505""
""fullscreenexit"",""6"",""15772""
","
","""event"",""trial"",""time""
""focus"",""0"",""1""
","""event"",""trial"",""time""
""fullscreenenter"",""1"",""2505""
","""event"",""trial"",""time""
""fullscreenexit"",""6"",""15772""
","","","","","","812","<p> <b> True or False? </b> </p><p> You will have as much time as you want to make each choice. </p>","","1","comp_question","","","","","","","","","","","true","","",""
"comp-q","71","357859","0.0-8.0-6.0-1.1","1590","2","2","""event"",""trial"",""time""
""focus"",""0"",""1""
""fullscreenenter"",""1"",""2505""
""fullscreenexit"",""6"",""15772""
","
","""event"",""trial"",""time""
""focus"",""0"",""1""
","""event"",""trial"",""time""
""fullscreenenter"",""1"",""2505""
","""event"",""trial"",""time""
""fullscreenexit"",""6"",""15772""
","","","","","","987","<p> <b> That's right! </b> You will only have 4 seconds to make each choice. </p>","","0","comp_answer","","","","","","","","","","","","","",""
"comp-q","72","365435","0.0-8.0-6.0-0.2","1590","2","2","""event"",""trial"",""time""
""focus"",""0"",""1""
""fullscreenenter"",""1"",""2505""
""fullscreenexit"",""6"",""15772""
","
","""event"",""trial"",""time""
""focus"",""0"",""1""
","""event"",""trial"",""time""
""fullscreenenter"",""1"",""2505""
","""event"",""trial"",""time""
""fullscreenexit"",""6"",""15772""
","","","","","","1403","<p> <b> True or False? </b> </p><p> You should use the '1', '2', and '3' keys to make your choices. </p>","","0","comp_question","","","","","","","","","","","true","","",""
"comp-q","73","371345","0.0-8.0-6.0-1.2","1590","2","2","""event"",""trial"",""time""
""focus"",""0"",""1""
""fullscreenenter"",""1"",""2505""
""fullscreenexit"",""6"",""15772""
","
","""event"",""trial"",""time""
""focus"",""0"",""1""
","""event"",""trial"",""time""
""fullscreenenter"",""1"",""2505""
","""event"",""trial"",""time""
""fullscreenexit"",""6"",""15772""
","","","","","","1051","<p> <b> That's right! </b> You should use the '1', '2', and '3' keys to make each choice. </p>","","0","comp_answer","","","","","","","","","","","","","",""
"learning-instructions","74","382056","0.0-8.0-7.0-0.0","1590","2","2","""event"",""trial"",""time""
""focus"",""0"",""1""
""fullscreenenter"",""1"",""2505""
""fullscreenexit"",""6"",""15772""
","
","""event"",""trial"",""time""
""focus"",""0"",""1""
","""event"",""trial"",""time""
""fullscreenenter"",""1"",""2505""
","""event"",""trial"",""time""
""fullscreenexit"",""6"",""15772""
","","","","","","2193","<p> It's now time to start the real game. </p>Do your best, because the points you earn in the next rounds will influence your bonus payment. </p>","","0","instructions","","","","","","","","","","","","","",""
"preload","75","383467","0.0-9.0-0.0","1590","2","2","""event"",""trial"",""time""
""focus"",""0"",""1""
""fullscreenenter"",""1"",""2505""
""fullscreenexit"",""6"",""15772""
","
","""event"",""trial"",""time""
""focus"",""0"",""1""
","""event"",""trial"",""time""
""fullscreenenter"",""1"",""2505""
","""event"",""trial"",""time""
""fullscreenexit"",""6"",""15772""
","true","false","[]","[]","[]","","","","","","","","","","","","","","","","","","",""
"learning-instructions","76","392480","0.0-9.0-1.0-0.0","1590","2","2","""event"",""trial"",""time""
""focus"",""0"",""1""
""fullscreenenter"",""1"",""2505""
""fullscreenexit"",""6"",""15772""
","
","""event"",""trial"",""time""
""focus"",""0"",""1""
","""event"",""trial"",""time""
""fullscreenenter"",""1"",""2505""
","""event"",""trial"",""time""
""fullscreenexit"",""6"",""15772""
","","","","","","1349","<p> Your goal in this round is to return farm animals to the barns where they live. </p><p>  Different animals wandered away from different barns! </p></div>","","0","instructions","","","","","","","","","","","","","",""
"learning-instructions","77","402193","0.0-9.0-1.0-0.1","1590","2","2","""event"",""trial"",""time""
""focus"",""0"",""1""
""fullscreenenter"",""1"",""2505""
""fullscreenexit"",""6"",""15772""
","
","""event"",""trial"",""time""
""focus"",""0"",""1""
","""event"",""trial"",""time""
""fullscreenenter"",""1"",""2505""
","""event"",""trial"",""time""
""fullscreenexit"",""6"",""15772""
","","","","","","1061","<p> On each turn, you will see a picture of a farm animal and three different barns.  </p><p> You need to select the barn where each animal lives.  </p>","","0","instructions","","","","","","","","","","","","","",""
"learning-instructions","78","413518","0.0-9.0-1.0-0.2","1590","2","2","""event"",""trial"",""time""
""focus"",""0"",""1""
""fullscreenenter"",""1"",""2505""
""fullscreenexit"",""6"",""15772""
","
","""event"",""trial"",""time""
""focus"",""0"",""1""
","""event"",""trial"",""time""
""fullscreenenter"",""1"",""2505""
","""event"",""trial"",""time""
""fullscreenexit"",""6"",""15772""
","","","","","","4115","<p> You can select the barn on the left by pressing 1, the barn in the middle by pressing 2, and the barn on the right by pressing 3. </p><br><div class=""choice-instructions-grid""> <div class=""choice-option""><img src=""images/animals_choice1.png"" class=""choice-option-img"" stage=""instructions"" position=""0"" ><div class=""choice-option-text""> Press ""1."" </div></div><div class=""choice-option""><img src=""images/animals_choice2.png"" class=""choice-option-img"" stage=""instructions"" position=""1"" ><div class=""choice-option-text""> Press ""2."" </div></div><div class=""choice-option""><img src=""images/animals_choice3.png"" class=""choice-option-img"" stage=""instructions"" position=""2"" ><div class=""choice-option-text""> Press ""3."" </div></div></div>","","0","instructions","","","","","","","","","","","","","",""
"learning-instructions","79","420466","0.0-9.0-1.0-0.3","1590","2","2","""event"",""trial"",""time""
""focus"",""0"",""1""
""fullscreenenter"",""1"",""2505""
""fullscreenexit"",""6"",""15772""
","
","""event"",""trial"",""time""
""focus"",""0"",""1""
","""event"",""trial"",""time""
""fullscreenenter"",""1"",""2505""
","""event"",""trial"",""time""
""fullscreenexit"",""6"",""15772""
","","","","","","1792","<p> If you return the farm animal to the correct barn, it will usually be happy! </p><div style='float: center;'><img src='images/check.png' width = '200' height = '200'></img>","","0","instructions","","","","","","","","","","","","","",""
"learning-instructions","80","426176","0.0-9.0-1.0-0.4","1590","2","2","""event"",""trial"",""time""
""focus"",""0"",""1""
""fullscreenenter"",""1"",""2505""
""fullscreenexit"",""6"",""15772""
","
","""event"",""trial"",""time""
""focus"",""0"",""1""
","""event"",""trial"",""time""
""fullscreenenter"",""1"",""2505""
","""event"",""trial"",""time""
""fullscreenexit"",""6"",""15772""
","","","","","","391","<p> But, if you return the farm animal to the wrong barn, it will usually be sad. </p><div style='float: center;'><img src='images/x.png' width = '200' height = '200'></img>","","0","instructions","","","","","","","","","","","","","",""
"learning-instructions","81","437395","0.0-9.0-1.0-0.5","1590","2","2","""event"",""trial"",""time""
""focus"",""0"",""1""
""fullscreenenter"",""1"",""2505""
""fullscreenexit"",""6"",""15772""
","
","""event"",""trial"",""time""
""focus"",""0"",""1""
","""event"",""trial"",""time""
""fullscreenenter"",""1"",""2505""
","""event"",""trial"",""time""
""fullscreenexit"",""6"",""15772""
","","","","","","653","<p> Importantly, each farm animal belongs in one of the barns. </p><p> If you choose the correct barn, the farm animal will return home safely and will be more likely to be happy! </p>","","0","instructions","","","","","","","","","","","","","",""
"learning-instructions","82","448446","0.0-9.0-1.0-0.6","1590","2","2","""event"",""trial"",""time""
""focus"",""0"",""1""
""fullscreenenter"",""1"",""2505""
""fullscreenexit"",""6"",""15772""
","
","""event"",""trial"",""time""
""focus"",""0"",""1""
","""event"",""trial"",""time""
""fullscreenenter"",""1"",""2505""
","""event"",""trial"",""time""
""fullscreenexit"",""6"",""15772""
","","","","","","512","<p> However, even if you choose the correct barn for the farm animal, it might still feel sad. </p><p> Similarly, even if you choose the <i>wrong</i> barn, it might still feel happy.","","0","instructions","","","","","","","","","","","","","",""
"learning-instructions","83","462652","0.0-9.0-1.0-0.7","1590","2","2","""event"",""trial"",""time""
""focus"",""0"",""1""
""fullscreenenter"",""1"",""2505""
""fullscreenexit"",""6"",""15772""
","
","""event"",""trial"",""time""
""focus"",""0"",""1""
","""event"",""trial"",""time""
""fullscreenenter"",""1"",""2505""
","""event"",""trial"",""time""
""fullscreenexit"",""6"",""15772""
","","","","","","499","<p> Try to choose the correct barn for each farm animal, because you will <b> WIN </b> 1 point for each farm animal you make happy and <b>LOSE</b> 1 point for each farm animal you make sad. </p><p> Your bonus payment will depend on your total number of points.","","0","instructions","","","","","","","","","","","","","",""
"learning-instructions","84","478555","0.0-9.0-1.0-0.8","1590","2","2","""event"",""trial"",""time""
""focus"",""0"",""1""
""fullscreenenter"",""1"",""2505""
""fullscreenexit"",""6"",""15772""
","
","""event"",""trial"",""time""
""focus"",""0"",""1""
","""event"",""trial"",""time""
""fullscreenenter"",""1"",""2505""
","""event"",""trial"",""time""
""fullscreenexit"",""6"",""15772""
","","","","","","7772","<p> The position of each barn will change throughout the round. </p><p> The barn's position <i> does not </i> influence how likely it is to be the correct one. </p>","","0","instructions","","","","","","","","","","","","","",""
"learning-instructions","85","492984","0.0-9.0-1.0-0.9","1590","2","2","""event"",""trial"",""time""
""focus"",""0"",""1""
""fullscreenenter"",""1"",""2505""
""fullscreenexit"",""6"",""15772""
","
","""event"",""trial"",""time""
""focus"",""0"",""1""
","""event"",""trial"",""time""
""fullscreenenter"",""1"",""2505""
","""event"",""trial"",""time""
""fullscreenexit"",""6"",""15772""
","","","","","","5110","<p> You will have 4 seconds to make each choice. Try to respond before time runs out! </p><p> You will lose 1 point each time you do not make a response. </p>","","0","instructions","","","","","","","","","","","","","",""
"html-keyboard-response","86","493612","0.0-9.0-2.0-0.0","1590","2","2","""event"",""trial"",""time""
""focus"",""0"",""1""
""fullscreenenter"",""1"",""2505""
""fullscreenexit"",""6"",""15772""
","
","""event"",""trial"",""time""
""focus"",""0"",""1""
","""event"",""trial"",""time""
""fullscreenenter"",""1"",""2505""
","""event"",""trial"",""time""
""fullscreenexit"",""6"",""15772""
","","","","","","null","<div style=""font-size:60px;"">+</div>","null","","fixation","","","","","","","","","","","","","",""
"learning-trial","87","497628","0.0-9.0-2.0-1.0","1590","2","2","""event"",""trial"",""time""
""focus"",""0"",""1""
""fullscreenenter"",""1"",""2505""
""fullscreenexit"",""6"",""15772""
","
","""event"",""trial"",""time""
""focus"",""0"",""1""
","""event"",""trial"",""time""
""fullscreenenter"",""1"",""2505""
","""event"",""trial"",""time""
""fullscreenexit"",""6"",""15772""
","","","","","","2623","images/goat3.png","","","learning","images/animals_choice2.png","images/animals_choice1.png","images/animals_choice3.png","[1,0,2]","2","2","3","images/animals_choice3.png","1","animals","","goat","2","0"
"html-keyboard-response","88","498142","0.0-9.0-2.0-0.1","1590","2","2","""event"",""trial"",""time""
""focus"",""0"",""1""
""fullscreenenter"",""1"",""2505""
""fullscreenexit"",""6"",""15772""
","
","""event"",""trial"",""time""
""focus"",""0"",""1""
","""event"",""trial"",""time""
""fullscreenenter"",""1"",""2505""
","""event"",""trial"",""time""
""fullscreenexit"",""6"",""15772""
","","","","","","null","<div style=""font-size:60px;"">+</div>","null","","fixation","","","","","","","","","","","","","",""
"learning-trial","89","502163","0.0-9.0-2.0-1.1","1590","2","2","""event"",""trial"",""time""
""focus"",""0"",""1""
""fullscreenenter"",""1"",""2505""
""fullscreenexit"",""6"",""15772""
","
","""event"",""trial"",""time""
""focus"",""0"",""1""
","""event"",""trial"",""time""
""fullscreenenter"",""1"",""2505""
","""event"",""trial"",""time""
""fullscreenexit"",""6"",""15772""
","","","","","","1636","images/cow5.png","","","learning","images/animals_choice2.png","images/animals_choice1.png","images/animals_choice3.png","[1,0,2]","1","0","3","images/animals_choice3.png","-1","animals","","cow","2","0"
"html-keyboard-response","90","502673","0.0-9.0-2.0-0.2","1590","2","2","""event"",""trial"",""time""
""focus"",""0"",""1""
""fullscreenenter"",""1"",""2505""
""fullscreenexit"",""6"",""15772""
","
","""event"",""trial"",""time""
""focus"",""0"",""1""
","""event"",""trial"",""time""
""fullscreenenter"",""1"",""2505""
","""event"",""trial"",""time""
""fullscreenexit"",""6"",""15772""
","","","","","","null","<div style=""font-size:60px;"">+</div>","null","","fixation","","","","","","","","","","","","","",""
"learning-trial","91","506691","0.0-9.0-2.0-1.2","1590","2","2","""event"",""trial"",""time""
""focus"",""0"",""1""
""fullscreenenter"",""1"",""2505""
""fullscreenexit"",""6"",""15772""
","
","""event"",""trial"",""time""
""focus"",""0"",""1""
","""event"",""trial"",""time""
""fullscreenenter"",""1"",""2505""
","""event"",""trial"",""time""
""fullscreenexit"",""6"",""15772""
","","","","","","2475","images/horse2.png","","","learning","images/animals_choice2.png","images/animals_choice1.png","images/animals_choice3.png","[1,0,2]","1","0","3","images/animals_choice3.png","-1","animals","","horse","2","0"
"html-keyboard-response","92","507192","0.0-9.0-2.0-0.3","1590","2","2","""event"",""trial"",""time""
""focus"",""0"",""1""
""fullscreenenter"",""1"",""2505""
""fullscreenexit"",""6"",""15772""
","
","""event"",""trial"",""time""
""focus"",""0"",""1""
","""event"",""trial"",""time""
""fullscreenenter"",""1"",""2505""
","""event"",""trial"",""time""
""fullscreenexit"",""6"",""15772""
","","","","","","null","<div style=""font-size:60px;"">+</div>","null","","fixation","","","","","","","","","","","","","",""
"learning-trial","93","511213","0.0-9.0-2.0-1.3","1590","2","2","""event"",""trial"",""time""
""focus"",""0"",""1""
""fullscreenenter"",""1"",""2505""
""fullscreenexit"",""6"",""15772""
","
","""event"",""trial"",""time""
""focus"",""0"",""1""
","""event"",""trial"",""time""
""fullscreenenter"",""1"",""2505""
","""event"",""trial"",""time""
""fullscreenexit"",""6"",""15772""
","","","","","","1914","images/cow1.png","","","learning","images/animals_choice1.png","images/animals_choice2.png","images/animals_choice3.png","[0,1,2]","0","0","3","images/animals_choice3.png","-1","animals","","cow","2","0"
"html-keyboard-response","94","511727","0.0-9.0-2.0-0.4","1590","2","2","""event"",""trial"",""time""
""focus"",""0"",""1""
""fullscreenenter"",""1"",""2505""
""fullscreenexit"",""6"",""15772""
","
","""event"",""trial"",""time""
""focus"",""0"",""1""
","""event"",""trial"",""time""
""fullscreenenter"",""1"",""2505""
","""event"",""trial"",""time""
""fullscreenexit"",""6"",""15772""
","","","","","","null","<div style=""font-size:60px;"">+</div>","null","","fixation","","","","","","","","","","","","","",""
"learning-trial","95","515733","0.0-9.0-2.0-1.4","1590","2","2","""event"",""trial"",""time""
""focus"",""0"",""1""
""fullscreenenter"",""1"",""2505""
""fullscreenexit"",""6"",""15772""
","
","""event"",""trial"",""time""
""focus"",""0"",""1""
","""event"",""trial"",""time""
""fullscreenenter"",""1"",""2505""
","""event"",""trial"",""time""
""fullscreenexit"",""6"",""15772""
","","","","","","3299","images/goat3.png","","","learning","images/animals_choice1.png","images/animals_choice3.png","images/animals_choice2.png","[0,2,1]","2","1","2","images/animals_choice3.png","1","animals","","goat","2","0"
"html-keyboard-response","96","516238","0.0-9.0-2.0-0.5","1590","2","2","""event"",""trial"",""time""
""focus"",""0"",""1""
""fullscreenenter"",""1"",""2505""
""fullscreenexit"",""6"",""15772""
","
","""event"",""trial"",""time""
""focus"",""0"",""1""
","""event"",""trial"",""time""
""fullscreenenter"",""1"",""2505""
","""event"",""trial"",""time""
""fullscreenexit"",""6"",""15772""
","","","","","","null","<div style=""font-size:60px;"">+</div>","null","","fixation","","","","","","","","","","","","","",""
"learning-trial","97","520253","0.0-9.0-2.0-1.5","1590","2","2","""event"",""trial"",""time""
""focus"",""0"",""1""
""fullscreenenter"",""1"",""2505""
""fullscreenexit"",""6"",""15772""
","
","""event"",""trial"",""time""
""focus"",""0"",""1""
","""event"",""trial"",""time""
""fullscreenenter"",""1"",""2505""
","""event"",""trial"",""time""
""fullscreenexit"",""6"",""15772""
","","","","","","2809","images/horse1.png","","","learning","images/animals_choice3.png","images/animals_choice2.png","images/animals_choice1.png","[2,1,0]","0","2","3","images/animals_choice1.png","1","animals","","horse","2","0"
"html-keyboard-response","98","520762","0.0-9.0-2.0-0.6","1590","2","2","""event"",""trial"",""time""
""focus"",""0"",""1""
""fullscreenenter"",""1"",""2505""
""fullscreenexit"",""6"",""15772""
","
","""event"",""trial"",""time""
""focus"",""0"",""1""
","""event"",""trial"",""time""
""fullscreenenter"",""1"",""2505""
","""event"",""trial"",""time""
""fullscreenexit"",""6"",""15772""
","","","","","","null","<div style=""font-size:60px;"">+</div>","null","","fixation","","","","","","","","","","","","","",""
"learning-trial","99","524773","0.0-9.0-2.0-1.6","1590","2","2","""event"",""trial"",""time""
""focus"",""0"",""1""
""fullscreenenter"",""1"",""2505""
""fullscreenexit"",""6"",""15772""
","
","""event"",""trial"",""time""
""focus"",""0"",""1""
","""event"",""trial"",""time""
""fullscreenenter"",""1"",""2505""
","""event"",""trial"",""time""
""fullscreenexit"",""6"",""15772""
","","","","","","2573","images/goat1.png","","","learning","images/animals_choice3.png","images/animals_choice2.png","images/animals_choice1.png","[2,1,0]","0","2","1","images/animals_choice3.png","-1","animals","","goat","2","0"
"html-keyboard-response","100","525293","0.0-9.0-2.0-0.7","1590","2","2","""event"",""trial"",""time""
""focus"",""0"",""1""
""fullscreenenter"",""1"",""2505""
""fullscreenexit"",""6"",""15772""
","
","""event"",""trial"",""time""
""focus"",""0"",""1""
","""event"",""trial"",""time""
""fullscreenenter"",""1"",""2505""
","""event"",""trial"",""time""
""fullscreenexit"",""6"",""15772""
","","","","","","null","<div style=""font-size:60px;"">+</div>","null","","fixation","","","","","","","","","","","","","",""
"learning-trial","101","529300","0.0-9.0-2.0-1.7","1590","2","2","""event"",""trial"",""time""
""focus"",""0"",""1""
""fullscreenenter"",""1"",""2505""
""fullscreenexit"",""6"",""15772""
","
","""event"",""trial"",""time""
""focus"",""0"",""1""
","""event"",""trial"",""time""
""fullscreenenter"",""1"",""2505""
","""event"",""trial"",""time""
""fullscreenexit"",""6"",""15772""
","","","","","","2384","images/cow1.png","","","learning","images/animals_choice2.png","images/animals_choice1.png","images/animals_choice3.png","[1,0,2]","0","1","1","images/animals_choice2.png","-1","animals","","cow","2","0"
"html-keyboard-response","102","529813","0.0-9.0-2.0-0.8","1590","2","2","""event"",""trial"",""time""
""focus"",""0"",""1""
""fullscreenenter"",""1"",""2505""
""fullscreenexit"",""6"",""15772""
","
","""event"",""trial"",""time""
""focus"",""0"",""1""
","""event"",""trial"",""time""
""fullscreenenter"",""1"",""2505""
","""event"",""trial"",""time""
""fullscreenexit"",""6"",""15772""
","","","","","","null","<div style=""font-size:60px;"">+</div>","null","","fixation","","","","","","","","","","","","","",""
"learning-trial","103","533832","0.0-9.0-2.0-1.8","1590","2","2","""event"",""trial"",""time""
""focus"",""0"",""1""
""fullscreenenter"",""1"",""2505""
""fullscreenexit"",""6"",""15772""
","
","""event"",""trial"",""time""
""focus"",""0"",""1""
","""event"",""trial"",""time""
""fullscreenenter"",""1"",""2505""
","""event"",""trial"",""time""
""fullscreenexit"",""6"",""15772""
","","","","","","1854","images/horse5.png","","","learning","images/animals_choice2.png","images/animals_choice1.png","images/animals_choice3.png","[1,0,2]","2","2","2","images/animals_choice1.png","-1","animals","","horse","2","0"
"html-keyboard-response","104","534353","0.0-9.0-2.0-0.9","1590","2","2","""event"",""trial"",""time""
""focus"",""0"",""1""
""fullscreenenter"",""1"",""2505""
""fullscreenexit"",""6"",""15772""
","
","""event"",""trial"",""time""
""focus"",""0"",""1""
","""event"",""trial"",""time""
""fullscreenenter"",""1"",""2505""
","""event"",""trial"",""time""
""fullscreenexit"",""6"",""15772""
","","","","","","null","<div style=""font-size:60px;"">+</div>","null","","fixation","","","","","","","","","","","","","",""
"learning-trial","105","538372","0.0-9.0-2.0-1.9","1590","2","2","""event"",""trial"",""time""
""focus"",""0"",""1""
""fullscreenenter"",""1"",""2505""
""fullscreenexit"",""6"",""15772""
","
","""event"",""trial"",""time""
""focus"",""0"",""1""
","""event"",""trial"",""time""
""fullscreenenter"",""1"",""2505""
","""event"",""trial"",""time""
""fullscreenexit"",""6"",""15772""
","","","","","","3945","images/cow1.png","","","learning","images/animals_choice3.png","images/animals_choice1.png","images/animals_choice2.png","[2,0,1]","0","1","3","images/animals_choice2.png","-1","animals","","cow","2","0"
"html-keyboard-response","106","538893","0.0-9.0-2.0-0.10","1590","2","2","""event"",""trial"",""time""
""focus"",""0"",""1""
""fullscreenenter"",""1"",""2505""
""fullscreenexit"",""6"",""15772""
","
","""event"",""trial"",""time""
""focus"",""0"",""1""
","""event"",""trial"",""time""
""fullscreenenter"",""1"",""2505""
","""event"",""trial"",""time""
""fullscreenexit"",""6"",""15772""
","","","","","","null","<div style=""font-size:60px;"">+</div>","null","","fixation","","","","","","","","","","","","","",""
"learning-trial","107","542903","0.0-9.0-2.0-1.10","1590","2","2","""event"",""trial"",""time""
""focus"",""0"",""1""
""fullscreenenter"",""1"",""2505""
""fullscreenexit"",""6"",""15772""
","
","""event"",""trial"",""time""
""focus"",""0"",""1""
","""event"",""trial"",""time""
""fullscreenenter"",""1"",""2505""
","""event"",""trial"",""time""
""fullscreenexit"",""6"",""15772""
","","","","","","2393","images/goat2.png","","","learning","images/animals_choice1.png","images/animals_choice2.png","images/animals_choice3.png","[0,1,2]","1","1","2","images/animals_choice2.png","1","animals","","goat","2","0"
"html-keyboard-response","108","543416","0.0-9.0-2.0-0.11","1590","2","2","""event"",""trial"",""time""
""focus"",""0"",""1""
""fullscreenenter"",""1"",""2505""
""fullscreenexit"",""6"",""15772""
","
","""event"",""trial"",""time""
""focus"",""0"",""1""
","""event"",""trial"",""time""
""fullscreenenter"",""1"",""2505""
","""event"",""trial"",""time""
""fullscreenexit"",""6"",""15772""
","","","","","","null","<div style=""font-size:60px;"">+</div>","null","","fixation","","","","","","","","","","","","","",""
"learning-trial","109","547429","0.0-9.0-2.0-1.11","1590","2","2","""event"",""trial"",""time""
""focus"",""0"",""1""
""fullscreenenter"",""1"",""2505""
""fullscreenexit"",""6"",""15772""
","
","""event"",""trial"",""time""
""focus"",""0"",""1""
","""event"",""trial"",""time""
""fullscreenenter"",""1"",""2505""
","""event"",""trial"",""time""
""fullscreenexit"",""6"",""15772""
","","","","","","2050","images/horse5.png","","","learning","images/animals_choice2.png","images/animals_choice3.png","images/animals_choice1.png","[1,2,0]","2","1","3","images/animals_choice1.png","-1","animals","","horse","2","0"
"html-keyboard-response","110","547930","0.0-9.0-2.0-0.12","1590","2","2","""event"",""trial"",""time""
""focus"",""0"",""1""
""fullscreenenter"",""1"",""2505""
""fullscreenexit"",""6"",""15772""
","
","""event"",""trial"",""time""
""focus"",""0"",""1""
","""event"",""trial"",""time""
""fullscreenenter"",""1"",""2505""
","""event"",""trial"",""time""
""fullscreenexit"",""6"",""15772""
","","","","","","null","<div style=""font-size:60px;"">+</div>","null","","fixation","","","","","","","","","","","","","",""
"learning-trial","111","551933","0.0-9.0-2.0-1.12","1590","2","2","""event"",""trial"",""time""
""focus"",""0"",""1""
""fullscreenenter"",""1"",""2505""
""fullscreenexit"",""6"",""15772""
","
","""event"",""trial"",""time""
""focus"",""0"",""1""
","""event"",""trial"",""time""
""fullscreenenter"",""1"",""2505""
","""event"",""trial"",""time""
""fullscreenexit"",""6"",""15772""
","","","","","","1777","images/horse2.png","","","learning","images/animals_choice1.png","images/animals_choice2.png","images/animals_choice3.png","[0,1,2]","1","1","1","images/animals_choice1.png","-1","animals","","horse","2","0"
"html-keyboard-response","112","552439","0.0-9.0-2.0-0.13","1590","2","2","""event"",""trial"",""time""
""focus"",""0"",""1""
""fullscreenenter"",""1"",""2505""
""fullscreenexit"",""6"",""15772""
","
","""event"",""trial"",""time""
""focus"",""0"",""1""
","""event"",""trial"",""time""
""fullscreenenter"",""1"",""2505""
","""event"",""trial"",""time""
""fullscreenexit"",""6"",""15772""
","","","","","","null","<div style=""font-size:60px;"">+</div>","null","","fixation","","","","","","","","","","","","","",""
"learning-trial","113","556453","0.0-9.0-2.0-1.13","1590","2","2","""event"",""trial"",""time""
""focus"",""0"",""1""
""fullscreenenter"",""1"",""2505""
""fullscreenexit"",""6"",""15772""
","
","""event"",""trial"",""time""
""focus"",""0"",""1""
","""event"",""trial"",""time""
""fullscreenenter"",""1"",""2505""
","""event"",""trial"",""time""
""fullscreenexit"",""6"",""15772""
","","","","","","1879","images/horse1.png","","","learning","images/animals_choice1.png","images/animals_choice3.png","images/animals_choice2.png","[0,2,1]","0","0","1","images/animals_choice1.png","-1","animals","","horse","2","0"
"html-keyboard-response","114","556973","0.0-9.0-2.0-0.14","1590","2","2","""event"",""trial"",""time""
""focus"",""0"",""1""
""fullscreenenter"",""1"",""2505""
""fullscreenexit"",""6"",""15772""
","
","""event"",""trial"",""time""
""focus"",""0"",""1""
","""event"",""trial"",""time""
""fullscreenenter"",""1"",""2505""
","""event"",""trial"",""time""
""fullscreenexit"",""6"",""15772""
","","","","","","null","<div style=""font-size:60px;"">+</div>","null","","fixation","","","","","","","","","","","","","",""
"learning-trial","115","560983","0.0-9.0-2.0-1.14","1590","2","2","""event"",""trial"",""time""
""focus"",""0"",""1""
""fullscreenenter"",""1"",""2505""
""fullscreenexit"",""6"",""15772""
","
","""event"",""trial"",""time""
""focus"",""0"",""1""
","""event"",""trial"",""time""
""fullscreenenter"",""1"",""2505""
","""event"",""trial"",""time""
""fullscreenexit"",""6"",""15772""
","","","","","","2534","images/cow1.png","","","learning","images/animals_choice1.png","images/animals_choice2.png","images/animals_choice3.png","[0,1,2]","0","0","1","images/animals_choice1.png","1","animals","","cow","2","0"
"html-keyboard-response","116","561492","0.0-9.0-2.0-0.15","1590","2","2","""event"",""trial"",""time""
""focus"",""0"",""1""
""fullscreenenter"",""1"",""2505""
""fullscreenexit"",""6"",""15772""
","
","""event"",""trial"",""time""
""focus"",""0"",""1""
","""event"",""trial"",""time""
""fullscreenenter"",""1"",""2505""
","""event"",""trial"",""time""
""fullscreenexit"",""6"",""15772""
","","","","","","null","<div style=""font-size:60px;"">+</div>","null","","fixation","","","","","","","","","","","","","",""
"learning-trial","117","565513","0.0-9.0-2.0-1.15","1590","2","2","""event"",""trial"",""time""
""focus"",""0"",""1""
""fullscreenenter"",""1"",""2505""
""fullscreenexit"",""6"",""15772""
","
","""event"",""trial"",""time""
""focus"",""0"",""1""
","""event"",""trial"",""time""
""fullscreenenter"",""1"",""2505""
","""event"",""trial"",""time""
""fullscreenexit"",""6"",""15772""
","","","","","","2155","images/horse1.png","","","learning","images/animals_choice2.png","images/animals_choice1.png","images/animals_choice3.png","[1,0,2]","0","1","1","images/animals_choice2.png","-1","animals","","horse","2","0"
"html-keyboard-response","118","566032","0.0-9.0-2.0-0.16","1590","2","2","""event"",""trial"",""time""
""focus"",""0"",""1""
""fullscreenenter"",""1"",""2505""
""fullscreenexit"",""6"",""15772""
","
","""event"",""trial"",""time""
""focus"",""0"",""1""
","""event"",""trial"",""time""
""fullscreenenter"",""1"",""2505""
","""event"",""trial"",""time""
""fullscreenexit"",""6"",""15772""
","","","","","","null","<div style=""font-size:60px;"">+</div>","null","","fixation","","","","","","","","","","","","","",""
"learning-trial","119","570051","0.0-9.0-2.0-1.16","1590","2","2","""event"",""trial"",""time""
""focus"",""0"",""1""
""fullscreenenter"",""1"",""2505""
""fullscreenexit"",""6"",""15772""
","
","""event"",""trial"",""time""
""focus"",""0"",""1""
","""event"",""trial"",""time""
""fullscreenenter"",""1"",""2505""
","""event"",""trial"",""time""
""fullscreenexit"",""6"",""15772""
","","","","","","3044","images/cow4.png","","","learning","images/animals_choice2.png","images/animals_choice3.png","images/animals_choice1.png","[1,2,0]","2","1","3","images/animals_choice1.png","-1","animals","","cow","2","0"
"html-keyboard-response","120","570563","0.0-9.0-2.0-0.17","1590","2","2","""event"",""trial"",""time""
""focus"",""0"",""1""
""fullscreenenter"",""1"",""2505""
""fullscreenexit"",""6"",""15772""
","
","""event"",""trial"",""time""
""focus"",""0"",""1""
","""event"",""trial"",""time""
""fullscreenenter"",""1"",""2505""
","""event"",""trial"",""time""
""fullscreenexit"",""6"",""15772""
","","","","","","null","<div style=""font-size:60px;"">+</div>","null","","fixation","","","","","","","","","","","","","",""
"learning-trial","121","574583","0.0-9.0-2.0-1.17","1590","2","2","""event"",""trial"",""time""
""focus"",""0"",""1""
""fullscreenenter"",""1"",""2505""
""fullscreenexit"",""6"",""15772""
","
","""event"",""trial"",""time""
""focus"",""0"",""1""
","""event"",""trial"",""time""
""fullscreenenter"",""1"",""2505""
","""event"",""trial"",""time""
""fullscreenexit"",""6"",""15772""
","","","","","","1475","images/cow4.png","","","learning","images/animals_choice2.png","images/animals_choice1.png","images/animals_choice3.png","[1,0,2]","2","2","3","images/animals_choice3.png","1","animals","","cow","2","0"
"html-keyboard-response","122","575102","0.0-9.0-2.0-0.18","1590","2","2","""event"",""trial"",""time""
""focus"",""0"",""1""
""fullscreenenter"",""1"",""2505""
""fullscreenexit"",""6"",""15772""
","
","""event"",""trial"",""time""
""focus"",""0"",""1""
","""event"",""trial"",""time""
""fullscreenenter"",""1"",""2505""
","""event"",""trial"",""time""
""fullscreenexit"",""6"",""15772""
","","","","","","null","<div style=""font-size:60px;"">+</div>","null","","fixation","","","","","","","","","","","","","",""
"learning-trial","123","579124","0.0-9.0-2.0-1.18","1590","2","2","""event"",""trial"",""time""
""focus"",""0"",""1""
""fullscreenenter"",""1"",""2505""
""fullscreenexit"",""6"",""15772""
","
","""event"",""trial"",""time""
""focus"",""0"",""1""
","""event"",""trial"",""time""
""fullscreenenter"",""1"",""2505""
","""event"",""trial"",""time""
""fullscreenexit"",""6"",""15772""
","","","","","","2273","images/cow1.png","","","learning","images/animals_choice2.png","images/animals_choice1.png","images/animals_choice3.png","[1,0,2]","0","1","2","images/animals_choice1.png","1","animals","","cow","2","0"
"html-keyboard-response","124","579633","0.0-9.0-2.0-0.19","1590","2","2","""event"",""trial"",""time""
""focus"",""0"",""1""
""fullscreenenter"",""1"",""2505""
""fullscreenexit"",""6"",""15772""
","
","""event"",""trial"",""time""
""focus"",""0"",""1""
","""event"",""trial"",""time""
""fullscreenenter"",""1"",""2505""
","""event"",""trial"",""time""
""fullscreenexit"",""6"",""15772""
","","","","","","null","<div style=""font-size:60px;"">+</div>","null","","fixation","","","","","","","","","","","","","",""
"learning-trial","125","583654","0.0-9.0-2.0-1.19","1590","2","2","""event"",""trial"",""time""
""focus"",""0"",""1""
""fullscreenenter"",""1"",""2505""
""fullscreenexit"",""6"",""15772""
","
","""event"",""trial"",""time""
""focus"",""0"",""1""
","""event"",""trial"",""time""
""fullscreenenter"",""1"",""2505""
","""event"",""trial"",""time""
""fullscreenexit"",""6"",""15772""
","","","","","","1775","images/goat1.png","","","learning","images/animals_choice1.png","images/animals_choice2.png","images/animals_choice3.png","[0,1,2]","0","0","2","images/animals_choice2.png","1","animals","","goat","2","0"
"html-keyboard-response","126","584163","0.0-9.0-2.0-0.20","1590","2","2","""event"",""trial"",""time""
""focus"",""0"",""1""
""fullscreenenter"",""1"",""2505""
""fullscreenexit"",""6"",""15772""
","
","""event"",""trial"",""time""
""focus"",""0"",""1""
","""event"",""trial"",""time""
""fullscreenenter"",""1"",""2505""
","""event"",""trial"",""time""
""fullscreenexit"",""6"",""15772""
","","","","","","null","<div style=""font-size:60px;"">+</div>","null","","fixation","","","","","","","","","","","","","",""
"learning-trial","127","588174","0.0-9.0-2.0-1.20","1590","2","2","""event"",""trial"",""time""
""focus"",""0"",""1""
""fullscreenenter"",""1"",""2505""
""fullscreenexit"",""6"",""15772""
","
","""event"",""trial"",""time""
""focus"",""0"",""1""
","""event"",""trial"",""time""
""fullscreenenter"",""1"",""2505""
","""event"",""trial"",""time""
""fullscreenexit"",""6"",""15772""
","","","","","","1204","images/goat1.png","","","learning","images/animals_choice1.png","images/animals_choice3.png","images/animals_choice2.png","[0,2,1]","0","0","3","images/animals_choice2.png","-1","animals","","goat","2","0"
"html-keyboard-response","128","588693","0.0-9.0-2.0-0.21","1590","2","2","""event"",""trial"",""time""
""focus"",""0"",""1""
""fullscreenenter"",""1"",""2505""
""fullscreenexit"",""6"",""15772""
","
","""event"",""trial"",""time""
""focus"",""0"",""1""
","""event"",""trial"",""time""
""fullscreenenter"",""1"",""2505""
","""event"",""trial"",""time""
""fullscreenexit"",""6"",""15772""
","","","","","","null","<div style=""font-size:60px;"">+</div>","null","","fixation","","","","","","","","","","","","","",""
"learning-trial","129","592713","0.0-9.0-2.0-1.21","1590","2","2","""event"",""trial"",""time""
""focus"",""0"",""1""
""fullscreenenter"",""1"",""2505""
""fullscreenexit"",""6"",""15772""
","
","""event"",""trial"",""time""
""focus"",""0"",""1""
","""event"",""trial"",""time""
""fullscreenenter"",""1"",""2505""
","""event"",""trial"",""time""
""fullscreenexit"",""6"",""15772""
","","","","","","1844","images/horse2.png","","","learning","images/animals_choice1.png","images/animals_choice2.png","images/animals_choice3.png","[0,1,2]","1","1","2","images/animals_choice2.png","1","animals","","horse","2","0"
"html-keyboard-response","130","593233","0.0-9.0-2.0-0.22","1590","2","2","""event"",""trial"",""time""
""focus"",""0"",""1""
""fullscreenenter"",""1"",""2505""
""fullscreenexit"",""6"",""15772""
","
","""event"",""trial"",""time""
""focus"",""0"",""1""
","""event"",""trial"",""time""
""fullscreenenter"",""1"",""2505""
","""event"",""trial"",""time""
""fullscreenexit"",""6"",""15772""
","","","","","","null","<div style=""font-size:60px;"">+</div>","null","","fixation","","","","","","","","","","","","","",""
"learning-trial","131","597254","0.0-9.0-2.0-1.22","1590","2","2","""event"",""trial"",""time""
""focus"",""0"",""1""
""fullscreenenter"",""1"",""2505""
""fullscreenexit"",""6"",""15772""
","
","""event"",""trial"",""time""
""focus"",""0"",""1""
","""event"",""trial"",""time""
""fullscreenenter"",""1"",""2505""
","""event"",""trial"",""time""
""fullscreenexit"",""6"",""15772""
","","","","","","644","images/horse2.png","","","learning","images/animals_choice3.png","images/animals_choice1.png","images/animals_choice2.png","[2,0,1]","1","2","2","images/animals_choice1.png","-1","animals","","horse","2","0"
"html-keyboard-response","132","597763","0.0-9.0-2.0-0.23","1590","2","2","""event"",""trial"",""time""
""focus"",""0"",""1""
""fullscreenenter"",""1"",""2505""
""fullscreenexit"",""6"",""15772""
","
","""event"",""trial"",""time""
""focus"",""0"",""1""
","""event"",""trial"",""time""
""fullscreenenter"",""1"",""2505""
","""event"",""trial"",""time""
""fullscreenexit"",""6"",""15772""
","","","","","","null","<div style=""font-size:60px;"">+</div>","null","","fixation","","","","","","","","","","","","","",""
"learning-trial","133","601783","0.0-9.0-2.0-1.23","1590","2","2","""event"",""trial"",""time""
""focus"",""0"",""1""
""fullscreenenter"",""1"",""2505""
""fullscreenexit"",""6"",""15772""
","
","""event"",""trial"",""time""
""focus"",""0"",""1""
","""event"",""trial"",""time""
""fullscreenenter"",""1"",""2505""
","""event"",""trial"",""time""
""fullscreenexit"",""6"",""15772""
","","","","","","1686","images/horse2.png","","","learning","images/animals_choice2.png","images/animals_choice1.png","images/animals_choice3.png","[1,0,2]","1","0","1","images/animals_choice2.png","1","animals","","horse","2","0"
"html-keyboard-response","134","602303","0.0-9.0-2.0-0.24","1590","2","2","""event"",""trial"",""time""
""focus"",""0"",""1""
""fullscreenenter"",""1"",""2505""
""fullscreenexit"",""6"",""15772""
","
","""event"",""trial"",""time""
""focus"",""0"",""1""
","""event"",""trial"",""time""
""fullscreenenter"",""1"",""2505""
","""event"",""trial"",""time""
""fullscreenexit"",""6"",""15772""
","","","","","","null","<div style=""font-size:60px;"">+</div>","null","","fixation","","","","","","","","","","","","","",""
"learning-trial","135","606323","0.0-9.0-2.0-1.24","1590","2","2","""event"",""trial"",""time""
""focus"",""0"",""1""
""fullscreenenter"",""1"",""2505""
""fullscreenexit"",""6"",""15772""
","
","""event"",""trial"",""time""
""focus"",""0"",""1""
","""event"",""trial"",""time""
""fullscreenenter"",""1"",""2505""
","""event"",""trial"",""time""
""fullscreenexit"",""6"",""15772""
","","","","","","974","images/horse2.png","","","learning","images/animals_choice2.png","images/animals_choice1.png","images/animals_choice3.png","[1,0,2]","1","0","1","images/animals_choice2.png","1","animals","","horse","2","0"
"html-keyboard-response","136","606843","0.0-9.0-2.0-0.25","1590","2","2","""event"",""trial"",""time""
""focus"",""0"",""1""
""fullscreenenter"",""1"",""2505""
""fullscreenexit"",""6"",""15772""
","
","""event"",""trial"",""time""
""focus"",""0"",""1""
","""event"",""trial"",""time""
""fullscreenenter"",""1"",""2505""
","""event"",""trial"",""time""
""fullscreenexit"",""6"",""15772""
","","","","","","null","<div style=""font-size:60px;"">+</div>","null","","fixation","","","","","","","","","","","","","",""
"learning-trial","137","610854","0.0-9.0-2.0-1.25","1590","2","2","""event"",""trial"",""time""
""focus"",""0"",""1""
""fullscreenenter"",""1"",""2505""
""fullscreenexit"",""6"",""15772""
","
","""event"",""trial"",""time""
""focus"",""0"",""1""
","""event"",""trial"",""time""
""fullscreenenter"",""1"",""2505""
","""event"",""trial"",""time""
""fullscreenexit"",""6"",""15772""
","","","","","","1945","images/goat1.png","","","learning","images/animals_choice2.png","images/animals_choice1.png","images/animals_choice3.png","[1,0,2]","0","1","1","images/animals_choice2.png","1","animals","","goat","2","0"
"html-keyboard-response","138","611373","0.0-9.0-2.0-0.26","1590","2","2","""event"",""trial"",""time""
""focus"",""0"",""1""
""fullscreenenter"",""1"",""2505""
""fullscreenexit"",""6"",""15772""
","
","""event"",""trial"",""time""
""focus"",""0"",""1""
","""event"",""trial"",""time""
""fullscreenenter"",""1"",""2505""
","""event"",""trial"",""time""
""fullscreenexit"",""6"",""15772""
","","","","","","null","<div style=""font-size:60px;"">+</div>","null","","fixation","","","","","","","","","","","","","",""
"learning-trial","139","615395","0.0-9.0-2.0-1.26","1590","2","2","""event"",""trial"",""time""
""focus"",""0"",""1""
""fullscreenenter"",""1"",""2505""
""fullscreenexit"",""6"",""15772""
","
","""event"",""trial"",""time""
""focus"",""0"",""1""
","""event"",""trial"",""time""
""fullscreenenter"",""1"",""2505""
","""event"",""trial"",""time""
""fullscreenexit"",""6"",""15772""
","","","","","","1735","images/cow5.png","","","learning","images/animals_choice3.png","images/animals_choice1.png","images/animals_choice2.png","[2,0,1]","1","2","2","images/animals_choice1.png","1","animals","","cow","2","0"
"html-keyboard-response","140","615904","0.0-9.0-2.0-0.27","1590","2","2","""event"",""trial"",""time""
""focus"",""0"",""1""
""fullscreenenter"",""1"",""2505""
""fullscreenexit"",""6"",""15772""
","
","""event"",""trial"",""time""
""focus"",""0"",""1""
","""event"",""trial"",""time""
""fullscreenenter"",""1"",""2505""
","""event"",""trial"",""time""
""fullscreenexit"",""6"",""15772""
","","","","","","null","<div style=""font-size:60px;"">+</div>","null","","fixation","","","","","","","","","","","","","",""
"learning-trial","141","619914","0.0-9.0-2.0-1.27","1590","2","2","""event"",""trial"",""time""
""focus"",""0"",""1""
""fullscreenenter"",""1"",""2505""
""fullscreenexit"",""6"",""15772""
","
","""event"",""trial"",""time""
""focus"",""0"",""1""
","""event"",""trial"",""time""
""fullscreenenter"",""1"",""2505""
","""event"",""trial"",""time""
""fullscreenexit"",""6"",""15772""
","","","","","","1617","images/goat2.png","","","learning","images/animals_choice1.png","images/animals_choice2.png","images/animals_choice3.png","[0,1,2]","1","1","2","images/animals_choice2.png","1","animals","","goat","2","0"
"html-keyboard-response","142","620433","0.0-9.0-2.0-0.28","1590","2","2","""event"",""trial"",""time""
""focus"",""0"",""1""
""fullscreenenter"",""1"",""2505""
""fullscreenexit"",""6"",""15772""
","
","""event"",""trial"",""time""
""focus"",""0"",""1""
","""event"",""trial"",""time""
""fullscreenenter"",""1"",""2505""
","""event"",""trial"",""time""
""fullscreenexit"",""6"",""15772""
","","","","","","null","<div style=""font-size:60px;"">+</div>","null","","fixation","","","","","","","","","","","","","",""
"learning-trial","143","624453","0.0-9.0-2.0-1.28","1590","2","2","""event"",""trial"",""time""
""focus"",""0"",""1""
""fullscreenenter"",""1"",""2505""
""fullscreenexit"",""6"",""15772""
","
","""event"",""trial"",""time""
""focus"",""0"",""1""
","""event"",""trial"",""time""
""fullscreenenter"",""1"",""2505""
","""event"",""trial"",""time""
""fullscreenexit"",""6"",""15772""
","","","","","","1323","images/cow1.png","","","learning","images/animals_choice2.png","images/animals_choice1.png","images/animals_choice3.png","[1,0,2]","0","1","1","images/animals_choice2.png","-1","animals","","cow","2","0"
"html-keyboard-response","144","624973","0.0-9.0-2.0-0.29","1590","2","2","""event"",""trial"",""time""
""focus"",""0"",""1""
""fullscreenenter"",""1"",""2505""
""fullscreenexit"",""6"",""15772""
","
","""event"",""trial"",""time""
""focus"",""0"",""1""
","""event"",""trial"",""time""
""fullscreenenter"",""1"",""2505""
","""event"",""trial"",""time""
""fullscreenexit"",""6"",""15772""
","","","","","","null","<div style=""font-size:60px;"">+</div>","null","","fixation","","","","","","","","","","","","","",""
"learning-trial","145","628994","0.0-9.0-2.0-1.29","1590","2","2","""event"",""trial"",""time""
""focus"",""0"",""1""
""fullscreenenter"",""1"",""2505""
""fullscreenexit"",""6"",""15772""
","
","""event"",""trial"",""time""
""focus"",""0"",""1""
","""event"",""trial"",""time""
""fullscreenenter"",""1"",""2505""
","""event"",""trial"",""time""
""fullscreenexit"",""6"",""15772""
","","","","","","1325","images/goat3.png","","","learning","images/animals_choice2.png","images/animals_choice1.png","images/animals_choice3.png","[1,0,2]","2","2","1","images/animals_choice2.png","-1","animals","","goat","2","0"
"html-keyboard-response","146","629503","0.0-9.0-2.0-0.30","1590","2","2","""event"",""trial"",""time""
""focus"",""0"",""1""
""fullscreenenter"",""1"",""2505""
""fullscreenexit"",""6"",""15772""
","
","""event"",""trial"",""time""
""focus"",""0"",""1""
","""event"",""trial"",""time""
""fullscreenenter"",""1"",""2505""
","""event"",""trial"",""time""
""fullscreenexit"",""6"",""15772""
","","","","","","null","<div style=""font-size:60px;"">+</div>","null","","fixation","","","","","","","","","","","","","",""
"learning-trial","147","633513","0.0-9.0-2.0-1.30","1590","2","2","""event"",""trial"",""time""
""focus"",""0"",""1""
""fullscreenenter"",""1"",""2505""
""fullscreenexit"",""6"",""15772""
","
","""event"",""trial"",""time""
""focus"",""0"",""1""
","""event"",""trial"",""time""
""fullscreenenter"",""1"",""2505""
","""event"",""trial"",""time""
""fullscreenexit"",""6"",""15772""
","","","","","","1664","images/horse5.png","","","learning","images/animals_choice2.png","images/animals_choice1.png","images/animals_choice3.png","[1,0,2]","2","2","1","images/animals_choice2.png","-1","animals","","horse","2","0"
"html-keyboard-response","148","634034","0.0-9.0-2.0-0.31","1590","2","2","""event"",""trial"",""time""
""focus"",""0"",""1""
""fullscreenenter"",""1"",""2505""
""fullscreenexit"",""6"",""15772""
","
","""event"",""trial"",""time""
""focus"",""0"",""1""
","""event"",""trial"",""time""
""fullscreenenter"",""1"",""2505""
","""event"",""trial"",""time""
""fullscreenexit"",""6"",""15772""
","","","","","","null","<div style=""font-size:60px;"">+</div>","null","","fixation","","","","","","","","","","","","","",""
"learning-trial","149","638054","0.0-9.0-2.0-1.31","1590","2","2","""event"",""trial"",""time""
""focus"",""0"",""1""
""fullscreenenter"",""1"",""2505""
""fullscreenexit"",""6"",""15772""
","
","""event"",""trial"",""time""
""focus"",""0"",""1""
","""event"",""trial"",""time""
""fullscreenenter"",""1"",""2505""
","""event"",""trial"",""time""
""fullscreenexit"",""6"",""15772""
","","","","","","1553","images/horse2.png","","","learning","images/animals_choice1.png","images/animals_choice2.png","images/animals_choice3.png","[0,1,2]","1","1","2","images/animals_choice2.png","1","animals","","horse","2","0"
"html-keyboard-response","150","638573","0.0-9.0-2.0-0.32","1590","2","2","""event"",""trial"",""time""
""focus"",""0"",""1""
""fullscreenenter"",""1"",""2505""
""fullscreenexit"",""6"",""15772""
","
","""event"",""trial"",""time""
""focus"",""0"",""1""
","""event"",""trial"",""time""
""fullscreenenter"",""1"",""2505""
","""event"",""trial"",""time""
""fullscreenexit"",""6"",""15772""
","","","","","","null","<div style=""font-size:60px;"">+</div>","null","","fixation","","","","","","","","","","","","","",""
"learning-trial","151","642584","0.0-9.0-2.0-1.32","1590","2","2","""event"",""trial"",""time""
""focus"",""0"",""1""
""fullscreenenter"",""1"",""2505""
""fullscreenexit"",""6"",""15772""
","
","""event"",""trial"",""time""
""focus"",""0"",""1""
","""event"",""trial"",""time""
""fullscreenenter"",""1"",""2505""
","""event"",""trial"",""time""
""fullscreenexit"",""6"",""15772""
","","","","","","1715","images/cow5.png","","","learning","images/animals_choice2.png","images/animals_choice3.png","images/animals_choice1.png","[1,2,0]","1","0","1","images/animals_choice2.png","1","animals","","cow","2","0"
"html-keyboard-response","152","643103","0.0-9.0-2.0-0.33","1590","2","2","""event"",""trial"",""time""
""focus"",""0"",""1""
""fullscreenenter"",""1"",""2505""
""fullscreenexit"",""6"",""15772""
","
","""event"",""trial"",""time""
""focus"",""0"",""1""
","""event"",""trial"",""time""
""fullscreenenter"",""1"",""2505""
","""event"",""trial"",""time""
""fullscreenexit"",""6"",""15772""
","","","","","","null","<div style=""font-size:60px;"">+</div>","null","","fixation","","","","","","","","","","","","","",""
"learning-trial","153","647122","0.0-9.0-2.0-1.33","1590","2","2","""event"",""trial"",""time""
""focus"",""0"",""1""
""fullscreenenter"",""1"",""2505""
""fullscreenexit"",""6"",""15772""
","
","""event"",""trial"",""time""
""focus"",""0"",""1""
","""event"",""trial"",""time""
""fullscreenenter"",""1"",""2505""
","""event"",""trial"",""time""
""fullscreenexit"",""6"",""15772""
","","","","","","1124","images/goat3.png","","","learning","images/animals_choice2.png","images/animals_choice3.png","images/animals_choice1.png","[1,2,0]","2","1","1","images/animals_choice2.png","-1","animals","","goat","2","0"
"html-keyboard-response","154","647634","0.0-9.0-2.0-0.34","1590","2","2","""event"",""trial"",""time""
""focus"",""0"",""1""
""fullscreenenter"",""1"",""2505""
""fullscreenexit"",""6"",""15772""
","
","""event"",""trial"",""time""
""focus"",""0"",""1""
","""event"",""trial"",""time""
""fullscreenenter"",""1"",""2505""
","""event"",""trial"",""time""
""fullscreenexit"",""6"",""15772""
","","","","","","null","<div style=""font-size:60px;"">+</div>","null","","fixation","","","","","","","","","","","","","",""
"learning-trial","155","651654","0.0-9.0-2.0-1.34","1590","2","2","""event"",""trial"",""time""
""focus"",""0"",""1""
""fullscreenenter"",""1"",""2505""
""fullscreenexit"",""6"",""15772""
","
","""event"",""trial"",""time""
""focus"",""0"",""1""
","""event"",""trial"",""time""
""fullscreenenter"",""1"",""2505""
","""event"",""trial"",""time""
""fullscreenexit"",""6"",""15772""
","","","","","","1863","images/goat1.png","","","learning","images/animals_choice3.png","images/animals_choice1.png","images/animals_choice2.png","[2,0,1]","0","1","3","images/animals_choice2.png","-1","animals","","goat","2","0"
"html-keyboard-response","156","652174","0.0-9.0-2.0-0.35","1590","2","2","""event"",""trial"",""time""
""focus"",""0"",""1""
""fullscreenenter"",""1"",""2505""
""fullscreenexit"",""6"",""15772""
","
","""event"",""trial"",""time""
""focus"",""0"",""1""
","""event"",""trial"",""time""
""fullscreenenter"",""1"",""2505""
","""event"",""trial"",""time""
""fullscreenexit"",""6"",""15772""
","","","","","","null","<div style=""font-size:60px;"">+</div>","null","","fixation","","","","","","","","","","","","","",""
"learning-trial","157","656195","0.0-9.0-2.0-1.35","1590","2","2","""event"",""trial"",""time""
""focus"",""0"",""1""
""fullscreenenter"",""1"",""2505""
""fullscreenexit"",""6"",""15772""
","
","""event"",""trial"",""time""
""focus"",""0"",""1""
","""event"",""trial"",""time""
""fullscreenenter"",""1"",""2505""
","""event"",""trial"",""time""
""fullscreenexit"",""6"",""15772""
","","","","","","2323","images/horse5.png","","","learning","images/animals_choice1.png","images/animals_choice3.png","images/animals_choice2.png","[0,2,1]","2","1","1","images/animals_choice1.png","-1","animals","","horse","2","0"
"html-keyboard-response","158","656714","0.0-9.0-2.0-0.36","1590","2","2","""event"",""trial"",""time""
""focus"",""0"",""1""
""fullscreenenter"",""1"",""2505""
""fullscreenexit"",""6"",""15772""
","
","""event"",""trial"",""time""
""focus"",""0"",""1""
","""event"",""trial"",""time""
""fullscreenenter"",""1"",""2505""
","""event"",""trial"",""time""
""fullscreenexit"",""6"",""15772""
","","","","","","null","<div style=""font-size:60px;"">+</div>","null","","fixation","","","","","","","","","","","","","",""
"learning-trial","159","660734","0.0-9.0-2.0-1.36","1590","2","2","""event"",""trial"",""time""
""focus"",""0"",""1""
""fullscreenenter"",""1"",""2505""
""fullscreenexit"",""6"",""15772""
","
","""event"",""trial"",""time""
""focus"",""0"",""1""
","""event"",""trial"",""time""
""fullscreenenter"",""1"",""2505""
","""event"",""trial"",""time""
""fullscreenexit"",""6"",""15772""
","","","","","","1294","images/goat3.png","","","learning","images/animals_choice1.png","images/animals_choice2.png","images/animals_choice3.png","[0,1,2]","2","2","2","images/animals_choice2.png","-1","animals","","goat","2","0"
"html-keyboard-response","160","661244","0.0-9.0-2.0-0.37","1590","2","2","""event"",""trial"",""time""
""focus"",""0"",""1""
""fullscreenenter"",""1"",""2505""
""fullscreenexit"",""6"",""15772""
","
","""event"",""trial"",""time""
""focus"",""0"",""1""
","""event"",""trial"",""time""
""fullscreenenter"",""1"",""2505""
","""event"",""trial"",""time""
""fullscreenexit"",""6"",""15772""
","","","","","","null","<div style=""font-size:60px;"">+</div>","null","","fixation","","","","","","","","","","","","","",""
"learning-trial","161","665255","0.0-9.0-2.0-1.37","1590","2","2","""event"",""trial"",""time""
""focus"",""0"",""1""
""fullscreenenter"",""1"",""2505""
""fullscreenexit"",""6"",""15772""
","
","""event"",""trial"",""time""
""focus"",""0"",""1""
","""event"",""trial"",""time""
""fullscreenenter"",""1"",""2505""
","""event"",""trial"",""time""
""fullscreenexit"",""6"",""15772""
","","","","","","1313","images/goat3.png","","","learning","images/animals_choice1.png","images/animals_choice3.png","images/animals_choice2.png","[0,2,1]","2","1","3","images/animals_choice2.png","1","animals","","goat","2","0"
"html-keyboard-response","162","665774","0.0-9.0-2.0-0.38","1590","2","2","""event"",""trial"",""time""
""focus"",""0"",""1""
""fullscreenenter"",""1"",""2505""
""fullscreenexit"",""6"",""15772""
","
","""event"",""trial"",""time""
""focus"",""0"",""1""
","""event"",""trial"",""time""
""fullscreenenter"",""1"",""2505""
","""event"",""trial"",""time""
""fullscreenexit"",""6"",""15772""
","","","","","","null","<div style=""font-size:60px;"">+</div>","null","","fixation","","","","","","","","","","","","","",""
"learning-trial","163","669795","0.0-9.0-2.0-1.38","1590","2","2","""event"",""trial"",""time""
""focus"",""0"",""1""
""fullscreenenter"",""1"",""2505""
""fullscreenexit"",""6"",""15772""
","
","""event"",""trial"",""time""
""focus"",""0"",""1""
","""event"",""trial"",""time""
""fullscreenenter"",""1"",""2505""
","""event"",""trial"",""time""
""fullscreenexit"",""6"",""15772""
","","","","","","1863","images/horse5.png","","","learning","images/animals_choice1.png","images/animals_choice3.png","images/animals_choice2.png","[0,2,1]","2","1","1","images/animals_choice1.png","-1","animals","","horse","2","0"
"html-keyboard-response","164","670313","0.0-9.0-2.0-0.39","1590","2","2","""event"",""trial"",""time""
""focus"",""0"",""1""
""fullscreenenter"",""1"",""2505""
""fullscreenexit"",""6"",""15772""
","
","""event"",""trial"",""time""
""focus"",""0"",""1""
","""event"",""trial"",""time""
""fullscreenenter"",""1"",""2505""
","""event"",""trial"",""time""
""fullscreenexit"",""6"",""15772""
","","","","","","null","<div style=""font-size:60px;"">+</div>","null","","fixation","","","","","","","","","","","","","",""
"learning-trial","165","674325","0.0-9.0-2.0-1.39","1590","2","2","""event"",""trial"",""time""
""focus"",""0"",""1""
""fullscreenenter"",""1"",""2505""
""fullscreenexit"",""6"",""15772""
","
","""event"",""trial"",""time""
""focus"",""0"",""1""
","""event"",""trial"",""time""
""fullscreenenter"",""1"",""2505""
","""event"",""trial"",""time""
""fullscreenexit"",""6"",""15772""
","","","","","","1913","images/horse1.png","","","learning","images/animals_choice1.png","images/animals_choice2.png","images/animals_choice3.png","[0,1,2]","0","0","1","images/animals_choice1.png","1","animals","","horse","2","0"
"html-keyboard-response","166","674834","0.0-9.0-2.0-0.40","1590","2","2","""event"",""trial"",""time""
""focus"",""0"",""1""
""fullscreenenter"",""1"",""2505""
""fullscreenexit"",""6"",""15772""
","
","""event"",""trial"",""time""
""focus"",""0"",""1""
","""event"",""trial"",""time""
""fullscreenenter"",""1"",""2505""
","""event"",""trial"",""time""
""fullscreenexit"",""6"",""15772""
","","","","","","null","<div style=""font-size:60px;"">+</div>","null","","fixation","","","","","","","","","","","","","",""
"learning-trial","167","678845","0.0-9.0-2.0-1.40","1590","2","2","""event"",""trial"",""time""
""focus"",""0"",""1""
""fullscreenenter"",""1"",""2505""
""fullscreenexit"",""6"",""15772""
","
","""event"",""trial"",""time""
""focus"",""0"",""1""
","""event"",""trial"",""time""
""fullscreenenter"",""1"",""2505""
","""event"",""trial"",""time""
""fullscreenexit"",""6"",""15772""
","","","","","","1084","images/horse1.png","","","learning","images/animals_choice1.png","images/animals_choice2.png","images/animals_choice3.png","[0,1,2]","0","0","1","images/animals_choice1.png","-1","animals","","horse","2","0"
"html-keyboard-response","168","679354","0.0-9.0-2.0-0.41","1590","2","2","""event"",""trial"",""time""
""focus"",""0"",""1""
""fullscreenenter"",""1"",""2505""
""fullscreenexit"",""6"",""15772""
","
","""event"",""trial"",""time""
""focus"",""0"",""1""
","""event"",""trial"",""time""
""fullscreenenter"",""1"",""2505""
","""event"",""trial"",""time""
""fullscreenexit"",""6"",""15772""
","","","","","","null","<div style=""font-size:60px;"">+</div>","null","","fixation","","","","","","","","","","","","","",""
"learning-trial","169","683364","0.0-9.0-2.0-1.41","1590","2","2","""event"",""trial"",""time""
""focus"",""0"",""1""
""fullscreenenter"",""1"",""2505""
""fullscreenexit"",""6"",""15772""
","
","""event"",""trial"",""time""
""focus"",""0"",""1""
","""event"",""trial"",""time""
