"trial_type","trial_index","time_elapsed","internal_node_id","subject_id","condition","task_version","interactions","blur_events","focus_events","fullscreenenter_events","fullscreenexit_events","success","timeout","failed_images","failed_audio","failed_video","rt","stimulus","response","button_pressed","task_part","left_choice","middle_choice","right_choice","choice_positions","correct_response","correct_position","key_press","option_selected","points","task_block","correct","stim_cat","block_condition","block_number"
"pavlovia","0","4","0.0-0.0","1556","1","2","""event"",""trial"",""time""
""fullscreenenter"",""1"",""2893""
","
","
","""event"",""trial"",""time""
""fullscreenenter"",""1"",""2893""
","
","","","","","","","","","","","","","","","","","","","","","","","",""
"fullscreen","1","3883","0.0-1.0","1556","1","2","""event"",""trial"",""time""
""fullscreenenter"",""1"",""2893""
","
","
","""event"",""trial"",""time""
""fullscreenenter"",""1"",""2893""
","
","true","","","","","","","","","","","","","","","","","","","","","","",""
"preload","2","7424","0.0-2.0","1556","1","2","""event"",""trial"",""time""
""fullscreenenter"",""1"",""2893""
","
","
","""event"",""trial"",""time""
""fullscreenenter"",""1"",""2893""
","
","true","false","[]","[]","[]","","","","","","","","","","","","","","","","","","",""
"audio-keyboard-response","3","12874","0.0-3.0","1556","1","2","""event"",""trial"",""time""
""fullscreenenter"",""1"",""2893""
","
","
","""event"",""trial"",""time""
""fullscreenenter"",""1"",""2893""
","
","","","","","","5450.666666666666","audio/beep_loop.wav"," ","","","","","","","","","","","","","","","",""
"audio-button-response","4","16249","0.0-4.0","1556","1","2","""event"",""trial"",""time""
""fullscreenenter"",""1"",""2893""
","
","
","""event"",""trial"",""time""
""fullscreenenter"",""1"",""2893""
","
","","","","","","3368","audio/shark.wav","4","","","","","","","","","","","","","","","",""
"audio-button-response","5","19032","0.0-5.0","1556","1","2","""event"",""trial"",""time""
""fullscreenenter"",""1"",""2893""
","
","
","""event"",""trial"",""time""
""fullscreenenter"",""1"",""2893""
","
","","","","","","1781","audio/turtle.wav","1","","","","","","","","","","","","","","","",""
"preload","6","23226","0.0-6.0","1556","1","2","""event"",""trial"",""time""
""fullscreenenter"",""1"",""2893""
","
","
","""event"",""trial"",""time""
""fullscreenenter"",""1"",""2893""
","
","true","false","[]","[]","[]","","","","","","","","","","","","","","","","","","",""
"html-keyboard-response","7","25230","0.0-7.0","1556","1","2","""event"",""trial"",""time""
""fullscreenenter"",""1"",""2893""
","
","
","""event"",""trial"",""time""
""fullscreenenter"",""1"",""2893""
","
","","","","","","2002.7000000476837","Welcome to the experiment. Press any key to begin and to advance the instructions."," ","","","","","","","","","","","","","","","",""
"learning-instructions","8","34467","0.0-8.0-0.0-0.0","1556","1","2","""event"",""trial"",""time""
""fullscreenenter"",""1"",""2893""
","
","
","""event"",""trial"",""time""
""fullscreenenter"",""1"",""2893""
","
","","","","","","1493.6000000238419","<p> Welcome! Today you are going to play 6 different rounds of a decision-making game. </p><p> Use the mouse to click next to continue. </p>","","0","instructions","","","","","","","","","","","","","",""
"learning-instructions","9","38237","0.0-8.0-0.0-0.1","1556","1","2","""event"",""trial"",""time""
""fullscreenenter"",""1"",""2893""
","
","
","""event"",""trial"",""time""
""fullscreenenter"",""1"",""2893""
","
","","","","","","764.4000000357628","<p> You will start with a practice round to learn the rules. </p>","","0","instructions","","","","","","","","","","","","","",""
"learning-instructions","10","47070","0.0-8.0-0.0-0.2","1556","1","2","""event"",""trial"",""time""
""fullscreenenter"",""1"",""2893""
","
","
","""event"",""trial"",""time""
""fullscreenenter"",""1"",""2893""
","
","","","","","","1087.7999999523163","<p> Your goal in this round is to deliver sports equipment to three different parks. </p><p> You will need to deliver many types of equipment. </p></div>","","0","instructions","","","","","","","","","","","","","",""
"learning-instructions","11","56101","0.0-8.0-0.0-0.3","1556","1","2","""event"",""trial"",""time""
""fullscreenenter"",""1"",""2893""
","
","
","""event"",""trial"",""time""
""fullscreenenter"",""1"",""2893""
","
","","","","","","549","<p> On each turn, you will see one piece of sports equipment and three different parks.  </p><p> You need to select which park to deliver the equipment to.  </p>","","0","instructions","","","","","","","","","","","","","",""
"learning-instructions","12","70585","0.0-8.0-0.0-0.4","1556","1","2","""event"",""trial"",""time""
""fullscreenenter"",""1"",""2893""
","
","
","""event"",""trial"",""time""
""fullscreenenter"",""1"",""2893""
","
","","","","","","1192.199999988079","<p> You can select the park on the left by pressing the '1' key on your keyboard. <br>You can select the park in the middle by pressing the '2' key on your keyboard. <br>You can select the park on the right by pressing the '3' key on your keyboard.  </p><br><div class=""choice-instructions-grid""> <div class=""choice-option""><img src=""images/park1.png"" class=""choice-option-img"" stage=""instructions"" position=""0"" ><div class=""choice-option-text""> Press ""1."" </div></div><div class=""choice-option""><img src=""images/park2.png"" class=""choice-option-img"" stage=""instructions"" position=""1"" ><div class=""choice-option-text""> Press ""2."" </div></div><div class=""choice-option""><img src=""images/park3.png"" class=""choice-option-img"" stage=""instructions"" position=""2"" ><div class=""choice-option-text""> Press ""3."" </div></div></div>","","0","instructions","","","","","","","","","","","","","",""
"learning-instructions","13","77167","0.0-8.0-0.0-0.5","1556","1","2","""event"",""trial"",""time""
""fullscreenenter"",""1"",""2893""
","
","
","""event"",""trial"",""time""
""fullscreenenter"",""1"",""2893""
","
","","","","","","1195","<p> If the kids in the park you chose like the equipment, they will be very happy! </p><div style='float: center;'><img src='images/check.png' width = '200' height = '200'></img>","","0","instructions","","","","","","","","","","","","","",""
"learning-instructions","14","85035","0.0-8.0-0.0-0.6","1556","1","2","""event"",""trial"",""time""
""fullscreenenter"",""1"",""2893""
","
","
","""event"",""trial"",""time""
""fullscreenenter"",""1"",""2893""
","
","","","","","","2273.399999976158","<p> But, if the kids in the park you chose do not like the equipment, they will be sad. </p><div style='float: center;'><img src='images/x.png' width = '200' height = '200'></img>","","0","instructions","","","","","","","","","","","","","",""
"learning-instructions","15","92179","0.0-8.0-0.0-0.7","1556","1","2","""event"",""trial"",""time""
""fullscreenenter"",""1"",""2893""
","
","
","""event"",""trial"",""time""
""fullscreenenter"",""1"",""2893""
","
","","","","","","707.5","<p> Importantly, the kids in each park like some pieces of sports equipment more than others. </p>","","0","instructions","","","","","","","","","","","","","",""
"learning-instructions","16","99276","0.0-8.0-0.0-0.8","1556","1","2","""event"",""trial"",""time""
""fullscreenenter"",""1"",""2893""
","
","
","""event"",""trial"",""time""
""fullscreenenter"",""1"",""2893""
","
","","","","","","1044","<p> If you choose the best park for each piece of equipment, the kids there will usually be happy. </p>","","0","instructions","","","","","","","","","","","","","",""
"learning-instructions","17","107292","0.0-8.0-0.0-0.9","1556","1","2","""event"",""trial"",""time""
""fullscreenenter"",""1"",""2893""
","
","
","""event"",""trial"",""time""
""fullscreenenter"",""1"",""2893""
","
","","","","","","1370.800000011921","<p> However, even if you choose the best park for the equipment, the kids may sometimes be sad. </p>","","0","instructions","","","","","","","","","","","","","",""
"learning-instructions","18","115811","0.0-8.0-0.0-0.10","1556","1","2","""event"",""trial"",""time""
""fullscreenenter"",""1"",""2893""
","
","
","""event"",""trial"",""time""
""fullscreenenter"",""1"",""2893""
","
","","","","","","1280.0999999642372","<p> Similarly, even if you choose the <i>wrong</i> park for the equipment, the kids may still be happy sometimes.","","0","instructions","","","","","","","","","","","","","",""
"learning-instructions","19","123660","0.0-8.0-0.0-0.11","1556","1","2","""event"",""trial"",""time""
""fullscreenenter"",""1"",""2893""
","
","
","""event"",""trial"",""time""
""fullscreenenter"",""1"",""2893""
","
","","","","","","2779.100000023842","<p> For example, the best park for this soccer ball is this one.<div style='float: center;'><img src='images/i1.png' width = '500' height = '268'></img>","","0","instructions","","","","","","","","","","","","","",""
"learning-instructions","20","130081","0.0-8.0-0.0-0.12","1556","1","2","""event"",""trial"",""time""
""fullscreenenter"",""1"",""2893""
","
","
","""event"",""trial"",""time""
""fullscreenenter"",""1"",""2893""
","
","","","","","","1129.800000011921","<p> Let's see what happens if you choose this park for the soccer ball five times.","","0","instructions","","","","","","","","","","","","","",""
"learning-instructions","21","135007","0.0-8.0-0.0-0.13","1556","1","2","""event"",""trial"",""time""
""fullscreenenter"",""1"",""2893""
","
","
","""event"",""trial"",""time""
""fullscreenenter"",""1"",""2893""
","
","","","","","","2746.199999988079","<p> The kids are happy.<div style='float: left;'><img src='images/i2.png' width = '640' height = '360'></img>","","0","instructions","","","","","","","","","","","","","",""
"learning-instructions","22","137811","0.0-8.0-0.0-0.14","1556","1","2","""event"",""trial"",""time""
""fullscreenenter"",""1"",""2893""
","
","
","""event"",""trial"",""time""
""fullscreenenter"",""1"",""2893""
","
","","","","","","629.7999999523163","<p> The kids are happy.<div style='float: left;'><img src='images/i3.png' width = '640' height = '360'></img>","","0","instructions","","","","","","","","","","","","","",""
"learning-instructions","23","140343","0.0-8.0-0.0-0.15","1556","1","2","""event"",""trial"",""time""
""fullscreenenter"",""1"",""2893""
","
","
","""event"",""trial"",""time""
""fullscreenenter"",""1"",""2893""
","
","","","","","","362","<p> The kids are happy.<div style='float: left;'><img src='images/i4.png' width = '640' height = '360'></img>","","0","instructions","","","","","","","","","","","","","",""
"learning-instructions","24","142888","0.0-8.0-0.0-0.16","1556","1","2","""event"",""trial"",""time""
""fullscreenenter"",""1"",""2893""
","
","
","""event"",""trial"",""time""
""fullscreenenter"",""1"",""2893""
","
","","","","","","337.5","<p> The kids are sad.<div style='float: left;'><img src='images/i5.png' width = '640' height = '360'></img>","","0","instructions","","","","","","","","","","","","","",""
"learning-instructions","25","145591","0.0-8.0-0.0-0.17","1556","1","2","""event"",""trial"",""time""
""fullscreenenter"",""1"",""2893""
","
","
","""event"",""trial"",""time""
""fullscreenenter"",""1"",""2893""
","
","","","","","","529.6999999880791","<p> The kids are happy.<div style='float: left;'><img src='images/i6.png' width = '640' height = '360'></img>","","0","instructions","","","","","","","","","","","","","",""
"learning-instructions","26","154352","0.0-8.0-0.0-0.18","1556","1","2","""event"",""trial"",""time""
""fullscreenenter"",""1"",""2893""
","
","
","""event"",""trial"",""time""
""fullscreenenter"",""1"",""2893""
","
","","","","","","1471.1000000238419","<p> As you can see, selecting that park for the soccer ball made the kids happy most of the time, but not all the time.","","0","instructions","","","","","","","","","","","","","",""
"learning-instructions","27","160936","0.0-8.0-0.0-0.19","1556","1","2","""event"",""trial"",""time""
""fullscreenenter"",""1"",""2893""
","
","
","""event"",""trial"",""time""
""fullscreenenter"",""1"",""2893""
","
","","","","","","566.1000000238419","<p> Now let's see what happens if you choose a DIFFERENT park for the soccer ball 5 times.","","0","instructions","","","","","","","","","","","","","",""
"learning-instructions","28","163447","0.0-8.0-0.0-0.20","1556","1","2","""event"",""trial"",""time""
""fullscreenenter"",""1"",""2893""
","
","
","""event"",""trial"",""time""
""fullscreenenter"",""1"",""2893""
","
","","","","","","306","<p> The kids are sad.<div style='float: left;'><img src='images/i7.png' width = '640' height = '360'></img>","","0","instructions","","","","","","","","","","","","","",""
"learning-instructions","29","165869","0.0-8.0-0.0-0.21","1556","1","2","""event"",""trial"",""time""
""fullscreenenter"",""1"",""2893""
","
","
","""event"",""trial"",""time""
""fullscreenenter"",""1"",""2893""
","
","","","","","","208.79999995231628","<p> The kids are sad.<div style='float: left;'><img src='images/i8.png' width = '640' height = '360'></img>","","0","instructions","","","","","","","","","","","","","",""
"learning-instructions","30","168339","0.0-8.0-0.0-0.22","1556","1","2","""event"",""trial"",""time""
""fullscreenenter"",""1"",""2893""
","
","
","""event"",""trial"",""time""
""fullscreenenter"",""1"",""2893""
","
","","","","","","308.30000001192093","<p> The kids are happy.<div style='float: left;'><img src='images/i9.png' width = '640' height = '360'></img>","","0","instructions","","","","","","","","","","","","","",""
"learning-instructions","31","170782","0.0-8.0-0.0-0.23","1556","1","2","""event"",""trial"",""time""
""fullscreenenter"",""1"",""2893""
","
","
","""event"",""trial"",""time""
""fullscreenenter"",""1"",""2893""
","
","","","","","","231.5","<p> The kids are sad.<div style='float: left;'><img src='images/i10.png' width = '640' height = '360'></img>","","0","instructions","","","","","","","","","","","","","",""
"learning-instructions","32","174253","0.0-8.0-0.0-0.24","1556","1","2","""event"",""trial"",""time""
""fullscreenenter"",""1"",""2893""
","
","
","""event"",""trial"",""time""
""fullscreenenter"",""1"",""2893""
","
","","","","","","1262.5","<p> The kids are sad.<div style='float: left;'><img src='images/i11.png' width = '640' height = '360'></img>","","0","instructions","","","","","","","","","","","","","",""
"learning-instructions","33","184855","0.0-8.0-0.0-0.25","1556","1","2","""event"",""trial"",""time""
""fullscreenenter"",""1"",""2893""
","
","
","""event"",""trial"",""time""
""fullscreenenter"",""1"",""2893""
","
","","","","","","2474.899999976158","<p> As you can see, selecting the wrong park for the soccer ball made the kids sad most of the time, but not all the time.","","0","instructions","","","","","","","","","","","","","",""
"learning-instructions","34","195586","0.0-8.0-0.0-0.26","1556","1","2","""event"",""trial"",""time""
""fullscreenenter"",""1"",""2893""
","
","
","""event"",""trial"",""time""
""fullscreenenter"",""1"",""2893""
","
","","","","","","1605.6000000238419","<p> The different pieces of equipment belong in different parks. You need to try to learn which is the best park for each piece of equipment.","","0","instructions","","","","","","","","","","","","","",""
"learning-instructions","35","213513","0.0-8.0-0.0-0.27","1556","1","2","""event"",""trial"",""time""
""fullscreenenter"",""1"",""2893""
","
","
","""event"",""trial"",""time""
""fullscreenenter"",""1"",""2893""
","
","","","","","","1533.199999988079","<p> Try to choose the best park for each piece of equipment, because you will <b> WIN </b> 1 point for each time you make the kids happy and <b>LOSE</b> 1 point for each time you make them sad. </p><p> Remember, if you make the best choice, you will win 1 point most of the time, but not all the time. </p>","","0","instructions","","","","","","","","","","","","","",""
"learning-instructions","36","219717","0.0-8.0-0.0-0.28","1556","1","2","""event"",""trial"",""time""
""fullscreenenter"",""1"",""2893""
","
","
","""event"",""trial"",""time""
""fullscreenenter"",""1"",""2893""
","
","","","","","","717.3000000119209","<p> This is just a practice round, but in the real game, your bonus payment will depend on your total number of points.","","0","instructions","","","","","","","","","","","","","",""
"learning-instructions","37","231902","0.0-8.0-0.0-0.29","1556","1","2","""event"",""trial"",""time""
""fullscreenenter"",""1"",""2893""
","
","
","""event"",""trial"",""time""
""fullscreenenter"",""1"",""2893""
","
","","","","","","1862.199999988079","<p> The position where each park appears will change throughout the game. </p><p> The position where the park appears <i> does not </i> influence how likely the kids are to be happy or sad. </p>","","0","instructions","","","","","","","","","","","","","",""
"learning-instructions","38","243200","0.0-8.0-0.0-0.30","1556","1","2","""event"",""trial"",""time""
""fullscreenenter"",""1"",""2893""
","
","
","""event"",""trial"",""time""
""fullscreenenter"",""1"",""2893""
","
","","","","","","990.6000000238419","<p> You will have 4 seconds to make each choice. Try to respond before time runs out! </p><p> You will lose 1 point each time you do not make a response. </p>","","0","instructions","","","","","","","","","","","","","",""
"learning-instructions","39","251873","0.0-8.0-0.0-0.31","1556","1","2","""event"",""trial"",""time""
""fullscreenenter"",""1"",""2893""
","
","
","""event"",""trial"",""time""
""fullscreenenter"",""1"",""2893""
","
","","","","","","1863.2999999523163","<p> Remember, you should use the 1, 2, and 3 keys to select the park for each piece of equipment. </p><br><div class=""choice-instructions-grid""> <div class=""choice-option""><img src=""images/park1.png"" class=""choice-option-img"" stage=""instructions"" position=""0"" ><div class=""choice-option-text""> Press ""1."" </div></div><div class=""choice-option""><img src=""images/park2.png"" class=""choice-option-img"" stage=""instructions"" position=""1"" ><div class=""choice-option-text""> Press ""2."" </div></div><div class=""choice-option""><img src=""images/park3.png"" class=""choice-option-img"" stage=""instructions"" position=""2"" ><div class=""choice-option-text""> Press ""3."" </div></div></div>","","0","instructions","","","","","","","","","","","","","",""
"html-button-response","40","255331","0.0-8.0-1.0","1556","1","2","""event"",""trial"",""time""
""fullscreenenter"",""1"",""2893""
","
","
","""event"",""trial"",""time""
""fullscreenenter"",""1"",""2893""
","
","","","","","","3352","<p> Ready to practice? </p>","0","","","","","","","","","","","","","","","",""
"html-keyboard-response","41","255958","0.0-8.0-2.0-0.0","1556","1","2","""event"",""trial"",""time""
""fullscreenenter"",""1"",""2893""
","
","
","""event"",""trial"",""time""
""fullscreenenter"",""1"",""2893""
","
","","","","","","null","<div style=""font-size:60px;"">+</div>","null","","fixation","","","","","","","","","","","","","",""
"learning-trial","42","259978","0.0-8.0-2.0-1.0","1556","1","2","""event"",""trial"",""time""
""fullscreenenter"",""1"",""2893""
","
","
","""event"",""trial"",""time""
""fullscreenenter"",""1"",""2893""
","
","","","","","","3113.599999964237","images/racket4.png","","","practice","images/park1.png","images/park2.png","images/park3.png","[0,1,2]","1","1","2","images/park2.png","1","practice","","","",""
"html-keyboard-response","43","260494","0.0-8.0-2.0-0.1","1556","1","2","""event"",""trial"",""time""
""fullscreenenter"",""1"",""2893""
","
","
","""event"",""trial"",""time""
""fullscreenenter"",""1"",""2893""
","
","","","","","","null","<div style=""font-size:60px;"">+</div>","null","","fixation","","","","","","","","","","","","","",""
"learning-trial","44","264508","0.0-8.0-2.0-1.1","1556","1","2","""event"",""trial"",""time""
""fullscreenenter"",""1"",""2893""
","
","
","""event"",""trial"",""time""
""fullscreenenter"",""1"",""2893""
","
","","","","","","1735.9000000357628","images/racket2.png","","","practice","images/park2.png","images/park1.png","images/park3.png","[1,0,2]","0","1","2","images/park1.png","1","practice","","","",""
"html-keyboard-response","45","265018","0.0-8.0-2.0-0.2","1556","1","2","""event"",""trial"",""time""
""fullscreenenter"",""1"",""2893""
","
","
","""event"",""trial"",""time""
""fullscreenenter"",""1"",""2893""
","
","","","","","","null","<div style=""font-size:60px;"">+</div>","null","","fixation","","","","","","","","","","","","","",""
"learning-trial","46","269038","0.0-8.0-2.0-1.2","1556","1","2","""event"",""trial"",""time""
""fullscreenenter"",""1"",""2893""
","
","
","""event"",""trial"",""time""
""fullscreenenter"",""1"",""2893""
","
","","","","","","1020.5999999642372","images/racket3.png","","","practice","images/park3.png","images/park2.png","images/park1.png","[2,1,0]","2","0","2","images/park2.png","-1","practice","","","",""
"html-keyboard-response","47","269557","0.0-8.0-2.0-0.3","1556","1","2","""event"",""trial"",""time""
""fullscreenenter"",""1"",""2893""
","
","
","""event"",""trial"",""time""
""fullscreenenter"",""1"",""2893""
","
","","","","","","null","<div style=""font-size:60px;"">+</div>","null","","fixation","","","","","","","","","","","","","",""
"learning-trial","48","273578","0.0-8.0-2.0-1.3","1556","1","2","""event"",""trial"",""time""
""fullscreenenter"",""1"",""2893""
","
","
","""event"",""trial"",""time""
""fullscreenenter"",""1"",""2893""
","
","","","","","","403.19999998807907","images/ball3.png","","","practice","images/park3.png","images/park2.png","images/park1.png","[2,1,0]","2","0","3","images/park1.png","-1","practice","","","",""
"html-keyboard-response","49","274097","0.0-8.0-2.0-0.4","1556","1","2","""event"",""trial"",""time""
""fullscreenenter"",""1"",""2893""
","
","
","""event"",""trial"",""time""
""fullscreenenter"",""1"",""2893""
","
","","","","","","null","<div style=""font-size:60px;"">+</div>","null","","fixation","","","","","","","","","","","","","",""
"learning-trial","50","278118","0.0-8.0-2.0-1.4","1556","1","2","""event"",""trial"",""time""
""fullscreenenter"",""1"",""2893""
","
","
","""event"",""trial"",""time""
""fullscreenenter"",""1"",""2893""
","
","","","","","","313.60000002384186","images/ball4.png","","","practice","images/park1.png","images/park2.png","images/park3.png","[0,1,2]","1","1","2","images/park2.png","1","practice","","","",""
"html-keyboard-response","51","278627","0.0-8.0-2.0-0.5","1556","1","2","""event"",""trial"",""time""
""fullscreenenter"",""1"",""2893""
","
","
","""event"",""trial"",""time""
""fullscreenenter"",""1"",""2893""
","
","","","","","","null","<div style=""font-size:60px;"">+</div>","null","","fixation","","","","","","","","","","","","","",""
"learning-trial","52","282631","0.0-8.0-2.0-1.5","1556","1","2","""event"",""trial"",""time""
""fullscreenenter"",""1"",""2893""
","
","
","""event"",""trial"",""time""
""fullscreenenter"",""1"",""2893""
","
","","","","","","932.3000000119209","images/ball2.png","","","practice","images/park1.png","images/park2.png","images/park3.png","[0,1,2]","0","0","2","images/park2.png","-1","practice","","","",""
"html-keyboard-response","53","283132","0.0-8.0-2.0-0.6","1556","1","2","""event"",""trial"",""time""
""fullscreenenter"",""1"",""2893""
","
","
","""event"",""trial"",""time""
""fullscreenenter"",""1"",""2893""
","
","","","","","","null","<div style=""font-size:60px;"">+</div>","null","","fixation","","","","","","","","","","","","","",""
"learning-trial","54","287135","0.0-8.0-2.0-1.6","1556","1","2","""event"",""trial"",""time""
""fullscreenenter"",""1"",""2893""
","
","
","""event"",""trial"",""time""
""fullscreenenter"",""1"",""2893""
","
","","","","","","1882.699999988079","images/ball3.png","","","practice","images/park3.png","images/park2.png","images/park1.png","[2,1,0]","2","0","2","images/park2.png","-1","practice","","","",""
"html-keyboard-response","55","287636","0.0-8.0-2.0-0.7","1556","1","2","""event"",""trial"",""time""
""fullscreenenter"",""1"",""2893""
","
","
","""event"",""trial"",""time""
""fullscreenenter"",""1"",""2893""
","
","","","","","","null","<div style=""font-size:60px;"">+</div>","null","","fixation","","","","","","","","","","","","","",""
"learning-trial","56","291639","0.0-8.0-2.0-1.7","1556","1","2","""event"",""trial"",""time""
""fullscreenenter"",""1"",""2893""
","
","
","""event"",""trial"",""time""
""fullscreenenter"",""1"",""2893""
","
","","","","","","115.60000002384186","images/racket4.png","","","practice","images/park1.png","images/park3.png","images/park2.png","[0,2,1]","1","2","2","images/park3.png","-1","practice","","","",""
"html-keyboard-response","57","292141","0.0-8.0-2.0-0.8","1556","1","2","""event"",""trial"",""time""
""fullscreenenter"",""1"",""2893""
","
","
","""event"",""trial"",""time""
""fullscreenenter"",""1"",""2893""
","
","","","","","","null","<div style=""font-size:60px;"">+</div>","null","","fixation","","","","","","","","","","","","","",""
"learning-trial","58","296143","0.0-8.0-2.0-1.8","1556","1","2","""event"",""trial"",""time""
""fullscreenenter"",""1"",""2893""
","
","
","""event"",""trial"",""time""
""fullscreenenter"",""1"",""2893""
","
","","","","","","286.0999999642372","images/racket2.png","","","practice","images/park2.png","images/park3.png","images/park1.png","[1,2,0]","0","2","2","images/park3.png","-1","practice","","","",""
"html-keyboard-response","59","296644","0.0-8.0-2.0-0.9","1556","1","2","""event"",""trial"",""time""
""fullscreenenter"",""1"",""2893""
","
","
","""event"",""trial"",""time""
""fullscreenenter"",""1"",""2893""
","
","","","","","","null","<div style=""font-size:60px;"">+</div>","null","","fixation","","","","","","","","","","","","","",""
"learning-trial","60","300647","0.0-8.0-2.0-1.9","1556","1","2","""event"",""trial"",""time""
""fullscreenenter"",""1"",""2893""
","
","
","""event"",""trial"",""time""
""fullscreenenter"",""1"",""2893""
","
","","","","","","368.30000001192093","images/ball4.png","","","practice","images/park2.png","images/park3.png","images/park1.png","[1,2,0]","1","0","2","images/park3.png","-1","practice","","","",""
"html-keyboard-response","61","301148","0.0-8.0-2.0-0.10","1556","1","2","""event"",""trial"",""time""
""fullscreenenter"",""1"",""2893""
","
","
","""event"",""trial"",""time""
""fullscreenenter"",""1"",""2893""
","
","","","","","","null","<div style=""font-size:60px;"">+</div>","null","","fixation","","","","","","","","","","","","","",""
"learning-trial","62","305150","0.0-8.0-2.0-1.10","1556","1","2","""event"",""trial"",""time""
""fullscreenenter"",""1"",""2893""
","
","
","""event"",""trial"",""time""
""fullscreenenter"",""1"",""2893""
","
","","","","","","14.400000035762787","images/racket3.png","","","practice","images/park3.png","images/park2.png","images/park1.png","[2,1,0]","2","0","2","images/park2.png","-1","practice","","","",""
"html-keyboard-response","63","305651","0.0-8.0-2.0-0.11","1556","1","2","""event"",""trial"",""time""
""fullscreenenter"",""1"",""2893""
","
","
","""event"",""trial"",""time""
""fullscreenenter"",""1"",""2893""
","
","","","","","","null","<div style=""font-size:60px;"">+</div>","null","","fixation","","","","","","","","","","","","","",""
"learning-trial","64","309653","0.0-8.0-2.0-1.11","1556","1","2","""event"",""trial"",""time""
""fullscreenenter"",""1"",""2893""
","
","
","""event"",""trial"",""time""
""fullscreenenter"",""1"",""2893""
","
","","","","","","432.19999998807907","images/ball2.png","","","practice","images/park2.png","images/park3.png","images/park1.png","[1,2,0]","0","2","1","images/park2.png","-1","practice","","","",""
"html-button-response","65","311672","0.0-8.0-3.0","1556","1","2","""event"",""trial"",""time""
""fullscreenenter"",""1"",""2893""
","
","
","""event"",""trial"",""time""
""fullscreenenter"",""1"",""2893""
","
","","","","","","2017.0999999642372","<p> You earned -6 points in the practice round! </p>","0","","break","","","","","","","","","","","","","",""
"learning-instructions","66","321671","0.0-8.0-4.0-0.0","1556","1","2","""event"",""trial"",""time""
""fullscreenenter"",""1"",""2893""
","
","
","""event"",""trial"",""time""
""fullscreenenter"",""1"",""2893""
","
","","","","","","2247.400000035763","<p> It's almost time to start the real game. </p><p> Before you start, we're going to ask you a few questions about how the game works. </p>","","0","instructions","","","","","","","","","","","","","",""
"preload","67","323058","0.0-8.0-5.0","1556","1","2","""event"",""trial"",""time""
""fullscreenenter"",""1"",""2893""
","
","
","""event"",""trial"",""time""
""fullscreenenter"",""1"",""2893""
","
","true","false","[]","[]","[]","","","","","","","","","","","","","","","","","","",""
"comp-q","68","330143","0.0-8.0-6.0-0.0","1556","1","2","""event"",""trial"",""time""
""fullscreenenter"",""1"",""2893""
","
","
","""event"",""trial"",""time""
""fullscreenenter"",""1"",""2893""
","
","","","","","","1639.4000000357628","<p> <b> True or False? </b> </p><p> If you choose the best option, you will always earn 1 point. </p>","","1","comp_question","","","","","","","","","","","true","","",""
"comp-q","69","338066","0.0-8.0-6.0-1.0","1556","1","2","""event"",""trial"",""time""
""fullscreenenter"",""1"",""2893""
","
","
","""event"",""trial"",""time""
""fullscreenenter"",""1"",""2893""
","
","","","","","","2242.800000011921","<p><b> That's right! </b> Sometimes you will lose 1 point, even if you choose the best option. </p>","","0","comp_answer","","","","","","","","","","","","","",""
"comp-q","70","344186","0.0-8.0-6.0-0.1","1556","1","2","""event"",""trial"",""time""
""fullscreenenter"",""1"",""2893""
","
","
","""event"",""trial"",""time""
""fullscreenenter"",""1"",""2893""
","
","","","","","","1472.6000000238419","<p> <b> True or False? </b> </p><p> You will have as much time as you want to make each choice. </p>","","1","comp_question","","","","","","","","","","","true","","",""
"comp-q","71","350742","0.0-8.0-6.0-1.1","1556","1","2","""event"",""trial"",""time""
""fullscreenenter"",""1"",""2893""
","
","
","""event"",""trial"",""time""
""fullscreenenter"",""1"",""2893""
","
","","","","","","1728.9000000357628","<p> <b> That's right! </b> You will only have 4 seconds to make each choice. </p>","","0","comp_answer","","","","","","","","","","","","","",""
"comp-q","72","357706","0.0-8.0-6.0-0.2","1556","1","2","""event"",""trial"",""time""
""fullscreenenter"",""1"",""2893""
","
","
","""event"",""trial"",""time""
""fullscreenenter"",""1"",""2893""
","
","","","","","","792.5999999642372","<p> <b> True or False? </b> </p><p> You should use the '1', '2', and '3' keys to make your choices. </p>","","0","comp_question","","","","","","","","","","","true","","",""
"comp-q","73","364845","0.0-8.0-6.0-1.2","1556","1","2","""event"",""trial"",""time""
""fullscreenenter"",""1"",""2893""
","
","
","""event"",""trial"",""time""
""fullscreenenter"",""1"",""2893""
","
","","","","","","2291.599999964237","<p> <b> That's right! </b> You should use the '1', '2', and '3' keys to make each choice. </p>","","0","comp_answer","","","","","","","","","","","","","",""
"learning-instructions","74","374984","0.0-8.0-7.0-0.0","1556","1","2","""event"",""trial"",""time""
""fullscreenenter"",""1"",""2893""
","
","
","""event"",""trial"",""time""
""fullscreenenter"",""1"",""2893""
","
","","","","","","1631.199999988079","<p> It's now time to start the real game. </p>Do your best, because the points you earn in the next rounds will influence your bonus payment. </p>","","0","instructions","","","","","","","","","","","","","",""
"preload","75","377022","0.0-9.0-0.0","1556","1","2","""event"",""trial"",""time""
""fullscreenenter"",""1"",""2893""
","
","
","""event"",""trial"",""time""
""fullscreenenter"",""1"",""2893""
","
","true","false","[]","[]","[]","","","","","","","","","","","","","","","","","","",""
"learning-instructions","76","385492","0.0-9.0-1.0-0.0","1556","1","2","""event"",""trial"",""time""
""fullscreenenter"",""1"",""2893""
","
","
","""event"",""trial"",""time""
""fullscreenenter"",""1"",""2893""
","
","","","","","","807.8000000119209","<p> Your goal in this round is to return farm animals to the barns where they live. </p><p>  Different animals wandered away from different barns! </p></div>","","0","instructions","","","","","","","","","","","","","",""
"learning-instructions","77","394672","0.0-9.0-1.0-0.1","1556","1","2","""event"",""trial"",""time""
""fullscreenenter"",""1"",""2893""
","
","
","""event"",""trial"",""time""
""fullscreenenter"",""1"",""2893""
","
","","","","","","538.5999999642372","<p> On each turn, you will see a picture of a farm animal and three different barns.  </p><p> You need to select the barn where each animal lives.  </p>","","0","instructions","","","","","","","","","","","","","",""
"learning-instructions","78","402384","0.0-9.0-1.0-0.2","1556","1","2","""event"",""trial"",""time""
""fullscreenenter"",""1"",""2893""
","
","
","""event"",""trial"",""time""
""fullscreenenter"",""1"",""2893""
","
","","","","","","520.6000000238419","<p> You can select the barn on the left by pressing 1, the barn in the middle by pressing 2, and the barn on the right by pressing 3. </p><br><div class=""choice-instructions-grid""> <div class=""choice-option""><img src=""images/animals_choice1.png"" class=""choice-option-img"" stage=""instructions"" position=""0"" ><div class=""choice-option-text""> Press ""1."" </div></div><div class=""choice-option""><img src=""images/animals_choice2.png"" class=""choice-option-img"" stage=""instructions"" position=""1"" ><div class=""choice-option-text""> Press ""2."" </div></div><div class=""choice-option""><img src=""images/animals_choice3.png"" class=""choice-option-img"" stage=""instructions"" position=""2"" ><div class=""choice-option-text""> Press ""3."" </div></div></div>","","0","instructions","","","","","","","","","","","","","",""
"learning-instructions","79","409145","0.0-9.0-1.0-0.3","1556","1","2","""event"",""trial"",""time""
""fullscreenenter"",""1"",""2893""
","
","
","""event"",""trial"",""time""
""fullscreenenter"",""1"",""2893""
","
","","","","","","1601.1000000238419","<p> If you return the farm animal to the correct barn, it will usually be happy! </p><div style='float: center;'><img src='images/check.png' width = '200' height = '200'></img>","","0","instructions","","","","","","","","","","","","","",""
"learning-instructions","80","415342","0.0-9.0-1.0-0.4","1556","1","2","""event"",""trial"",""time""
""fullscreenenter"",""1"",""2893""
","
","
","""event"",""trial"",""time""
""fullscreenenter"",""1"",""2893""
","
","","","","","","878.5","<p> But, if you return the farm animal to the wrong barn, it will usually be sad. </p><div style='float: center;'><img src='images/x.png' width = '200' height = '200'></img>","","0","instructions","","","","","","","","","","","","","",""
"learning-instructions","81","427630","0.0-9.0-1.0-0.5","1556","1","2","""event"",""trial"",""time""
""fullscreenenter"",""1"",""2893""
","
","
","""event"",""trial"",""time""
""fullscreenenter"",""1"",""2893""
","
","","","","","","1726.6000000238419","<p> Importantly, each farm animal belongs in one of the barns. </p><p> If you choose the correct barn, the farm animal will return home safely and will be more likely to be happy! </p>","","0","instructions","","","","","","","","","","","","","",""
"learning-instructions","82","438963","0.0-9.0-1.0-0.6","1556","1","2","""event"",""trial"",""time""
""fullscreenenter"",""1"",""2893""
","
","
","""event"",""trial"",""time""
""fullscreenenter"",""1"",""2893""
","
","","","","","","810.0999999642372","<p> However, even if you choose the correct barn for the farm animal, it might still feel sad. </p><p> Similarly, even if you choose the <i>wrong</i> barn, it might still feel happy.","","0","instructions","","","","","","","","","","","","","",""
"learning-instructions","83","454002","0.0-9.0-1.0-0.7","1556","1","2","""event"",""trial"",""time""
""fullscreenenter"",""1"",""2893""
","
","
","""event"",""trial"",""time""
""fullscreenenter"",""1"",""2893""
","
","","","","","","1339.5999999642372","<p> Try to choose the correct barn for each farm animal, because you will <b> WIN </b> 1 point for each farm animal you make happy and <b>LOSE</b> 1 point for each farm animal you make sad. </p><p> Your bonus payment will depend on your total number of points.","","0","instructions","","","","","","","","","","","","","",""
"learning-instructions","84","463298","0.0-9.0-1.0-0.8","1556","1","2","""event"",""trial"",""time""
""fullscreenenter"",""1"",""2893""
","
","
","""event"",""trial"",""time""
""fullscreenenter"",""1"",""2893""
","
","","","","","","1175.6000000238419","<p> The position of each barn will change throughout the round. </p><p> The barn's position <i> does not </i> influence how likely it is to be the correct one. </p>","","0","instructions","","","","","","","","","","","","","",""
"learning-instructions","85","473581","0.0-9.0-1.0-0.9","1556","1","2","""event"",""trial"",""time""
""fullscreenenter"",""1"",""2893""
","
","
","""event"",""trial"",""time""
""fullscreenenter"",""1"",""2893""
","
","","","","","","988.7999999523163","<p> You will have 4 seconds to make each choice. Try to respond before time runs out! </p><p> You will lose 1 point each time you do not make a response. </p>","","0","instructions","","","","","","","","","","","","","",""
"html-keyboard-response","86","474201","0.0-9.0-2.0-0.0","1556","1","2","""event"",""trial"",""time""
""fullscreenenter"",""1"",""2893""
","
","
","""event"",""trial"",""time""
""fullscreenenter"",""1"",""2893""
","
","","","","","","null","<div style=""font-size:60px;"">+</div>","null","","fixation","","","","","","","","","","","","","",""
"learning-trial","87","478211","0.0-9.0-2.0-1.0","1556","1","2","""event"",""trial"",""time""
""fullscreenenter"",""1"",""2893""
","
","
","""event"",""trial"",""time""
""fullscreenenter"",""1"",""2893""
","
","","","","","","1521.800000011921","images/horse1.png","","","learning","images/animals_choice1.png","images/animals_choice2.png","images/animals_choice3.png","[0,1,2]","2","2","2","images/animals_choice2.png","-1","animals","","horse","1","0"
"html-keyboard-response","88","478720","0.0-9.0-2.0-0.1","1556","1","2","""event"",""trial"",""time""
""fullscreenenter"",""1"",""2893""
","
","
","""event"",""trial"",""time""
""fullscreenenter"",""1"",""2893""
","
","","","","","","null","<div style=""font-size:60px;"">+</div>","null","","fixation","","","","","","","","","","","","","",""
"learning-trial","89","482741","0.0-9.0-2.0-1.1","1556","1","2","""event"",""trial"",""time""
""fullscreenenter"",""1"",""2893""
","
","
","""event"",""trial"",""time""
""fullscreenenter"",""1"",""2893""
","
","","","","","","414.69999998807907","images/cow2.png","","","learning","images/animals_choice2.png","images/animals_choice1.png","images/animals_choice3.png","[1,0,2]","0","1","3","images/animals_choice3.png","-1","animals","","cow","1","0"
"html-keyboard-response","90","483260","0.0-9.0-2.0-0.2","1556","1","2","""event"",""trial"",""time""
""fullscreenenter"",""1"",""2893""
","
","
","""event"",""trial"",""time""
""fullscreenenter"",""1"",""2893""
","
","","","","","","null","<div style=""font-size:60px;"">+</div>","null","","fixation","","","","","","","","","","","","","",""
"learning-trial","91","487270","0.0-9.0-2.0-1.2","1556","1","2","""event"",""trial"",""time""
""fullscreenenter"",""1"",""2893""
","
","
","""event"",""trial"",""time""
""fullscreenenter"",""1"",""2893""
","
","","","","","","338.60000002384186","images/sheep5.png","","","learning","images/animals_choice2.png","images/animals_choice3.png","images/animals_choice1.png","[1,2,0]","1","0","2","images/animals_choice3.png","-1","animals","","sheep","1","0"
"html-keyboard-response","92","487780","0.0-9.0-2.0-0.3","1556","1","2","""event"",""trial"",""time""
""fullscreenenter"",""1"",""2893""
","
","
","""event"",""trial"",""time""
""fullscreenenter"",""1"",""2893""
","
","","","","","","null","<div style=""font-size:60px;"">+</div>","null","","fixation","","","","","","","","","","","","","",""
"learning-trial","93","491790","0.0-9.0-2.0-1.3","1556","1","2","""event"",""trial"",""time""
""fullscreenenter"",""1"",""2893""
","
","
","""event"",""trial"",""time""
""fullscreenenter"",""1"",""2893""
","
","","","","","","204.0999999642372","images/sheep1.png","","","learning","images/animals_choice1.png","images/animals_choice2.png","images/animals_choice3.png","[0,1,2]","1","1","2","images/animals_choice2.png","-1","animals","","sheep","1","0"
"html-keyboard-response","94","492300","0.0-9.0-2.0-0.4","1556","1","2","""event"",""trial"",""time""
""fullscreenenter"",""1"",""2893""
","
","
","""event"",""trial"",""time""
""fullscreenenter"",""1"",""2893""
","
","","","","","","null","<div style=""font-size:60px;"">+</div>","null","","fixation","","","","","","","","","","","","","",""
"learning-trial","95","496320","0.0-9.0-2.0-1.4","1556","1","2","""event"",""trial"",""time""
""fullscreenenter"",""1"",""2893""
","
","
","""event"",""trial"",""time""
""fullscreenenter"",""1"",""2893""
","
","","","","","","804.2999999523163","images/cow1.png","","","learning","images/animals_choice2.png","images/animals_choice3.png","images/animals_choice1.png","[1,2,0]","0","2","1","images/animals_choice2.png","-1","animals","","cow","1","0"
"html-keyboard-response","96","496840","0.0-9.0-2.0-0.5","1556","1","2","""event"",""trial"",""time""
""fullscreenenter"",""1"",""2893""
","
","
","""event"",""trial"",""time""
""fullscreenenter"",""1"",""2893""
","
","","","","","","null","<div style=""font-size:60px;"">+</div>","null","","fixation","","","","","","","","","","","","","",""
"learning-trial","97","500860","0.0-9.0-2.0-1.5","1556","1","2","""event"",""trial"",""time""
""fullscreenenter"",""1"",""2893""
","
","
","""event"",""trial"",""time""
""fullscreenenter"",""1"",""2893""
","
","","","","","","112.5","images/sheep5.png","","","learning","images/animals_choice1.png","images/animals_choice3.png","images/animals_choice2.png","[0,2,1]","1","2","3","images/animals_choice2.png","1","animals","","sheep","1","0"
"html-keyboard-response","98","501380","0.0-9.0-2.0-0.6","1556","1","2","""event"",""trial"",""time""
""fullscreenenter"",""1"",""2893""
","
","
","""event"",""trial"",""time""
""fullscreenenter"",""1"",""2893""
","
","","","","","","null","<div style=""font-size:60px;"">+</div>","null","","fixation","","","","","","","","","","","","","",""
"learning-trial","99","505383","0.0-9.0-2.0-1.6","1556","1","2","""event"",""trial"",""time""
""fullscreenenter"",""1"",""2893""
","
","
","""event"",""trial"",""time""
""fullscreenenter"",""1"",""2893""
","
","","","","","","486.30000001192093","images/cow2.png","","","learning","images/animals_choice3.png","images/animals_choice2.png","images/animals_choice1.png","[2,1,0]","0","2","3","images/animals_choice1.png","1","animals","","cow","1","0"
"html-keyboard-response","100","505885","0.0-9.0-2.0-0.7","1556","1","2","""event"",""trial"",""time""
""fullscreenenter"",""1"",""2893""
","
","
","""event"",""trial"",""time""
""fullscreenenter"",""1"",""2893""
","
","","","","","","null","<div style=""font-size:60px;"">+</div>","null","","fixation","","","","","","","","","","","","","",""
"learning-trial","101","509888","0.0-9.0-2.0-1.7","1556","1","2","""event"",""trial"",""time""
""fullscreenenter"",""1"",""2893""
","
","
","""event"",""trial"",""time""
""fullscreenenter"",""1"",""2893""
","
","","","","","","2.600000023841858","images/cow4.png","","","learning","images/animals_choice3.png","images/animals_choice1.png","images/animals_choice2.png","[2,0,1]","0","1","1","images/animals_choice3.png","-1","animals","","cow","1","0"
"html-keyboard-response","102","510389","0.0-9.0-2.0-0.8","1556","1","2","""event"",""trial"",""time""
""fullscreenenter"",""1"",""2893""
","
","
","""event"",""trial"",""time""
""fullscreenenter"",""1"",""2893""
","
","","","","","","null","<div style=""font-size:60px;"">+</div>","null","","fixation","","","","","","","","","","","","","",""
"learning-trial","103","514393","0.0-9.0-2.0-1.8","1556","1","2","""event"",""trial"",""time""
""fullscreenenter"",""1"",""2893""
","
","
","""event"",""trial"",""time""
""fullscreenenter"",""1"",""2893""
","
","","","","","","490.60000002384186","images/sheep2.png","","","learning","images/animals_choice3.png","images/animals_choice1.png","images/animals_choice2.png","[2,0,1]","1","2","2","images/animals_choice1.png","-1","animals","","sheep","1","0"
"html-keyboard-response","104","514894","0.0-9.0-2.0-0.9","1556","1","2","""event"",""trial"",""time""
""fullscreenenter"",""1"",""2893""
","
","
","""event"",""trial"",""time""
""fullscreenenter"",""1"",""2893""
","
","","","","","","null","<div style=""font-size:60px;"">+</div>","null","","fixation","","","","","","","","","","","","","",""
"learning-trial","105","518896","0.0-9.0-2.0-1.9","1556","1","2","""event"",""trial"",""time""
""fullscreenenter"",""1"",""2893""
","
","
","""event"",""trial"",""time""
""fullscreenenter"",""1"",""2893""
","
","","","","","","1108.3999999761581","images/horse1.png","","","learning","images/animals_choice1.png","images/animals_choice2.png","images/animals_choice3.png","[0,1,2]","2","2","3","images/animals_choice3.png","1","animals","","horse","1","0"
"html-keyboard-response","106","519397","0.0-9.0-2.0-0.10","1556","1","2","""event"",""trial"",""time""
""fullscreenenter"",""1"",""2893""
","
","
","""event"",""trial"",""time""
""fullscreenenter"",""1"",""2893""
","
","","","","","","null","<div style=""font-size:60px;"">+</div>","null","","fixation","","","","","","","","","","","","","",""
"learning-trial","107","523399","0.0-9.0-2.0-1.10","1556","1","2","""event"",""trial"",""time""
""fullscreenenter"",""1"",""2893""
","
","
","""event"",""trial"",""time""
""fullscreenenter"",""1"",""2893""
","
","","","","","","1850.300000011921","images/horse2.png","","","learning","images/animals_choice1.png","images/animals_choice2.png","images/animals_choice3.png","[0,1,2]","2","2","3","images/animals_choice3.png","1","animals","","horse","1","0"
"html-keyboard-response","108","523901","0.0-9.0-2.0-0.11","1556","1","2","""event"",""trial"",""time""
""fullscreenenter"",""1"",""2893""
","
","
","""event"",""trial"",""time""
""fullscreenenter"",""1"",""2893""
","
","","","","","","null","<div style=""font-size:60px;"">+</div>","null","","fixation","","","","","","","","","","","","","",""
"learning-trial","109","527904","0.0-9.0-2.0-1.11","1556","1","2","""event"",""trial"",""time""
""fullscreenenter"",""1"",""2893""
","
","
","""event"",""trial"",""time""
""fullscreenenter"",""1"",""2893""
","
","","","","","","1372.2999999523163","images/cow4.png","","","learning","images/animals_choice1.png","images/animals_choice3.png","images/animals_choice2.png","[0,2,1]","0","0","1","images/animals_choice1.png","1","animals","","cow","1","0"
"html-keyboard-response","110","528405","0.0-9.0-2.0-0.12","1556","1","2","""event"",""trial"",""time""
""fullscreenenter"",""1"",""2893""
","
","
","""event"",""trial"",""time""
""fullscreenenter"",""1"",""2893""
","
","","","","","","null","<div style=""font-size:60px;"">+</div>","null","","fixation","","","","","","","","","","","","","",""
"learning-trial","111","532407","0.0-9.0-2.0-1.12","1556","1","2","""event"",""trial"",""time""
""fullscreenenter"",""1"",""2893""
","
","
","""event"",""trial"",""time""
""fullscreenenter"",""1"",""2893""
","
","","","","","","1913.5","images/sheep2.png","","","learning","images/animals_choice2.png","images/animals_choice1.png","images/animals_choice3.png","[1,0,2]","1","0","1","images/animals_choice2.png","1","animals","","sheep","1","0"
"html-keyboard-response","112","532909","0.0-9.0-2.0-0.13","1556","1","2","""event"",""trial"",""time""
""fullscreenenter"",""1"",""2893""
","
","
","""event"",""trial"",""time""
""fullscreenenter"",""1"",""2893""
","
","","","","","","null","<div style=""font-size:60px;"">+</div>","null","","fixation","","","","","","","","","","","","","",""
"learning-trial","113","536913","0.0-9.0-2.0-1.13","1556","1","2","""event"",""trial"",""time""
""fullscreenenter"",""1"",""2893""
","
","
","""event"",""trial"",""time""
""fullscreenenter"",""1"",""2893""
","
","","","","","","1544.4000000357628","images/horse1.png","","","learning","images/animals_choice3.png","images/animals_choice2.png","images/animals_choice1.png","[2,1,0]","2","0","1","images/animals_choice3.png","1","animals","","horse","1","0"
"html-keyboard-response","114","537413","0.0-9.0-2.0-0.14","1556","1","2","""event"",""trial"",""time""
""fullscreenenter"",""1"",""2893""
","
","
","""event"",""trial"",""time""
""fullscreenenter"",""1"",""2893""
","
","","","","","","null","<div style=""font-size:60px;"">+</div>","null","","fixation","","","","","","","","","","","","","",""
"learning-trial","115","541416","0.0-9.0-2.0-1.14","1556","1","2","""event"",""trial"",""time""
""fullscreenenter"",""1"",""2893""
","
","
","""event"",""trial"",""time""
""fullscreenenter"",""1"",""2893""
","
","","","","","","1201.1000000238419","images/sheep2.png","","","learning","images/animals_choice2.png","images/animals_choice1.png","images/animals_choice3.png","[1,0,2]","1","0","1","images/animals_choice2.png","1","animals","","sheep","1","0"
"html-keyboard-response","116","541917","0.0-9.0-2.0-0.15","1556","1","2","""event"",""trial"",""time""
""fullscreenenter"",""1"",""2893""
","
","
","""event"",""trial"",""time""
""fullscreenenter"",""1"",""2893""
","
","","","","","","null","<div style=""font-size:60px;"">+</div>","null","","fixation","","","","","","","","","","","","","",""
"learning-trial","117","545920","0.0-9.0-2.0-1.15","1556","1","2","""event"",""trial"",""time""
""fullscreenenter"",""1"",""2893""
","
","
","""event"",""trial"",""time""
""fullscreenenter"",""1"",""2893""
","
","","","","","","1364.8999999761581","images/cow2.png","","","learning","images/animals_choice1.png","images/animals_choice3.png","images/animals_choice2.png","[0,2,1]","0","0","1","images/animals_choice1.png","1","animals","","cow","1","0"
"html-keyboard-response","118","546422","0.0-9.0-2.0-0.16","1556","1","2","""event"",""trial"",""time""
""fullscreenenter"",""1"",""2893""
","
","
","""event"",""trial"",""time""
""fullscreenenter"",""1"",""2893""
","
","","","","","","null","<div style=""font-size:60px;"">+</div>","null","","fixation","","","","","","","","","","","","","",""
"learning-trial","119","550424","0.0-9.0-2.0-1.16","1556","1","2","""event"",""trial"",""time""
""fullscreenenter"",""1"",""2893""
","
","
","""event"",""trial"",""time""
""fullscreenenter"",""1"",""2893""
","
","","","","","","943.2999999523163","images/cow2.png","","","learning","images/animals_choice1.png","images/animals_choice2.png","images/animals_choice3.png","[0,1,2]","0","0","1","images/animals_choice1.png","-1","animals","","cow","1","0"
"html-keyboard-response","120","550927","0.0-9.0-2.0-0.17","1556","1","2","""event"",""trial"",""time""
""fullscreenenter"",""1"",""2893""
","
","
","""event"",""trial"",""time""
""fullscreenenter"",""1"",""2893""
","
","","","","","","null","<div style=""font-size:60px;"">+</div>","null","","fixation","","","","","","","","","","","","","",""
"learning-trial","121","554929","0.0-9.0-2.0-1.17","1556","1","2","""event"",""trial"",""time""
""fullscreenenter"",""1"",""2893""
","
","
","""event"",""trial"",""time""
""fullscreenenter"",""1"",""2893""
","
","","","","","","1778","images/horse1.png","","","learning","images/animals_choice2.png","images/animals_choice3.png","images/animals_choice1.png","[1,2,0]","2","1","3","images/animals_choice1.png","-1","animals","","horse","1","0"
"html-keyboard-response","122","555429","0.0-9.0-2.0-0.18","1556","1","2","""event"",""trial"",""time""
""fullscreenenter"",""1"",""2893""
","
","
","""event"",""trial"",""time""
""fullscreenenter"",""1"",""2893""
","
","","","","","","null","<div style=""font-size:60px;"">+</div>","null","","fixation","","","","","","","","","","","","","",""
"learning-trial","123","559433","0.0-9.0-2.0-1.18","1556","1","2","""event"",""trial"",""time""
""fullscreenenter"",""1"",""2893""
","
","
","""event"",""trial"",""time""
""fullscreenenter"",""1"",""2893""
","
","","","","","","992.0999999642372","images/cow1.png","","","learning","images/animals_choice1.png","images/animals_choice2.png","images/animals_choice3.png","[0,1,2]","0","0","1","images/animals_choice1.png","1","animals","","cow","1","0"
"html-keyboard-response","124","559934","0.0-9.0-2.0-0.19","1556","1","2","""event"",""trial"",""time""
""fullscreenenter"",""1"",""2893""
","
","
","""event"",""trial"",""time""
""fullscreenenter"",""1"",""2893""
","
","","","","","","null","<div style=""font-size:60px;"">+</div>","null","","fixation","","","","","","","","","","","","","",""
"learning-trial","125","563936","0.0-9.0-2.0-1.19","1556","1","2","""event"",""trial"",""time""
""fullscreenenter"",""1"",""2893""
","
","
","""event"",""trial"",""time""
""fullscreenenter"",""1"",""2893""
","
","","","","","","619.8000000119209","images/horse4.png","","","learning","images/animals_choice3.png","images/animals_choice2.png","images/animals_choice1.png","[2,1,0]","2","0","3","images/animals_choice1.png","-1","animals","","horse","1","0"
"html-keyboard-response","126","564437","0.0-9.0-2.0-0.20","1556","1","2","""event"",""trial"",""time""
""fullscreenenter"",""1"",""2893""
","
","
","""event"",""trial"",""time""
""fullscreenenter"",""1"",""2893""
","
","","","","","","null","<div style=""font-size:60px;"">+</div>","null","","fixation","","","","","","","","","","","","","",""
"learning-trial","127","568439","0.0-9.0-2.0-1.20","1556","1","2","""event"",""trial"",""time""
""fullscreenenter"",""1"",""2893""
","
","
","""event"",""trial"",""time""
""fullscreenenter"",""1"",""2893""
","
","","","","","","860.2999999523163","images/horse4.png","","","learning","images/animals_choice3.png","images/animals_choice2.png","images/animals_choice1.png","[2,1,0]","2","0","1","images/animals_choice3.png","1","animals","","horse","1","0"
"html-keyboard-response","128","568941","0.0-9.0-2.0-0.21","1556","1","2","""event"",""trial"",""time""
""fullscreenenter"",""1"",""2893""
","
","
","""event"",""trial"",""time""
""fullscreenenter"",""1"",""2893""
","
","","","","","","null","<div style=""font-size:60px;"">+</div>","null","","fixation","","","","","","","","","","","","","",""
"learning-trial","129","572943","0.0-9.0-2.0-1.21","1556","1","2","""event"",""trial"",""time""
""fullscreenenter"",""1"",""2893""
","
","
","""event"",""trial"",""time""
""fullscreenenter"",""1"",""2893""
","
","","","","","","1069.800000011921","images/cow1.png","","","learning","images/animals_choice1.png","images/animals_choice3.png","images/animals_choice2.png","[0,2,1]","0","0","1","images/animals_choice1.png","-1","animals","","cow","1","0"
"html-keyboard-response","130","573444","0.0-9.0-2.0-0.22","1556","1","2","""event"",""trial"",""time""
""fullscreenenter"",""1"",""2893""
","
","
","""event"",""trial"",""time""
""fullscreenenter"",""1"",""2893""
","
","","","","","","null","<div style=""font-size:60px;"">+</div>","null","","fixation","","","","","","","","","","","","","",""
"learning-trial","131","577446","0.0-9.0-2.0-1.22","1556","1","2","""event"",""trial"",""time""
""fullscreenenter"",""1"",""2893""
","
","
","""event"",""trial"",""time""
""fullscreenenter"",""1"",""2893""
","
","","","","","","2042.5","images/sheep5.png","","","learning","images/animals_choice2.png","images/animals_choice1.png","images/animals_choice3.png","[1,0,2]","1","0","1","images/animals_choice2.png","-1","animals","","sheep","1","0"
"html-keyboard-response","132","577947","0.0-9.0-2.0-0.23","1556","1","2","""event"",""trial"",""time""
""fullscreenenter"",""1"",""2893""
","
","
","""event"",""trial"",""time""
""fullscreenenter"",""1"",""2893""
","
","","","","","","null","<div style=""font-size:60px;"">+</div>","null","","fixation","","","","","","","","","","","","","",""
"learning-trial","133","581949","0.0-9.0-2.0-1.23","1556","1","2","""event"",""trial"",""time""
""fullscreenenter"",""1"",""2893""
","
","
","""event"",""trial"",""time""
""fullscreenenter"",""1"",""2893""
","
","","","","","","1214.0999999642372","images/sheep1.png","","","learning","images/animals_choice1.png","images/animals_choice3.png","images/animals_choice2.png","[0,2,1]","1","2","3","images/animals_choice2.png","1","animals","","sheep","1","0"
"html-keyboard-response","134","582450","0.0-9.0-2.0-0.24","1556","1","2","""event"",""trial"",""time""
""fullscreenenter"",""1"",""2893""
","
","
","""event"",""trial"",""time""
""fullscreenenter"",""1"",""2893""
","
","","","","","","null","<div style=""font-size:60px;"">+</div>","null","","fixation","","","","","","","","","","","","","",""
"learning-trial","135","586453","0.0-9.0-2.0-1.24","1556","1","2","""event"",""trial"",""time""
""fullscreenenter"",""1"",""2893""
","
","
","""event"",""trial"",""time""
""fullscreenenter"",""1"",""2893""
","
","","","","","","1022.4000000357628","images/horse1.png","","","learning","images/animals_choice1.png","images/animals_choice3.png","images/animals_choice2.png","[0,2,1]","2","1","2","images/animals_choice3.png","1","animals","","horse","1","0"
"html-keyboard-response","136","586954","0.0-9.0-2.0-0.25","1556","1","2","""event"",""trial"",""time""
""fullscreenenter"",""1"",""2893""
","
","
","""event"",""trial"",""time""
""fullscreenenter"",""1"",""2893""
","
","","","","","","null","<div style=""font-size:60px;"">+</div>","null","","fixation","","","","","","","","","","","","","",""
"learning-trial","137","590957","0.0-9.0-2.0-1.25","1556","1","2","""event"",""trial"",""time""
""fullscreenenter"",""1"",""2893""
","
","
","""event"",""trial"",""time""
""fullscreenenter"",""1"",""2893""
","
","","","","","","1511.699999988079","images/horse4.png","","","learning","images/animals_choice1.png","images/animals_choice2.png","images/animals_choice3.png","[0,1,2]","2","2","3","images/animals_choice3.png","1","animals","","horse","1","0"
"html-keyboard-response","138","591458","0.0-9.0-2.0-0.26","1556","1","2","""event"",""trial"",""time""
""fullscreenenter"",""1"",""2893""
","
","
","""event"",""trial"",""time""
""fullscreenenter"",""1"",""2893""
","
","","","","","","null","<div style=""font-size:60px;"">+</div>","null","","fixation","","","","","","","","","","","","","",""
"learning-trial","139","595461","0.0-9.0-2.0-1.26","1556","1","2","""event"",""trial"",""time""
""fullscreenenter"",""1"",""2893""
","
","
","""event"",""trial"",""time""
""fullscreenenter"",""1"",""2893""
","
","","","","","","1009.1999999880791","images/sheep5.png","","","learning","images/animals_choice1.png","images/animals_choice2.png","images/animals_choice3.png","[0,1,2]","1","1","2","images/animals_choice2.png","1","animals","","sheep","1","0"
"html-keyboard-response","140","595962","0.0-9.0-2.0-0.27","1556","1","2","""event"",""trial"",""time""
""fullscreenenter"",""1"",""2893""
","
","
","""event"",""trial"",""time""
""fullscreenenter"",""1"",""2893""
","
","","","","","","null","<div style=""font-size:60px;"">+</div>","null","","fixation","","","","","","","","","","","","","",""
"learning-trial","141","599965","0.0-9.0-2.0-1.27","1556","1","2","""event"",""trial"",""time""
""fullscreenenter"",""1"",""2893""
","
","
","""event"",""trial"",""time""
""fullscreenenter"",""1"",""2893""
","
","","","","","","1103","images/sheep1.png","","","learning","images/animals_choice1.png","images/animals_choice3.png","images/animals_choice2.png","[0,2,1]","1","2","3","images/animals_choice2.png","1","animals","","sheep","1","0"
"html-keyboard-response","142","600466","0.0-9.0-2.0-0.28","1556","1","2","""event"",""trial"",""time""
""fullscreenenter"",""1"",""2893""
","
","
","""event"",""trial"",""time""
""fullscreenenter"",""1"",""2893""
","
","","","","","","null","<div style=""font-size:60px;"">+</div>","null","","fixation","","","","","","","","","","","","","",""
"learning-trial","143","604468","0.0-9.0-2.0-1.28","1556","1","2","""event"",""trial"",""time""
""fullscreenenter"",""1"",""2893""
","
","
","""event"",""trial"",""time""
""fullscreenenter"",""1"",""2893""
","
","","","","","","1067","images/cow1.png","","","learning","images/animals_choice1.png","images/animals_choice3.png","images/animals_choice2.png","[0,2,1]","0","0","1","images/animals_choice1.png","1","animals","","cow","1","0"
"html-keyboard-response","144","604970","0.0-9.0-2.0-0.29","1556","1","2","""event"",""trial"",""time""
""fullscreenenter"",""1"",""2893""
","
","
","""event"",""trial"",""time""
""fullscreenenter"",""1"",""2893""
","
","","","","","","null","<div style=""font-size:60px;"">+</div>","null","","fixation","","","","","","","","","","","","","",""
"learning-trial","145","608972","0.0-9.0-2.0-1.29","1556","1","2","""event"",""trial"",""time""
""fullscreenenter"",""1"",""2893""
","
","
","""event"",""trial"",""time""
""fullscreenenter"",""1"",""2893""
","
","","","","","","1099","images/cow4.png","","","learning","images/animals_choice1.png","images/animals_choice3.png","images/animals_choice2.png","[0,2,1]","0","0","1","images/animals_choice1.png","1","animals","","cow","1","0"
"html-keyboard-response","146","609472","0.0-9.0-2.0-0.30","1556","1","2","""event"",""trial"",""time""
""fullscreenenter"",""1"",""2893""
","
","
","""event"",""trial"",""time""
""fullscreenenter"",""1"",""2893""
","
","","","","","","null","<div style=""font-size:60px;"">+</div>","null","","fixation","","","","","","","","","","","","","",""
"learning-trial","147","613475","0.0-9.0-2.0-1.30","1556","1","2","""event"",""trial"",""time""
""fullscreenenter"",""1"",""2893""
","
","
","""event"",""trial"",""time""
""fullscreenenter"",""1"",""2893""
","
","","","","","","1070.8999999761581","images/cow2.png","","","learning","images/animals_choice3.png","images/animals_choice1.png","images/animals_choice2.png","[2,0,1]","0","1","2","images/animals_choice1.png","1","animals","","cow","1","0"
"html-keyboard-response","148","613976","0.0-9.0-2.0-0.31","1556","1","2","""event"",""trial"",""time""
""fullscreenenter"",""1"",""2893""
","
","
","""event"",""trial"",""time""
""fullscreenenter"",""1"",""2893""
","
","","","","","","null","<div style=""font-size:60px;"">+</div>","null","","fixation","","","","","","","","","","","","","",""
"learning-trial","149","617979","0.0-9.0-2.0-1.31","1556","1","2","""event"",""trial"",""time""
""fullscreenenter"",""1"",""2893""
","
","
","""event"",""trial"",""time""
""fullscreenenter"",""1"",""2893""
","
","","","","","","1133.0999999642372","images/cow1.png","","","learning","images/animals_choice1.png","images/animals_choice2.png","images/animals_choice3.png","[0,1,2]","0","0","1","images/animals_choice1.png","1","animals","","cow","1","0"
"html-keyboard-response","150","618480","0.0-9.0-2.0-0.32","1556","1","2","""event"",""trial"",""time""
""fullscreenenter"",""1"",""2893""
","
","
","""event"",""trial"",""time""
""fullscreenenter"",""1"",""2893""
","
","","","","","","null","<div style=""font-size:60px;"">+</div>","null","","fixation","","","","","","","","","","","","","",""
"learning-trial","151","622483","0.0-9.0-2.0-1.32","1556","1","2","""event"",""trial"",""time""
""fullscreenenter"",""1"",""2893""
","
","
","""event"",""trial"",""time""
""fullscreenenter"",""1"",""2893""
","
","","","","","","831.1999999880791","images/sheep5.png","","","learning","images/animals_choice3.png","images/animals_choice2.png","images/animals_choice1.png","[2,1,0]","1","1","2","images/animals_choice2.png","1","animals","","sheep","1","0"
"html-keyboard-response","152","622984","0.0-9.0-2.0-0.33","1556","1","2","""event"",""trial"",""time""
""fullscreenenter"",""1"",""2893""
","
","
","""event"",""trial"",""time""
""fullscreenenter"",""1"",""2893""
","
","","","","","","null","<div style=""font-size:60px;"">+</div>","null","","fixation","","","","","","","","","","","","","",""
"learning-trial","153","626987","0.0-9.0-2.0-1.33","1556","1","2","""event"",""trial"",""time""
""fullscreenenter"",""1"",""2893""
","
","
","""event"",""trial"",""time""
""fullscreenenter"",""1"",""2893""
","
","","","","","","1467.7000000476837","images/horse2.png","","","learning","images/animals_choice2.png","images/animals_choice3.png","images/animals_choice1.png","[1,2,0]","2","1","2","images/animals_choice3.png","1","animals","","horse","1","0"
"html-keyboard-response","154","627488","0.0-9.0-2.0-0.34","1556","1","2","""event"",""trial"",""time""
""fullscreenenter"",""1"",""2893""
","
","
","""event"",""trial"",""time""
""fullscreenenter"",""1"",""2893""
","
","","","","","","null","<div style=""font-size:60px;"">+</div>","null","","fixation","","","","","","","","","","","","","",""
"learning-trial","155","631491","0.0-9.0-2.0-1.34","1556","1","2","""event"",""trial"",""time""
""fullscreenenter"",""1"",""2893""
","
","
","""event"",""trial"",""time""
""fullscreenenter"",""1"",""2893""
","
","","","","","","1154.8999999761581","images/sheep2.png","","","learning","images/animals_choice3.png","images/animals_choice1.png","images/animals_choice2.png","[2,0,1]","1","2","3","images/animals_choice2.png","1","animals","","sheep","1","0"
"html-keyboard-response","156","631998","0.0-9.0-2.0-0.35","1556","1","2","""event"",""trial"",""time""
""fullscreenenter"",""1"",""2893""
","
","
","""event"",""trial"",""time""
""fullscreenenter"",""1"",""2893""
","
","","","","","","null","<div style=""font-size:60px;"">+</div>","null","","fixation","","","","","","","","","","","","","",""
"learning-trial","157","636003","0.0-9.0-2.0-1.35","1556","1","2","""event"",""trial"",""time""
""fullscreenenter"",""1"",""2893""
","
","
","""event"",""trial"",""time""
""fullscreenenter"",""1"",""2893""
","
","","","","","","1463.699999988079","images/horse4.png","","","learning","images/animals_choice2.png","images/animals_choice3.png","images/animals_choice1.png","[1,2,0]","2","1","2","images/animals_choice3.png","1","animals","","horse","1","0"
"html-keyboard-response","158","636504","0.0-9.0-2.0-0.36","1556","1","2","""event"",""trial"",""time""
""fullscreenenter"",""1"",""2893""
","
","
","""event"",""trial"",""time""
""fullscreenenter"",""1"",""2893""
","
","","","","","","null","<div style=""font-size:60px;"">+</div>","null","","fixation","","","","","","","","","","","","","",""
"learning-trial","159","640506","0.0-9.0-2.0-1.36","1556","1","2","""event"",""trial"",""time""
""fullscreenenter"",""1"",""2893""
","
","
","""event"",""trial"",""time""
""fullscreenenter"",""1"",""2893""
","
","","","","","","915.0999999642372","images/sheep2.png","","","learning","images/animals_choice3.png","images/animals_choice2.png","images/animals_choice1.png","[2,1,0]","1","1","2","images/animals_choice2.png","1","animals","","sheep","1","0"
"html-keyboard-response","160","641007","0.0-9.0-2.0-0.37","1556","1","2","""event"",""trial"",""time""
""fullscreenenter"",""1"",""2893""
","
","
","""event"",""trial"",""time""
""fullscreenenter"",""1"",""2893""
","
","","","","","","null","<div style=""font-size:60px;"">+</div>","null","","fixation","","","","","","","","","","","","","",""
"learning-trial","161","645009","0.0-9.0-2.0-1.37","1556","1","2","""event"",""trial"",""time""
""fullscreenenter"",""1"",""2893""
","
","
","""event"",""trial"",""time""
""fullscreenenter"",""1"",""2893""
","
","","","","","","1555.800000011921","images/horse2.png","","","learning","images/animals_choice1.png","images/animals_choice3.png","images/animals_choice2.png","[0,2,1]","2","1","2","images/animals_choice3.png","1","animals","","horse","1","0"
"html-keyboard-response","162","645511","0.0-9.0-2.0-0.38","1556","1","2","""event"",""trial"",""time""
""fullscreenenter"",""1"",""2893""
","
","
","""event"",""trial"",""time""
""fullscreenenter"",""1"",""2893""
","
","","","","","","null","<div style=""font-size:60px;"">+</div>","null","","fixation","","","","","","","","","","","","","",""
"learning-trial","163","649513","0.0-9.0-2.0-1.38","1556","1","2","""event"",""trial"",""time""
""fullscreenenter"",""1"",""2893""
","
","
","""event"",""trial"",""time""
""fullscreenenter"",""1"",""2893""
","
","","","","","","1589.5","images/sheep2.png","","","learning","images/animals_choice1.png","images/animals_choice3.png","images/animals_choice2.png","[0,2,1]","1","2","3","images/animals_choice2.png","1","animals","","sheep","1","0"
"html-keyboard-response","164","650015","0.0-9.0-2.0-0.39","1556","1","2","""event"",""trial"",""time""
""fullscreenenter"",""1"",""2893""
","
","
","""event"",""trial"",""time""
""fullscreenenter"",""1"",""2893""
","
","","","","","","null","<div style=""font-size:60px;"">+</div>","null","","fixation","","","","","","","","","","","","","",""
"learning-trial","165","654018","0.0-9.0-2.0-1.39","1556","1","2","""event"",""trial"",""time""
""fullscreenenter"",""1"",""2893""
","
","
","""event"",""trial"",""time""
""fullscreenenter"",""1"",""2893""
","
","","","","","","1688.5","images/horse2.png","","","learning","images/animals_choice3.png","images/animals_choice1.png","images/animals_choice2.png","[2,0,1]","2","0","1","images/animals_choice3.png","1","animals","","horse","1","0"
"html-keyboard-response","166","654520","0.0-9.0-2.0-0.40","1556","1","2","""event"",""trial"",""time""
""fullscreenenter"",""1"",""2893""
","
","
","""event"",""trial"",""time""
""fullscreenenter"",""1"",""2893""
","
","","","","","","null","<div style=""font-size:60px;"">+</div>","null","","fixation","","","","","","","","","","","","","",""
"learning-trial","167","658524","0.0-9.0-2.0-1.40","1556","1","2","""event"",""trial"",""time""
""fullscreenenter"",""1"",""2893""
","
","
","""event"",""trial"",""time""
""fullscreenenter"",""1"",""2893""
","
","","","","","","869.0999999642372","images/cow1.png","","","learning","images/animals_choice3.png","images/animals_choice1.png","images/animals_choice2.png","[2,0,1]","0","1","2","images/animals_choice1.png","1","animals","","cow","1","0"
"html-keyboard-response","168","659027","0.0-9.0-2.0-0.41","1556","1","2","""event"",""trial"",""time""
""fullscreenenter"",""1"",""2893""
","
","
","""event"",""trial"",""time""
""fullscreenenter"",""1"",""2893""
","
","","","","","","null","<div style=""font-size:60px;"">+</div>","null","","fixation","","","","","","","","","","","","","",""
"learning-trial","169","663029","0.0-9.0-2.0-1.41","1556","1","2","""event"",""trial"",""time""
""fullscreenenter"",""1"",""2893""
","
","
","""event"",""trial"",""time""
""fullscreenenter"",""1"",""2893""
","
","","","","","","867.0999999642372","images/sheep5.png","","","learning","images/animals_choice1.png","images/animals_choice2.png","images/animals_choice3.png","[0,1,2]","1","1","2","images/animals_choice2.png","1","animals","","sheep","1","0"
"html-keyboard-response","170","663531","0.0-9.0-2.0-0.42","1556","1","2","""event"",""trial"",""time""
""fullscreenenter"",""1"",""2893""
","
","
","""event"",""trial"",""time""
""fullscreenenter"",""1"",""2893""
","
","","","","","","null","<div style=""font-size:60px;"">+</div>","null","","fixation","","","","","","","","","","","","","",""
"learning-trial","171","667533","0.0-9.0-2.0-1.42","1556","1","2","""event"",""trial"",""time""
""fullscreenenter"",""1"",""2893""
","
","
","""event"",""trial"",""time""
""fullscreenenter"",""1"",""2893""
","
","","","","","","1908.0999999642372","images/horse2.png","","","learning","images/animals_choice2.png","images/animals_choice3.png","images/animals_choice1.png","[1,2,0]","2","1","2","images/animals_choice3.png","1","animals","","horse","1","0"
"html-keyboard-response","172","668035","0.0-9.0-2.0-0.43","1556","1","2","""event"",""trial"",""time""
""fullscreenenter"",""1"",""2893""
","
","
","""event"",""trial"",""time""
""fullscreenenter"",""1"",""2893""
","
","","","","","","null","<div style=""font-size:60px;"">+</div>","null","","fixation","","","","","","","","","","","","","",""
"learning-trial","173","672037","0.0-9.0-2.0-1.43","1556","1","2","""event"",""trial"",""time""
""fullscreenenter"",""1"",""2893""
","
","
","""event"",""trial"",""time""
""fullscreenenter"",""1"",""2893""
","
","","","","","","1839","images/cow4.png","","","learning","images/animals_choice2.png","images/animals_choice3.png","images/animals_choice1.png","[1,2,0]","0","2","3","images/animals_choice1.png","1","animals","","cow","1","0"
"html-keyboard-response","174","672540","0.0-9.0-2.0-0.44","1556","1","2","""event"",""trial"",""time""
""fullscreenenter"",""1"",""2893""
","
","
","""event"",""trial"",""time""
""fullscreenenter"",""1"",""2893""
","
","","","","","","null","<div style=""font-size:60px;"">+</div>","null","","fixation","","","","","","","","","","","","","",""
"learning-trial","175","676543","0.0-9.0-2.0-1.44","1556","1","2","""event"",""trial"",""time""
""fullscreenenter"",""1"",""2893""
","
","
","""event"",""trial"",""time""
""fullscreenenter"",""1"",""2893""
","
","","","","","","1596.0999999642372","images/sheep1.png","","","learning","images/animals_choice2.png","images/animals_choice1.png","images/animals_choice3.png","[1,0,2]","1","0","1","images/animals_choice2.png","1","animals","","sheep","1","0"
"html-keyboard-response","176","677044","0.0-9.0-2.0-0.45","1556","1","2","""event"",""trial"",""time""
""fullscreenenter"",""1"",""2893""
","
","
","""event"",""trial"",""time""
""fullscreenenter"",""1"",""2893""
","
","","","","","","null","<div style=""font-size:60px;"">+</div>","null","","fixation","","","","","","","","","","","","","",""
"learning-trial","177","681047","0.0-9.0-2.0-1.45","1556","1","2","""event"",""trial"",""time""
""fullscreenenter"",""1"",""2893""
","
","
","""event"",""trial"",""time""
""fullscreenenter"",""1"",""2893""
","
","","","","","","739.1000000238419","images/horse1.png","","","learning","images/animals_choice1.png","images/animals_choice3.png","images/animals_choice2.png","[0,2,1]","2","1","2","images/animals_choice3.png","1","animals","","horse","1","0"
"html-keyboard-response","178","681547","0.0-9.0-2.0-0.46","1556","1","2","""event"",""trial"",""time""
""fullscreenenter"",""1"",""2893""
","
","
","""event"",""trial"",""time""
""fullscreenenter"",""1"",""2893""
","
","","","","","","null","<div style=""font-size:60px;"">+</div>","null","","fixation","","","","","","","","","","","","","",""
"learning-trial","179","685550","0.0-9.0-2.0-1.46","1556","1","2","""event"",""trial"",""time""
""fullscreenenter"",""1"",""2893""
","
","
","""event"",""trial"",""time""
""fullscreenenter"",""1"",""2893""
","
","","","","","","943","images/cow1.png","","","learning","images/animals_choice2.png","images/animals_choice1.png","images/animals_choice3.png","[1,0,2]","0","1","2","images/animals_choice1.png","1","animals","","cow","1","0"
"html-keyboard-response","180","686053","0.0-9.0-2.0-0.47","1556","1","2","""event"",""trial"",""time""
""fullscreenenter"",""1"",""2893""
","
","
","""event"",""trial"",""time""
""fullscreenenter"",""1"",""2893""
","
","","","","","","null","<div style=""font-size:60px;"">+</div>","null","","fixation","","","","","","","","","","","","","",""
"learning-trial","181","690055","0.0-9.0-2.0-1.47","1556","1","2","""event"",""trial"",""time""
""fullscreenenter"",""1"",""2893""
","
","
","""event"",""trial"",""time""
""fullscreenenter"",""1"",""2893""
","
","","","","","","1329.8999999761581","images/horse1.png","","","learning","images/animals_choice1.png","images/animals_choice3.png","images/animals_choice2.png","[0,2,1]","2","1","1","images/animals_choice1.png","-1","animals","","horse","1","0"
"html-keyboard-response","182","690557","0.0-9.0-2.0-0.48","1556","1","2","""event"",""trial"",""time""
""fullscreenenter"",""1"",""2893""
","
","
","""event"",""trial"",""time""
""fullscreenenter"",""1"",""2893""
","
","","","","","","null","<div style=""font-size:60px;"">+</div>","null","","fixation","","","","","","","","","","","","","",""
"learning-trial","183","694560","0.0-9.0-2.0-1.48","1556","1","2","""event"",""trial"",""time""
""fullscreenenter"",""1"",""2893""
","
","
","""event"",""trial"",""time""
""fullscreenenter"",""1"",""2893""
","
","","","","","","820.6999999880791","images/sheep5.png","","","learning","images/animals_choice2.png","images/animals_choice1.png","images/animals_choice3.png","[1,0,2]","1","0","1","images/animals_choice2.png","1","animals","","sheep","1","0"
"html-keyboard-response","184","695061","0.0-9.0-2.0-0.49","1556","1","2","""event"",""trial"",""time""
""fullscreenenter"",""1"",""2893""
","
","
","""event"",""trial"",""time""
""fullscreenenter"",""1"",""2893""
","
","","","","","","null","<div style=""font-size:60px;"">+</div>","null","","fixation","","","","","","","","","","","","","",""
"learning-trial","185","699063","0.0-9.0-2.0-1.49","1556","1","2","""event"",""trial"",""time""
""fullscreenenter"",""1"",""2893""
","
","
","""event"",""trial"",""time""
""fullscreenenter"",""1"",""2893""
","
","","","","","","1138.300000011921","images/horse2.png","","","learning","images/animals_choice1.png","images/animals_choice2.png","images/animals_choice3.png","[0,1,2]","2","2","3","images/animals_choice3.png","1","animals","","horse","1","0"
"html-keyboard-response","186","699564","0.0-9.0-2.0-0.50","1556","1","2","""event"",""trial"",""time""
""fullscreenenter"",""1"",""2893""
","
","
","""event"",""trial"",""time""
""fullscreenenter"",""1"",""2893""
","
","","","","","","null","<div style=""font-size:60px;"">+</div>","null","","fixation","","","","","","","","","","","","","",""
"learning-trial","187","703567","0.0-9.0-2.0-1.50","1556","1","2","""event"",""trial"",""time""
""fullscreenenter"",""1"",""2893""
","
","
","""event"",""trial"",""time""
""fullscreenenter"",""1"",""2893""
","
","","","","","","1047.199999988079","images/sheep2.png","","","learning","images/animals_choice1.png","images/animals_choice3.png","images/animals_choice2.png","[0,2,1]","1","2","3","images/animals_choice2.png","1","animals","","sheep","1","0"
"html-keyboard-response","188","704068","0.0-9.0-2.0-0.51","1556","1","2","""event"",""trial"",""time""
""fullscreenenter"",""1"",""2893""
","
","
","""event"",""trial"",""time""
""fullscreenenter"",""1"",""2893""
","
","","","","","","null","<div style=""font-size:60px;"">+</div>","null","","fixation","","","","","","","","","","","","","",""
"learning-trial","189","708070","0.0-9.0-2.0-1.51","1556","1","2","""event"",""trial"",""time""
""fullscreenenter"",""1"",""2893""
","
","
","""event"",""trial"",""time""
""fullscreenenter"",""1"",""2893""
","
","","","","","","1520","images/cow2.png","","","learning","images/animals_choice2.png","images/animals_choice3.png","images/animals_choice1.png","[1,2,0]","0","2","3","images/animals_choice1.png","-1","animals","","cow","1","0"
"html-keyboard-response","190","708572","0.0-9.0-2.0-0.52","1556","1","2","""event"",""trial"",""time""
""fullscreenenter"",""1"",""2893""
","
","
","""event"",""trial"",""time""
""fullscreenenter"",""1"",""2893""
","
","","","","","","null","<div style=""font-size:60px;"">+</div>","null","","fixation","","","","","","","","","","","","","",""
"learning-trial","191","712574","0.0-9.0-2.0-1.52","1556","1","2","""event"",""trial"",""time""
""fullscreenenter"",""1"",""2893""
","
","
","""event"",""trial"",""time""
""fullscreenenter"",""1"",""2893""
","
","","","","","","1710.699999988079","images/horse4.png","","","learning","images/animals_choice1.png","images/animals_choice2.png","images/animals_choice3.png","[0,1,2]","2","2","3","images/animals_choice3.png","1","animals","","horse","1","0"
"html-keyboard-response","192","713075","0.0-9.0-2.0-0.53","1556","1","2","""event"",""trial"",""time""
""fullscreenenter"",""1"",""2893""
","
","
","""event"",""trial"",""time""
""fullscreenenter"",""1"",""2893""
","
","","","","","","null","<div style=""font-size:60px;"">+</div>","null","","fixation","","","","","","","","","","","","","",""
"learning-trial","193","717077","0.0-9.0-2.0-1.53","1556","1","2","""event"",""trial"",""time""
""fullscreenenter"",""1"",""2893""
","
","
","""event"",""trial"",""time""
""fullscreenenter"",""1"",""2893""
","
","","","","","","871","images/horse1.png","","","learning","images/animals_choice2.png","images/animals_choice1.png","images/animals_choice3.png","[1,0,2]","2","2","3","images/animals_choice3.png","1","animals","","horse","1","0"
"html-keyboard-response","194","717580","0.0-9.0-2.0-0.54","1556","1","2","""event"",""trial"",""time""
""fullscreenenter"",""1"",""2893""
","
","
","""event"",""trial"",""time""
""fullscreenenter"",""1"",""2893""
","
","","","","","","null","<div style=""font-size:60px;"">+</div>","null","","fixation","","","","","","","","","","","","","",""
"learning-trial","195","721582","0.0-9.0-2.0-1.54","1556","1","2","""event"",""trial"",""time""
""fullscreenenter"",""1"",""2893""
","
","
","""event"",""trial"",""time""
""fullscreenenter"",""1"",""2893""
","
","","","","","","992.6000000238419","images/sheep1.png","","","learning","images/animals_choice1.png","images/animals_choice3.png","images/animals_choice2.png","[0,2,1]","1","2","3","images/animals_choice2.png","1","animals","","sheep","1","0"
"html-keyboard-response","196","722083","0.0-9.0-2.0-0.55","1556","1","2","""event"",""trial"",""time""
""fullscreenenter"",""1"",""2893""
","
","
","""event"",""trial"",""time""
""fullscreenenter"",""1"",""2893""
","
","","","","","","null","<div style=""font-size:60px;"">+</div>","null","","fixation","","","","","","","","","","","","","",""
"learning-trial","197","726085","0.0-9.0-2.0-1.55","1556","1","2","""event"",""trial"",""time""
""fullscreenenter"",""1"",""2893""
","
","
","""event"",""trial"",""time""
""fullscreenenter"",""1"",""2893""
","
","","","","","","1045.1000000238419","images/horse2.png","","","learning","images/animals_choice3.png","images/animals_choice1.png","images/animals_choice2.png","[2,0,1]","2","0","1","images/animals_choice3.png","1","animals","","horse","1","0"
"html-keyboard-response","198","726587","0.0-9.0-2.0-0.56","1556","1","2","""event"",""trial"",""time""
""fullscreenenter"",""1"",""2893""
","
","
","""event"",""trial"",""time""
""fullscreenenter"",""1"",""2893""
","
","","","","","","null","<div style=""font-size:60px;"">+</div>","null","","fixation","","","","","","","","","","","","","",""
"learning-trial","199","730589","0.0-9.0-2.0-1.56","1556","1","2","""event"",""trial"",""time""
""fullscreenenter"",""1"",""2893""
","
","
","""event"",""trial"",""time""
""fullscreenenter"",""1"",""2893""
","
","","","","","","960.1000000238419","images/cow1.png","","","learning","images/animals_choice2.png","images/animals_choice3.png","images/animals_choice1.png","[1,2,0]","0","2","3","images/animals_choice1.png","1","animals","","cow","1","0"
"html-keyboard-response","200","731091","0.0-9.0-2.0-0.57","1556","1","2","""event"",""trial"",""time""
""fullscreenenter"",""1"",""2893""
","
","
","""event"",""trial"",""time""
""fullscreenenter"",""1"",""2893""
","
","","","","","","null","<div style=""font-size:60px;"">+</div>","null","","fixation","","","","","","","","","","","","","",""
"learning-trial","201","735093","0.0-9.0-2.0-1.57","1556","1","2","""event"",""trial"",""time""
""fullscreenenter"",""1"",""2893""
","
","
","""event"",""trial"",""time""
""fullscreenenter"",""1"",""2893""
","
","","","","","","2291.099999964237","images/cow2.png","","","learning","images/animals_choice2.png","images/animals_choice1.png","images/animals_choice3.png","[1,0,2]","0","1","2","images/animals_choice1.png","1","animals","","cow","1","0"
"html-keyboard-response","202","735595","0.0-9.0-2.0-0.58","1556","1","2","""event"",""trial"",""time""
""fullscreenenter"",""1"",""2893""
","
","
","""event"",""trial"",""time""
""fullscreenenter"",""1"",""2893""
","
","","","","","","null","<div style=""font-size:60px;"">+</div>","null","","fixation","","","","","","","","","","","","","",""
"learning-trial","203","739597","0.0-9.0-2.0-1.58","1556","1","2","""event"",""trial"",""time""
""fullscreenenter"",""1"",""2893""
","
","
","""event"",""trial"",""time""
""fullscreenenter"",""1"",""2893""
","
","","","","","","882.1000000238419","images/sheep5.png","","","learning","images/animals_choice3.png","images/animals_choice2.png","images/animals_choice1.png","[2,1,0]","1","1","1","images/animals_choice3.png","-1","animals","","sheep","1","0"
"html-keyboard-response","204","740098","0.0-9.0-2.0-0.59","1556","1","2","""event"",""trial"",""time""
""fullscreenenter"",""1"",""2893""
","
","
","""event"",""trial"",""time""
""fullscreenenter"",""1"",""2893""
","
","","","","","","null","<div style=""font-size:60px;"">+</div>","null","","fixation","","","","","","","","","","","","","",""
"learning-trial","205","744100","0.0-9.0-2.0-1.59","1556","1","2","""event"",""trial"",""time""
""fullscreenenter"",""1"",""2893""
","
","
","""event"",""trial"",""time""
""fullscreenenter"",""1"",""2893""
","
","","","","","","1032.7999999523163","images/horse4.png","","","learning","images/animals_choice2.png","images/animals_choice1.png","images/animals_choice3.png","[1,0,2]","2","2","3","images/animals_choice3.png","1","animals","","horse","1","0"
"html-keyboard-response","206","744602","0.0-9.0-2.0-0.60","1556","1","2","""event"",""trial"",""time""
""fullscreenenter"",""1"",""2893""
","
","
","""event"",""trial"",""time""
""fullscreenenter"",""1"",""2893""
","
","","","","","","null","<div style=""font-size:60px;"">+</div>","null","","fixation","","","","","","","","","","","","","",""
"learning-trial","207","748604","0.0-9.0-2.0-1.60","1556","1","2","""event"",""trial"",""time""
""fullscreenenter"",""1"",""2893""
","
","
","""event"",""trial"",""time""
""fullscreenenter"",""1"",""2893""
","
","","","","","","1051.5","images/horse4.png","","","learning","images/animals_choice3.png","images/animals_choice1.png","images/animals_choice2.png","[2,0,1]","2","0","1","images/animals_choice3.png","1","animals","","horse","1","0"
"html-keyboard-response","208","749105","0.0-9.0-2.0-0.61","1556","1","2","""event"",""trial"",""time""
""fullscreenenter"",""1"",""2893""
","
","
","""event"",""trial"",""time""
""fullscreenenter"",""1"",""2893""
","
","","","","","","null","<div style=""font-size:60px;"">+</div>","null","","fixation","","","","","","","","","","","","","",""
"learning-trial","209","753107","0.0-9.0-2.0-1.61","1556","1","2","""event"",""trial"",""time""
""fullscreenenter"",""1"",""2893""
","
","
","""event"",""trial"",""time""
""fullscreenenter"",""1"",""2893""
","
","","","","","","1097","images/sheep1.png","","","learning","images/animals_choice3.png","images/animals_choice2.png","images/animals_choice1.png","[2,1,0]","1","1","2","images/animals_choice2.png","1","animals","","sheep","1","0"
"html-keyboard-response","210","753610","0.0-9.0-2.0-0.62","1556","1","2","""event"",""trial"",""time""
""fullscreenenter"",""1"",""2893""
","
","
","""event"",""trial"",""time""
""fullscreenenter"",""1"",""2893""
","
","","","","","","null","<div style=""font-size:60px;"">+</div>","null","","fixation","","","","","","","","","","","","","",""
"learning-trial","211","757612","0.0-9.0-2.0-1.62","1556","1","2","""event"",""trial"",""time""
""fullscreenenter"",""1"",""2893""
","
","
","""event"",""trial"",""time""
""fullscreenenter"",""1"",""2893""
","
","","","","","","1336.1000000238419","images/cow4.png","","","learning","images/animals_choice2.png","images/animals_choice1.png","images/animals_choice3.png","[1,0,2]","0","1","2","images/animals_choice1.png","1","animals","","cow","1","0"
"html-keyboard-response","212","758113","0.0-9.0-2.0-0.63","1556","1","2","""event"",""trial"",""time""
""fullscreenenter"",""1"",""2893""
","
","
","""event"",""trial"",""time""
""fullscreenenter"",""1"",""2893""
","
","","","","","","null","<div style=""font-size:60px;"">+</div>","null","","fixation","","","","","","","","","","","","","",""
"learning-trial","213","762116","0.0-9.0-2.0-1.63","1556","1","2","""event"",""trial"",""time""
""fullscreenenter"",""1"",""2893""
","
","
","""event"",""trial"",""time""
""fullscreenenter"",""1"",""2893""
","
","","","","","","834.8000000119209","images/cow4.png","","","learning","images/animals_choice2.png","images/animals_choice1.png","images/animals_choice3.png","[1,0,2]","0","1","2","images/animals_choice1.png","1","animals","","cow","1","0"
"html-keyboard-response","214","762617","0.0-9.0-2.0-0.64","1556","1","2","""event"",""trial"",""time""
""fullscreenenter"",""1"",""2893""
","
","
","""event"",""trial"",""time""
""fullscreenenter"",""1"",""2893""
","
","","","","","","null","<div style=""font-size:60px;"">+</div>","null","","fixation","","","","","","","","","","","","","",""
"learning-trial","215","766618","0.0-9.0-2.0-1.64","1556","1","2","""event"",""trial"",""time""
""fullscreenenter"",""1"",""2893""
","
","
","""event"",""trial"",""time""
""fullscreenenter"",""1"",""2893""
","
","","","","","","865.3999999761581","images/cow2.png","","","learning","images/animals_choice1.png","images/animals_choice3.png","images/animals_choice2.png","[0,2,1]","0","0","2","images/animals_choice3.png","-1","animals","","cow","1","0"
"html-keyboard-response","216","767120","0.0-9.0-2.0-0.65","1556","1","2","""event"",""trial"",""time""
""fullscreenenter"",""1"",""2893""
","
","
","""event"",""trial"",""time""
""fullscreenenter"",""1"",""2893""
","
","","","","","","null","<div style=""font-size:60px;"">+</div>","null","","fixation","","","","","","","","","","","","","",""
"learning-trial","217","771122","0.0-9.0-2.0-1.65","1556","1","2","""event"",""trial"",""time""
""fullscreenenter"",""1"",""2893""
","
","
","""event"",""trial"",""time""
""fullscreenenter"",""1"",""2893""
","
","","","","","","916.5","images/cow4.png","","","learning","images/animals_choice2.png","images/animals_choice1.png","images/animals_choice3.png","[1,0,2]","0","1","2","images/animals_choice1.png","1","animals","","cow","1","0"
"html-keyboard-response","218","771624","0.0-9.0-2.0-0.66","1556","1","2","""event"",""trial"",""time""
""fullscreenenter"",""1"",""2893""
","
","
","""event"",""trial"",""time""
""fullscreenenter"",""1"",""2893""
","
","","","","","","null","<div style=""font-size:60px;"">+</div>","null","","fixation","","","","","","","","","","","","","",""
"learning-trial","219","775626","0.0-9.0-2.0-1.66","1556","1","2","""event"",""trial"",""time""
""fullscreenenter"",""1"",""2893""
","
","
","""event"",""trial"",""time""
""fullscreenenter"",""1"",""2893""
","
","","","","","","1787.8999999761581","images/horse4.png","","","learning","images/animals_choice3.png","images/animals_choice2.png","images/animals_choice1.png","[2,1,0]","2","0","1","images/animals_choice3.png","1","animals","","horse","1","0"
"html-keyboard-response","220","776127","0.0-9.0-2.0-0.67","1556","1","2","""event"",""trial"",""time""
""fullscreenenter"",""1"",""2893""
","
","
","""event"",""trial"",""time""
""fullscreenenter"",""1"",""2893""
","
","","","","","","null","<div style=""font-size:60px;"">+</div>","null","","fixation","","","","","","","","","","","","","",""
"learning-trial","221","780129","0.0-9.0-2.0-1.67","1556","1","2","""event"",""trial"",""time""
""fullscreenenter"",""1"",""2893""
","
","
","""event"",""trial"",""time""
""fullscreenenter"",""1"",""2893""
","
","","","","","","904.8999999761581","images/sheep2.png","","","learning","images/animals_choice1.png","images/animals_choice2.png","images/animals_choice3.png","[0,1,2]","1","1","2","images/animals_choice2.png","1","animals","","sheep","1","0"
"html-keyboard-response","222","780631","0.0-9.0-2.0-0.68","1556","1","2","""event"",""trial"",""time""
""fullscreenenter"",""1"",""2893""
","
","
","""event"",""trial"",""time""
""fullscreenenter"",""1"",""2893""
","
","","","","","","null","<div style=""font-size:60px;"">+</div>","null","","fixation","","","","","","","","","","","","","",""
"learning-trial","223","784633","0.0-9.0-2.0-1.68","1556","1","2","""event"",""trial"",""time""
""fullscreenenter"",""1"",""2893""
","
","
","""event"",""trial"",""time""
""fullscreenenter"",""1"",""2893""
","
","","","","","","1026.300000011921","images/sheep1.png","","","learning","images/animals_choice2.png","images/animals_choice3.png","images/animals_choice1.png","[1,2,0]","1","0","1","images/animals_choice2.png","1","animals","","sheep","1","0"
"html-keyboard-response","224","785135","0.0-9.0-2.0-0.69","1556","1","2","""event"",""trial"",""time""
""fullscreenenter"",""1"",""2893""
","
","
","""event"",""trial"",""time""
""fullscreenenter"",""1"",""2893""
","
","","","","","","null","<div style=""font-size:60px;"">+</div>","null","","fixation","","","","","","","","","","","","","",""
"learning-trial","225","789137","0.0-9.0-2.0-1.69","1556","1","2","""event"",""trial"",""time""
""fullscreenenter"",""1"",""2893""
","
","
","""event"",""trial"",""time""
""fullscreenenter"",""1"",""2893""
","
","","","","","","876.1999999880791","images/sheep1.png","","","learning","images/animals_choice2.png","images/animals_choice3.png","images/animals_choice1.png","[1,2,0]","1","0","1","images/animals_choice2.png","1","animals","","sheep","1","0"
"html-keyboard-response","226","789639","0.0-9.0-2.0-0.70","1556","1","2","""event"",""trial"",""time""
""fullscreenenter"",""1"",""2893""
","
","
","""event"",""trial"",""time""
""fullscreenenter"",""1"",""2893""
","
","","","","","","null","<div style=""font-size:60px;"">+</div>","null","","fixation","","","","","","","","","","","","","",""
"learning-trial","227","793641","0.0-9.0-2.0-1.70","1556","1","2","""event"",""trial"",""time""
""fullscreenenter"",""1"",""2893""
","
","
","""event"",""trial"",""time""
""fullscreenenter"",""1"",""2893""
","
","","","","","","1105.6000000238419","images/cow4.png","","","learning","images/animals_choice3.png","images/animals_choice2.png","images/animals_choice1.png","[2,1,0]","0","2","3","images/animals_choice1.png","1","animals","","cow","1","0"
"html-keyboard-response","228","794143","0.0-9.0-2.0-0.71","1556","1","2","""event"",""trial"",""time""
""fullscreenenter"",""1"",""2893""
","
","
","""event"",""trial"",""time""
""fullscreenenter"",""1"",""2893""
","
","","","","","","null","<div style=""font-size:60px;"">+</div>","null","","fixation","","","","","","","","","","","","","",""
"learning-trial","229","798145","0.0-9.0-2.0-1.71","1556","1","2","""event"",""trial"",""time""
""fullscreenenter"",""1"",""2893""
","
","
","""event"",""trial"",""time""
""fullscreenenter"",""1"",""2893""
","
","","","","","","954.1000000238419","images/horse2.png","","","learning","images/animals_choice1.png","images/animals_choice3.png","images/animals_choice2.png","[0,2,1]","2","1","2","images/animals_choice3.png","1","animals","","horse","1","0"
"html-button-response","230","800771","0.0-9.0-3.0","1556","1","2","""event"",""trial"",""time""
""fullscreenenter"",""1"",""2893""
","
","
","""event"",""trial"",""time""
""fullscreenenter"",""1"",""2893""
","
","","","","","","2624.800000011921","<p> You have completed the round! <p> In this round, you earned 40 points! </p>","0","","break","","","","","","","","","","","","","",""
"html-button-response","231","802405","0.0-10.0","1556","1","2","""event"",""trial"",""time""
""fullscreenenter"",""1"",""2893""
","
","
","""event"",""trial"",""time""
""fullscreenenter"",""1"",""2893""
","
","","","","","","1633.300000011921","<p> Now it's time to play another round. </p>","0","","transition_screen","","","","","","","","","","","","","",""
"preload","232","804501","0.0-11.0-0.0","1556","1","2","""event"",""trial"",""time""
""fullscreenenter"",""1"",""2893""
","
","
","""event"",""trial"",""time""
""fullscreenenter"",""1"",""2893""
","
","true","false","[]","[]","[]","","","","","","","","","","","","","","","","","","",""
"learning-instructions","233","813124","0.0-11.0-1.0-0.0","1556","1","2","""event"",""trial"",""time""
""fullscreenenter"",""1"",""2893""
","
","
","""event"",""trial"",""time""
""fullscreenenter"",""1"",""2893""
","
","","","","","","1934.1000000238419","<p> Your goal in this round is to feed all of your pets with the foods they like. </p><p> You will need to feed many pets. </p></div>","","0","instructions","","","","","","","","","","","","","",""
"learning-instructions","234","821609","0.0-11.0-1.0-0.1","1556","1","2","""event"",""trial"",""time""
""fullscreenenter"",""1"",""2893""
","
","
","""event"",""trial"",""time""
""fullscreenenter"",""1"",""2893""
","
","","","","","","488.69999998807907","<p> On each turn, you will see a picture of one of your pets and three different types of foods.  </p><p> You need to select the food that you want to give to your pet.  </p>","","0","instructions","","","","","","","","","","","","","",""
"learning-instructions","235","829158","0.0-11.0-1.0-0.2","1556","1","2","""event"",""trial"",""time""
""fullscreenenter"",""1"",""2893""
","
","
","""event"",""trial"",""time""
""fullscreenenter"",""1"",""2893""
","
","","","","","","827.6000000238419","<p> You can select the food on the left by pressing 1, the food in the middle by pressing 2, and the food on the right by pressing 3. </p><br><div class=""choice-instructions-grid""> <div class=""choice-option""><img src=""images/pets_choice1.png"" class=""choice-option-img"" stage=""instructions"" position=""0"" ><div class=""choice-option-text""> Press ""1."" </div></div><div class=""choice-option""><img src=""images/pets_choice2.png"" class=""choice-option-img"" stage=""instructions"" position=""1"" ><div class=""choice-option-text""> Press ""2."" </div></div><div class=""choice-option""><img src=""images/pets_choice3.png"" class=""choice-option-img"" stage=""instructions"" position=""2"" ><div class=""choice-option-text""> Press ""3."" </div></div></div>","","0","instructions","","","","","","","","","","","","","",""
