"trial_type","trial_index","time_elapsed","internal_node_id","subject_id","condition","task_version","interactions","blur_events","focus_events","fullscreenenter_events","fullscreenexit_events","success","timeout","failed_images","failed_audio","failed_video","rt","stimulus","response","button_pressed","task_part","left_choice","middle_choice","right_choice","choice_positions","correct_response","correct_position","key_press","option_selected","points","task_block","correct","stim_cat","block_condition","block_number"
"pavlovia","0","6","0.0-0.0","1441","1","2","""event"",""trial"",""time""
""fullscreenenter"",""1"",""1711""
","
","
","""event"",""trial"",""time""
""fullscreenenter"",""1"",""1711""
","
","","","","","","","","","","","","","","","","","","","","","","","",""
"fullscreen","1","2705","0.0-1.0","1441","1","2","""event"",""trial"",""time""
""fullscreenenter"",""1"",""1711""
","
","
","""event"",""trial"",""time""
""fullscreenenter"",""1"",""1711""
","
","true","","","","","","","","","","","","","","","","","","","","","","",""
"preload","2","8003","0.0-2.0","1441","1","2","""event"",""trial"",""time""
""fullscreenenter"",""1"",""1711""
","
","
","""event"",""trial"",""time""
""fullscreenenter"",""1"",""1711""
","
","true","false","[]","[]","[]","","","","","","","","","","","","","","","","","","",""
"audio-keyboard-response","3","12114","0.0-3.0","1441","1","2","""event"",""trial"",""time""
""fullscreenenter"",""1"",""1711""
","
","
","""event"",""trial"",""time""
""fullscreenenter"",""1"",""1711""
","
","","","","","","4109.333333333334","audio/beep_loop.wav"," ","","","","","","","","","","","","","","","",""
"audio-button-response","4","19292","0.0-4.0","1441","1","2","""event"",""trial"",""time""
""fullscreenenter"",""1"",""1711""
","
","
","""event"",""trial"",""time""
""fullscreenenter"",""1"",""1711""
","
","","","","","","7171","audio/shark.wav","4","","","","","","","","","","","","","","","",""
"audio-button-response","5","21763","0.0-5.0","1441","1","2","""event"",""trial"",""time""
""fullscreenenter"",""1"",""1711""
","
","
","""event"",""trial"",""time""
""fullscreenenter"",""1"",""1711""
","
","","","","","","1461","audio/turtle.wav","1","","","","","","","","","","","","","","","",""
"preload","6","27635","0.0-6.0","1441","1","2","""event"",""trial"",""time""
""fullscreenenter"",""1"",""1711""
","
","
","""event"",""trial"",""time""
""fullscreenenter"",""1"",""1711""
","
","true","false","[]","[]","[]","","","","","","","","","","","","","","","","","","",""
"html-keyboard-response","7","30672","0.0-7.0","1441","1","2","""event"",""trial"",""time""
""fullscreenenter"",""1"",""1711""
","
","
","""event"",""trial"",""time""
""fullscreenenter"",""1"",""1711""
","
","","","","","","3034.360000000106","Welcome to the experiment. Press any key to begin and to advance the instructions.","g","","","","","","","","","","","","","","","",""
"learning-instructions","8","40164","0.0-8.0-0.0-0.0","1441","1","2","""event"",""trial"",""time""
""fullscreenenter"",""1"",""1711""
","
","
","""event"",""trial"",""time""
""fullscreenenter"",""1"",""1711""
","
","","","","","","1746.8249999997206","<p> Welcome! Today you are going to play 6 different rounds of a decision-making game. </p><p> Use the mouse to click next to continue. </p>","","0","instructions","","","","","","","","","","","","","",""
"learning-instructions","9","44316","0.0-8.0-0.0-0.1","1441","1","2","""event"",""trial"",""time""
""fullscreenenter"",""1"",""1711""
","
","
","""event"",""trial"",""time""
""fullscreenenter"",""1"",""1711""
","
","","","","","","1138.6149999998452","<p> You will start with a practice round to learn the rules. </p>","","0","instructions","","","","","","","","","","","","","",""
"learning-instructions","10","54004","0.0-8.0-0.0-0.2","1441","1","2","""event"",""trial"",""time""
""fullscreenenter"",""1"",""1711""
","
","
","""event"",""trial"",""time""
""fullscreenenter"",""1"",""1711""
","
","","","","","","1936.6749999999229","<p> Your goal in this round is to deliver sports equipment to three different parks. </p><p> You will need to deliver many types of equipment. </p></div>","","0","instructions","","","","","","","","","","","","","",""
"learning-instructions","11","82700","0.0-8.0-0.0-0.3","1441","1","2","""event"",""trial"",""time""
""fullscreenenter"",""1"",""1711""
","
","
","""event"",""trial"",""time""
""fullscreenenter"",""1"",""1711""
","
","","","","","","20212.759999999893","<p> On each turn, you will see one piece of sports equipment and three different parks.  </p><p> You need to select which park to deliver the equipment to.  </p>","","0","instructions","","","","","","","","","","","","","",""
"learning-instructions","12","98108","0.0-8.0-0.0-0.4","1441","1","2","""event"",""trial"",""time""
""fullscreenenter"",""1"",""1711""
","
","
","""event"",""trial"",""time""
""fullscreenenter"",""1"",""1711""
","
","","","","","","2110.2800000003335","<p> You can select the park on the left by pressing the '1' key on your keyboard. <br>You can select the park in the middle by pressing the '2' key on your keyboard. <br>You can select the park on the right by pressing the '3' key on your keyboard.  </p><br><div class=""choice-instructions-grid""> <div class=""choice-option""><img src=""images/park1.png"" class=""choice-option-img"" stage=""instructions"" position=""0"" ><div class=""choice-option-text""> Press ""1."" </div></div><div class=""choice-option""><img src=""images/park2.png"" class=""choice-option-img"" stage=""instructions"" position=""1"" ><div class=""choice-option-text""> Press ""2."" </div></div><div class=""choice-option""><img src=""images/park3.png"" class=""choice-option-img"" stage=""instructions"" position=""2"" ><div class=""choice-option-text""> Press ""3."" </div></div></div>","","0","instructions","","","","","","","","","","","","","",""
"learning-instructions","13","110876","0.0-8.0-0.0-0.5","1441","1","2","""event"",""trial"",""time""
""fullscreenenter"",""1"",""1711""
","
","
","""event"",""trial"",""time""
""fullscreenenter"",""1"",""1711""
","
","","","","","","7368.674999999712","<p> If the kids in the park you chose like the equipment, they will be very happy! </p><div style='float: center;'><img src='images/check.png' width = '200' height = '200'></img>","","0","instructions","","","","","","","","","","","","","",""
"learning-instructions","14","118668","0.0-8.0-0.0-0.6","1441","1","2","""event"",""trial"",""time""
""fullscreenenter"",""1"",""1711""
","
","
","""event"",""trial"",""time""
""fullscreenenter"",""1"",""1711""
","
","","","","","","2190.600000000355","<p> But, if the kids in the park you chose do not like the equipment, they will be sad. </p><div style='float: center;'><img src='images/x.png' width = '200' height = '200'></img>","","0","instructions","","","","","","","","","","","","","",""
"learning-instructions","15","127733","0.0-8.0-0.0-0.7","1441","1","2","""event"",""trial"",""time""
""fullscreenenter"",""1"",""1711""
","
","
","""event"",""trial"",""time""
""fullscreenenter"",""1"",""1711""
","
","","","","","","2625.930000000153","<p> Importantly, the kids in each park like some pieces of sports equipment more than others. </p>","","0","instructions","","","","","","","","","","","","","",""
"learning-instructions","16","135412","0.0-8.0-0.0-0.8","1441","1","2","""event"",""trial"",""time""
""fullscreenenter"",""1"",""1711""
","
","
","""event"",""trial"",""time""
""fullscreenenter"",""1"",""1711""
","
","","","","","","1614.1450000000186","<p> If you choose the best park for each piece of equipment, the kids there will usually be happy. </p>","","0","instructions","","","","","","","","","","","","","",""
"learning-instructions","17","144156","0.0-8.0-0.0-0.9","1441","1","2","""event"",""trial"",""time""
""fullscreenenter"",""1"",""1711""
","
","
","""event"",""trial"",""time""
""fullscreenenter"",""1"",""1711""
","
","","","","","","2108.930000000313","<p> However, even if you choose the best park for the equipment, the kids may sometimes be sad. </p>","","0","instructions","","","","","","","","","","","","","",""
"learning-instructions","18","152732","0.0-8.0-0.0-0.10","1441","1","2","""event"",""trial"",""time""
""fullscreenenter"",""1"",""1711""
","
","
","""event"",""trial"",""time""
""fullscreenenter"",""1"",""1711""
","
","","","","","","1334.7799999996787","<p> Similarly, even if you choose the <i>wrong</i> park for the equipment, the kids may still be happy sometimes.","","0","instructions","","","","","","","","","","","","","",""
"learning-instructions","19","160780","0.0-8.0-0.0-0.11","1441","1","2","""event"",""trial"",""time""
""fullscreenenter"",""1"",""1711""
","
","
","""event"",""trial"",""time""
""fullscreenenter"",""1"",""1711""
","
","","","","","","2992.4000000000815","<p> For example, the best park for this soccer ball is this one.<div style='float: center;'><img src='images/i1.png' width = '500' height = '268'></img>","","0","instructions","","","","","","","","","","","","","",""
"learning-instructions","20","167764","0.0-8.0-0.0-0.12","1441","1","2","""event"",""trial"",""time""
""fullscreenenter"",""1"",""1711""
","
","
","""event"",""trial"",""time""
""fullscreenenter"",""1"",""1711""
","
","","","","","","1686.3249999996624","<p> Let's see what happens if you choose this park for the soccer ball five times.","","0","instructions","","","","","","","","","","","","","",""
"learning-instructions","21","171404","0.0-8.0-0.0-0.13","1441","1","2","""event"",""trial"",""time""
""fullscreenenter"",""1"",""1711""
","
","
","""event"",""trial"",""time""
""fullscreenenter"",""1"",""1711""
","
","","","","","","1455.9349999999395","<p> The kids are happy.<div style='float: left;'><img src='images/i2.png' width = '640' height = '360'></img>","","0","instructions","","","","","","","","","","","","","",""
"learning-instructions","22","174388","0.0-8.0-0.0-0.14","1441","1","2","""event"",""trial"",""time""
""fullscreenenter"",""1"",""1711""
","
","
","""event"",""trial"",""time""
""fullscreenenter"",""1"",""1711""
","
","","","","","","790.1999999998952","<p> The kids are happy.<div style='float: left;'><img src='images/i3.png' width = '640' height = '360'></img>","","0","instructions","","","","","","","","","","","","","",""
"learning-instructions","23","176884","0.0-8.0-0.0-0.15","1441","1","2","""event"",""trial"",""time""
""fullscreenenter"",""1"",""1711""
","
","
","""event"",""trial"",""time""
""fullscreenenter"",""1"",""1711""
","
","","","","","","315.7949999999546","<p> The kids are happy.<div style='float: left;'><img src='images/i4.png' width = '640' height = '360'></img>","","0","instructions","","","","","","","","","","","","","",""
"learning-instructions","24","179636","0.0-8.0-0.0-0.16","1441","1","2","""event"",""trial"",""time""
""fullscreenenter"",""1"",""1711""
","
","
","""event"",""trial"",""time""
""fullscreenenter"",""1"",""1711""
","
","","","","","","558.4600000001956","<p> The kids are sad.<div style='float: left;'><img src='images/i5.png' width = '640' height = '360'></img>","","0","instructions","","","","","","","","","","","","","",""
"learning-instructions","25","182420","0.0-8.0-0.0-0.17","1441","1","2","""event"",""trial"",""time""
""fullscreenenter"",""1"",""1711""
","
","
","""event"",""trial"",""time""
""fullscreenenter"",""1"",""1711""
","
","","","","","","612.2300000001851","<p> The kids are happy.<div style='float: left;'><img src='images/i6.png' width = '640' height = '360'></img>","","0","instructions","","","","","","","","","","","","","",""
"learning-instructions","26","190908","0.0-8.0-0.0-0.18","1441","1","2","""event"",""trial"",""time""
""fullscreenenter"",""1"",""1711""
","
","
","""event"",""trial"",""time""
""fullscreenenter"",""1"",""1711""
","
","","","","","","1209.8550000000687","<p> As you can see, selecting that park for the soccer ball made the kids happy most of the time, but not all the time.","","0","instructions","","","","","","","","","","","","","",""
"learning-instructions","27","198612","0.0-8.0-0.0-0.19","1441","1","2","""event"",""trial"",""time""
""fullscreenenter"",""1"",""1711""
","
","
","""event"",""trial"",""time""
""fullscreenenter"",""1"",""1711""
","
","","","","","","1704.5800000001036","<p> Now let's see what happens if you choose a DIFFERENT park for the soccer ball 5 times.","","0","instructions","","","","","","","","","","","","","",""
"learning-instructions","28","202292","0.0-8.0-0.0-0.20","1441","1","2","""event"",""trial"",""time""
""fullscreenenter"",""1"",""1711""
","
","
","""event"",""trial"",""time""
""fullscreenenter"",""1"",""1711""
","
","","","","","","1463.835000000021","<p> The kids are sad.<div style='float: left;'><img src='images/i7.png' width = '640' height = '360'></img>","","0","instructions","","","","","","","","","","","","","",""
"learning-instructions","29","205661","0.0-8.0-0.0-0.21","1441","1","2","""event"",""trial"",""time""
""fullscreenenter"",""1"",""1711""
","
","
","""event"",""trial"",""time""
""fullscreenenter"",""1"",""1711""
","
","","","","","","1142.2600000000675","<p> The kids are sad.<div style='float: left;'><img src='images/i8.png' width = '640' height = '360'></img>","","0","instructions","","","","","","","","","","","","","",""
"learning-instructions","30","208412","0.0-8.0-0.0-0.22","1441","1","2","""event"",""trial"",""time""
""fullscreenenter"",""1"",""1711""
","
","
","""event"",""trial"",""time""
""fullscreenenter"",""1"",""1711""
","
","","","","","","574.2399999999325","<p> The kids are happy.<div style='float: left;'><img src='images/i9.png' width = '640' height = '360'></img>","","0","instructions","","","","","","","","","","","","","",""
"learning-instructions","31","211252","0.0-8.0-0.0-0.23","1441","1","2","""event"",""trial"",""time""
""fullscreenenter"",""1"",""1711""
","
","
","""event"",""trial"",""time""
""fullscreenenter"",""1"",""1711""
","
","","","","","","624.3850000000675","<p> The kids are sad.<div style='float: left;'><img src='images/i10.png' width = '640' height = '360'></img>","","0","instructions","","","","","","","","","","","","","",""
"learning-instructions","32","214149","0.0-8.0-0.0-0.24","1441","1","2","""event"",""trial"",""time""
""fullscreenenter"",""1"",""1711""
","
","
","""event"",""trial"",""time""
""fullscreenenter"",""1"",""1711""
","
","","","","","","670.9950000004028","<p> The kids are sad.<div style='float: left;'><img src='images/i11.png' width = '640' height = '360'></img>","","0","instructions","","","","","","","","","","","","","",""
"learning-instructions","33","224084","0.0-8.0-0.0-0.25","1441","1","2","""event"",""trial"",""time""
""fullscreenenter"",""1"",""1711""
","
","
","""event"",""trial"",""time""
""fullscreenenter"",""1"",""1711""
","
","","","","","","1796.5549999998766","<p> As you can see, selecting the wrong park for the soccer ball made the kids sad most of the time, but not all the time.","","0","instructions","","","","","","","","","","","","","",""
"learning-instructions","34","234525","0.0-8.0-0.0-0.26","1441","1","2","""event"",""trial"",""time""
""fullscreenenter"",""1"",""1711""
","
","
","""event"",""trial"",""time""
""fullscreenenter"",""1"",""1711""
","
","","","","","","1316.3549999999232","<p> The different pieces of equipment belong in different parks. You need to try to learn which is the best park for each piece of equipment.","","0","instructions","","","","","","","","","","","","","",""
"learning-instructions","35","252461","0.0-8.0-0.0-0.27","1441","1","2","""event"",""trial"",""time""
""fullscreenenter"",""1"",""1711""
","
","
","""event"",""trial"",""time""
""fullscreenenter"",""1"",""1711""
","
","","","","","","1541.7050000001036","<p> Try to choose the best park for each piece of equipment, because you will <b> WIN </b> 1 point for each time you make the kids happy and <b>LOSE</b> 1 point for each time you make them sad. </p><p> Remember, if you make the best choice, you will win 1 point most of the time, but not all the time. </p>","","0","instructions","","","","","","","","","","","","","",""
"learning-instructions","36","258605","0.0-8.0-0.0-0.28","1441","1","2","""event"",""trial"",""time""
""fullscreenenter"",""1"",""1711""
","
","
","""event"",""trial"",""time""
""fullscreenenter"",""1"",""1711""
","
","","","","","","656.4499999999534","<p> This is just a practice round, but in the real game, your bonus payment will depend on your total number of points.","","0","instructions","","","","","","","","","","","","","",""
"learning-instructions","37","270333","0.0-8.0-0.0-0.29","1441","1","2","""event"",""trial"",""time""
""fullscreenenter"",""1"",""1711""
","
","
","""event"",""trial"",""time""
""fullscreenenter"",""1"",""1711""
","
","","","","","","1404.594999999972","<p> The position where each park appears will change throughout the game. </p><p> The position where the park appears <i> does not </i> influence how likely the kids are to be happy or sad. </p>","","0","instructions","","","","","","","","","","","","","",""
"learning-instructions","38","284957","0.0-8.0-0.0-0.30","1441","1","2","""event"",""trial"",""time""
""fullscreenenter"",""1"",""1711""
","
","
","""event"",""trial"",""time""
""fullscreenenter"",""1"",""1711""
","
","","","","","","3018.9000000000233","<p> You will have 4 seconds to make each choice. Try to respond before time runs out! </p><p> You will lose 1 point each time you do not make a response. </p>","","0","instructions","","","","","","","","","","","","","",""
"learning-instructions","39","294061","0.0-8.0-0.0-0.31","1441","1","2","""event"",""trial"",""time""
""fullscreenenter"",""1"",""1711""
","
","
","""event"",""trial"",""time""
""fullscreenenter"",""1"",""1711""
","
","","","","","","2301.670000000333","<p> Remember, you should use the 1, 2, and 3 keys to select the park for each piece of equipment. </p><br><div class=""choice-instructions-grid""> <div class=""choice-option""><img src=""images/park1.png"" class=""choice-option-img"" stage=""instructions"" position=""0"" ><div class=""choice-option-text""> Press ""1."" </div></div><div class=""choice-option""><img src=""images/park2.png"" class=""choice-option-img"" stage=""instructions"" position=""1"" ><div class=""choice-option-text""> Press ""2."" </div></div><div class=""choice-option""><img src=""images/park3.png"" class=""choice-option-img"" stage=""instructions"" position=""2"" ><div class=""choice-option-text""> Press ""3."" </div></div></div>","","0","instructions","","","","","","","","","","","","","",""
"html-button-response","40","296109","0.0-8.0-1.0","1441","1","2","""event"",""trial"",""time""
""fullscreenenter"",""1"",""1711""
","
","
","""event"",""trial"",""time""
""fullscreenenter"",""1"",""1711""
","
","","","","","","1940.469999999972","<p> Ready to practice? </p>","0","","","","","","","","","","","","","","","",""
"html-keyboard-response","41","296727","0.0-8.0-2.0-0.0","1441","1","2","""event"",""trial"",""time""
""fullscreenenter"",""1"",""1711""
","
","
","""event"",""trial"",""time""
""fullscreenenter"",""1"",""1711""
","
","","","","","","null","<div style=""font-size:60px;"">+</div>","null","","fixation","","","","","","","","","","","","","",""
"learning-trial","42","300737","0.0-8.0-2.0-1.0","1441","1","2","""event"",""trial"",""time""
""fullscreenenter"",""1"",""1711""
","
","
","""event"",""trial"",""time""
""fullscreenenter"",""1"",""1711""
","
","","","","","","2875.939999999886","images/ball1.png","","","practice","images/park2.png","images/park3.png","images/park1.png","[1,2,0]","1","0","2","images/park3.png","-1","practice","","","",""
"html-keyboard-response","43","301244","0.0-8.0-2.0-0.1","1441","1","2","""event"",""trial"",""time""
""fullscreenenter"",""1"",""1711""
","
","
","""event"",""trial"",""time""
""fullscreenenter"",""1"",""1711""
","
","","","","","","null","<div style=""font-size:60px;"">+</div>","null","","fixation","","","","","","","","","","","","","",""
"learning-trial","44","305261","0.0-8.0-2.0-1.1","1441","1","2","""event"",""trial"",""time""
""fullscreenenter"",""1"",""1711""
","
","
","""event"",""trial"",""time""
""fullscreenenter"",""1"",""1711""
","
","","","","","","2397.5300000001444","images/racket4.png","","","practice","images/park1.png","images/park3.png","images/park2.png","[0,2,1]","0","0","2","images/park3.png","-1","practice","","","",""
"html-keyboard-response","45","305766","0.0-8.0-2.0-0.2","1441","1","2","""event"",""trial"",""time""
""fullscreenenter"",""1"",""1711""
","
","
","""event"",""trial"",""time""
""fullscreenenter"",""1"",""1711""
","
","","","","","","null","<div style=""font-size:60px;"">+</div>","null","","fixation","","","","","","","","","","","","","",""
"learning-trial","46","309776","0.0-8.0-2.0-1.2","1441","1","2","""event"",""trial"",""time""
""fullscreenenter"",""1"",""1711""
","
","
","""event"",""trial"",""time""
""fullscreenenter"",""1"",""1711""
","
","","","","","","2183.169999999809","images/ball3.png","","","practice","images/park2.png","images/park1.png","images/park3.png","[1,0,2]","1","0","3","images/park3.png","-1","practice","","","",""
"html-keyboard-response","47","310291","0.0-8.0-2.0-0.3","1441","1","2","""event"",""trial"",""time""
""fullscreenenter"",""1"",""1711""
","
","
","""event"",""trial"",""time""
""fullscreenenter"",""1"",""1711""
","
","","","","","","null","<div style=""font-size:60px;"">+</div>","null","","fixation","","","","","","","","","","","","","",""
"learning-trial","48","314296","0.0-8.0-2.0-1.3","1441","1","2","""event"",""trial"",""time""
""fullscreenenter"",""1"",""1711""
","
","
","""event"",""trial"",""time""
""fullscreenenter"",""1"",""1711""
","
","","","","","","2707.390000000014","images/racket4.png","","","practice","images/park1.png","images/park2.png","images/park3.png","[0,1,2]","0","0","1","images/park1.png","1","practice","","","",""
"html-keyboard-response","49","314816","0.0-8.0-2.0-0.4","1441","1","2","""event"",""trial"",""time""
""fullscreenenter"",""1"",""1711""
","
","
","""event"",""trial"",""time""
""fullscreenenter"",""1"",""1711""
","
","","","","","","null","<div style=""font-size:60px;"">+</div>","null","","fixation","","","","","","","","","","","","","",""
"learning-trial","50","318826","0.0-8.0-2.0-1.4","1441","1","2","""event"",""trial"",""time""
""fullscreenenter"",""1"",""1711""
","
","
","""event"",""trial"",""time""
""fullscreenenter"",""1"",""1711""
","
","","","","","","null","images/racket1.png","","","practice","images/park1.png","images/park3.png","images/park2.png","[0,2,1]","2","1","null","null","-1","practice","","","",""
"html-keyboard-response","51","319336","0.0-8.0-2.0-0.5","1441","1","2","""event"",""trial"",""time""
""fullscreenenter"",""1"",""1711""
","
","
","""event"",""trial"",""time""
""fullscreenenter"",""1"",""1711""
","
","","","","","","null","<div style=""font-size:60px;"">+</div>","null","","fixation","","","","","","","","","","","","","",""
"learning-trial","52","323341","0.0-8.0-2.0-1.5","1441","1","2","""event"",""trial"",""time""
""fullscreenenter"",""1"",""1711""
","
","
","""event"",""trial"",""time""
""fullscreenenter"",""1"",""1711""
","
","","","","","","2563.1300000000047","images/racket1.png","","","practice","images/park1.png","images/park2.png","images/park3.png","[0,1,2]","2","2","3","images/park3.png","1","practice","","","",""
"html-keyboard-response","53","323843","0.0-8.0-2.0-0.6","1441","1","2","""event"",""trial"",""time""
""fullscreenenter"",""1"",""1711""
","
","
","""event"",""trial"",""time""
""fullscreenenter"",""1"",""1711""
","
","","","","","","null","<div style=""font-size:60px;"">+</div>","null","","fixation","","","","","","","","","","","","","",""
"learning-trial","54","327849","0.0-8.0-2.0-1.6","1441","1","2","""event"",""trial"",""time""
""fullscreenenter"",""1"",""1711""
","
","
","""event"",""trial"",""time""
""fullscreenenter"",""1"",""1711""
","
","","","","","","2554.5899999997346","images/ball1.png","","","practice","images/park2.png","images/park3.png","images/park1.png","[1,2,0]","1","0","3","images/park1.png","-1","practice","","","",""
"html-keyboard-response","55","328351","0.0-8.0-2.0-0.7","1441","1","2","""event"",""trial"",""time""
""fullscreenenter"",""1"",""1711""
","
","
","""event"",""trial"",""time""
""fullscreenenter"",""1"",""1711""
","
","","","","","","null","<div style=""font-size:60px;"">+</div>","null","","fixation","","","","","","","","","","","","","",""
"learning-trial","56","332362","0.0-8.0-2.0-1.7","1441","1","2","""event"",""trial"",""time""
""fullscreenenter"",""1"",""1711""
","
","
","""event"",""trial"",""time""
""fullscreenenter"",""1"",""1711""
","
","","","","","","2037.5549999998766","images/ball2.png","","","practice","images/park3.png","images/park1.png","images/park2.png","[2,0,1]","0","1","2","images/park1.png","1","practice","","","",""
"html-keyboard-response","57","332867","0.0-8.0-2.0-0.8","1441","1","2","""event"",""trial"",""time""
""fullscreenenter"",""1"",""1711""
","
","
","""event"",""trial"",""time""
""fullscreenenter"",""1"",""1711""
","
","","","","","","null","<div style=""font-size:60px;"">+</div>","null","","fixation","","","","","","","","","","","","","",""
"learning-trial","58","336872","0.0-8.0-2.0-1.8","1441","1","2","""event"",""trial"",""time""
""fullscreenenter"",""1"",""1711""
","
","
","""event"",""trial"",""time""
""fullscreenenter"",""1"",""1711""
","
","","","","","","1441.3850000000675","images/ball4.png","","","practice","images/park2.png","images/park1.png","images/park3.png","[1,0,2]","2","2","2","images/park1.png","-1","practice","","","",""
"html-keyboard-response","59","337375","0.0-8.0-2.0-0.9","1441","1","2","""event"",""trial"",""time""
""fullscreenenter"",""1"",""1711""
","
","
","""event"",""trial"",""time""
""fullscreenenter"",""1"",""1711""
","
","","","","","","null","<div style=""font-size:60px;"">+</div>","null","","fixation","","","","","","","","","","","","","",""
"learning-trial","60","341387","0.0-8.0-2.0-1.9","1441","1","2","""event"",""trial"",""time""
""fullscreenenter"",""1"",""1711""
","
","
","""event"",""trial"",""time""
""fullscreenenter"",""1"",""1711""
","
","","","","","","1641.0900000000838","images/ball2.png","","","practice","images/park2.png","images/park1.png","images/park3.png","[1,0,2]","0","1","3","images/park3.png","-1","practice","","","",""
"html-keyboard-response","61","341891","0.0-8.0-2.0-0.10","1441","1","2","""event"",""trial"",""time""
""fullscreenenter"",""1"",""1711""
","
","
","""event"",""trial"",""time""
""fullscreenenter"",""1"",""1711""
","
","","","","","","null","<div style=""font-size:60px;"">+</div>","null","","fixation","","","","","","","","","","","","","",""
"learning-trial","62","345895","0.0-8.0-2.0-1.10","1441","1","2","""event"",""trial"",""time""
""fullscreenenter"",""1"",""1711""
","
","
","""event"",""trial"",""time""
""fullscreenenter"",""1"",""1711""
","
","","","","","","1897.5649999997695","images/ball4.png","","","practice","images/park3.png","images/park1.png","images/park2.png","[2,0,1]","2","0","1","images/park3.png","1","practice","","","",""
"html-keyboard-response","63","346407","0.0-8.0-2.0-0.11","1441","1","2","""event"",""trial"",""time""
""fullscreenenter"",""1"",""1711""
","
","
","""event"",""trial"",""time""
""fullscreenenter"",""1"",""1711""
","
","","","","","","null","<div style=""font-size:60px;"">+</div>","null","","fixation","","","","","","","","","","","","","",""
"learning-trial","64","350418","0.0-8.0-2.0-1.11","1441","1","2","""event"",""trial"",""time""
""fullscreenenter"",""1"",""1711""
","
","
","""event"",""trial"",""time""
""fullscreenenter"",""1"",""1711""
","
","","","","","","2001.8549999999814","images/ball3.png","","","practice","images/park2.png","images/park1.png","images/park3.png","[1,0,2]","1","0","1","images/park2.png","1","practice","","","",""
"html-button-response","65","353124","0.0-8.0-3.0","1441","1","2","""event"",""trial"",""time""
""fullscreenenter"",""1"",""1711""
","
","
","""event"",""trial"",""time""
""fullscreenenter"",""1"",""1711""
","
","","","","","","2703.184999999823","<p> You earned -2 points in the practice round! </p>","0","","break","","","","","","","","","","","","","",""
"learning-instructions","66","363558","0.0-8.0-4.0-0.0","1441","1","2","""event"",""trial"",""time""
""fullscreenenter"",""1"",""1711""
","
","
","""event"",""trial"",""time""
""fullscreenenter"",""1"",""1711""
","
","","","","","","2472.909999999916","<p> It's almost time to start the real game. </p><p> Before you start, we're going to ask you a few questions about how the game works. </p>","","0","instructions","","","","","","","","","","","","","",""
"preload","67","365903","0.0-8.0-5.0","1441","1","2","""event"",""trial"",""time""
""fullscreenenter"",""1"",""1711""
","
","
","""event"",""trial"",""time""
""fullscreenenter"",""1"",""1711""
","
","true","false","[]","[]","[]","","","","","","","","","","","","","","","","","","",""
"comp-q","68","372534","0.0-8.0-6.0-0.0","1441","1","2","""event"",""trial"",""time""
""fullscreenenter"",""1"",""1711""
","
","
","""event"",""trial"",""time""
""fullscreenenter"",""1"",""1711""
","
","","","","","","1168.3749999997672","<p> <b> True or False? </b> </p><p> If you choose the best option, you will always earn 1 point. </p>","","1","comp_question","","","","","","","","","","","true","","",""
"comp-q","69","380798","0.0-8.0-6.0-1.0","1441","1","2","""event"",""trial"",""time""
""fullscreenenter"",""1"",""1711""
","
","
","""event"",""trial"",""time""
""fullscreenenter"",""1"",""1711""
","
","","","","","","2592.6650000001537","<p><b> That's right! </b> Sometimes you will lose 1 point, even if you choose the best option. </p>","","0","comp_answer","","","","","","","","","","","","","",""
"comp-q","70","386422","0.0-8.0-6.0-0.1","1441","1","2","""event"",""trial"",""time""
""fullscreenenter"",""1"",""1711""
","
","
","""event"",""trial"",""time""
""fullscreenenter"",""1"",""1711""
","
","","","","","","986.9599999996717","<p> <b> True or False? </b> </p><p> You will have as much time as you want to make each choice. </p>","","1","comp_question","","","","","","","","","","","true","","",""
"comp-q","71","393998","0.0-8.0-6.0-1.1","1441","1","2","""event"",""trial"",""time""
""fullscreenenter"",""1"",""1711""
","
","
","""event"",""trial"",""time""
""fullscreenenter"",""1"",""1711""
","
","","","","","","2742.664999999746","<p> <b> That's right! </b> You will only have 4 seconds to make each choice. </p>","","0","comp_answer","","","","","","","","","","","","","",""
"comp-q","72","401134","0.0-8.0-6.0-0.2","1441","1","2","""event"",""trial"",""time""
""fullscreenenter"",""1"",""1711""
","
","
","""event"",""trial"",""time""
""fullscreenenter"",""1"",""1711""
","
","","","","","","979.390000000014","<p> <b> True or False? </b> </p><p> You should use the '1', '2', and '3' keys to make your choices. </p>","","0","comp_question","","","","","","","","","","","true","","",""
"comp-q","73","407454","0.0-8.0-6.0-1.2","1441","1","2","""event"",""trial"",""time""
""fullscreenenter"",""1"",""1711""
","
","
","""event"",""trial"",""time""
""fullscreenenter"",""1"",""1711""
","
","","","","","","1479.1249999998254","<p> <b> That's right! </b> You should use the '1', '2', and '3' keys to make each choice. </p>","","0","comp_answer","","","","","","","","","","","","","",""
"learning-instructions","74","417254","0.0-8.0-7.0-0.0","1441","1","2","""event"",""trial"",""time""
""fullscreenenter"",""1"",""1711""
","
","
","""event"",""trial"",""time""
""fullscreenenter"",""1"",""1711""
","
","","","","","","1299.8350000002538","<p> It's now time to start the real game. </p>Do your best, because the points you earn in the next rounds will influence your bonus payment. </p>","","0","instructions","","","","","","","","","","","","","",""
"preload","75","420113","0.0-9.0-0.0","1441","1","2","""event"",""trial"",""time""
""fullscreenenter"",""1"",""1711""
","
","
","""event"",""trial"",""time""
""fullscreenenter"",""1"",""1711""
","
","true","false","[]","[]","[]","","","","","","","","","","","","","","","","","","",""
"learning-instructions","76","430157","0.0-9.0-1.0-0.0","1441","1","2","""event"",""trial"",""time""
""fullscreenenter"",""1"",""1711""
","
","
","""event"",""trial"",""time""
""fullscreenenter"",""1"",""1711""
","
","","","","","","1704.445000000298","<p> Your goal in this round is to travel the world by putting fuel into different vehicles. </p><p> To travel, you will need to put fuel into many different vehicles. </p></div>","","0","instructions","","","","","","","","","","","","","",""
"learning-instructions","77","441637","0.0-9.0-1.0-0.1","1441","1","2","""event"",""trial"",""time""
""fullscreenenter"",""1"",""1711""
","
","
","""event"",""trial"",""time""
""fullscreenenter"",""1"",""1711""
","
","","","","","","2685.0450000001583","<p> On each turn, you will see a picture of one of your vehicles and three different types of fuel.  </p><p> You need to select which kind of fuel to use.  </p>","","0","instructions","","","","","","","","","","","","","",""
"learning-instructions","78","450621","0.0-9.0-1.0-0.2","1441","1","2","""event"",""trial"",""time""
""fullscreenenter"",""1"",""1711""
","
","
","""event"",""trial"",""time""
""fullscreenenter"",""1"",""1711""
","
","","","","","","2108.2150000002002","<p> You can select the fuel on the left by pressing 1, the fuel in the middle by pressing 2, and the fuel on the right by pressing 3. </p><br><div class=""choice-instructions-grid""> <div class=""choice-option""><img src=""images/vehicles_choice1.png"" class=""choice-option-img"" stage=""instructions"" position=""0"" ><div class=""choice-option-text""> Press ""1."" </div></div><div class=""choice-option""><img src=""images/vehicles_choice2.png"" class=""choice-option-img"" stage=""instructions"" position=""1"" ><div class=""choice-option-text""> Press ""2."" </div></div><div class=""choice-option""><img src=""images/vehicles_choice3.png"" class=""choice-option-img"" stage=""instructions"" position=""2"" ><div class=""choice-option-text""> Press ""3."" </div></div></div>","","0","instructions","","","","","","","","","","","","","",""
"learning-instructions","79","457317","0.0-9.0-1.0-0.3","1441","1","2","""event"",""trial"",""time""
""fullscreenenter"",""1"",""1711""
","
","
","""event"",""trial"",""time""
""fullscreenenter"",""1"",""1711""
","
","","","","","","1444.874999999709","<p> If the fuel you chose works for that vehicle, it will start, and </p><p> you will get to travel. </p><div style='float: center;'><img src='images/check.png' width = '200' height = '200'></img>","","0","instructions","","","","","","","","","","","","","",""
"learning-instructions","80","462701","0.0-9.0-1.0-0.4","1441","1","2","""event"",""trial"",""time""
""fullscreenenter"",""1"",""1711""
","
","
","""event"",""trial"",""time""
""fullscreenenter"",""1"",""1711""
","
","","","","","","838.9150000002701","<p> But, if the fuel you chose does not work, your vehicle will not move. </p><div style='float: center;'><img src='images/x.png' width = '200' height = '200'></img>","","0","instructions","","","","","","","","","","","","","",""
"learning-instructions","81","474277","0.0-9.0-1.0-0.5","1441","1","2","""event"",""trial"",""time""
""fullscreenenter"",""1"",""1711""
","
","
","""event"",""trial"",""time""
""fullscreenenter"",""1"",""1711""
","
","","","","","","894.2550000001793","<p> Importantly, each vehicle has a fuel that works best for it. </p><p> If you choose the fuel that works best for the vehicle, it will be more likely to start. </p>","","0","instructions","","","","","","","","","","","","","",""
"learning-instructions","82","490614","0.0-9.0-1.0-0.6","1441","1","2","""event"",""trial"",""time""
""fullscreenenter"",""1"",""1711""
","
","
","""event"",""trial"",""time""
""fullscreenenter"",""1"",""1711""
","
","","","","","","6120.609999999928","<p> However, even if you choose the best fuel for the vehicle, it may still not move. </p><p> Similarly, even if you choose the <i>wrong</i> fuel, the vehicle may still start and let you travel.","","0","instructions","","","","","","","","","","","","","",""
"learning-instructions","83","504486","0.0-9.0-1.0-0.7","1441","1","2","""event"",""trial"",""time""
""fullscreenenter"",""1"",""1711""
","
","
","""event"",""trial"",""time""
""fullscreenenter"",""1"",""1711""
","
","","","","","","1503.0849999998463","<p> Try to choose the best fuel for each vehicle, because you will <b> WIN </b> 1 point each time you get to travel and <b>LOSE</b> 1 point each time a vehicle does not start. </p><p> Your bonus payment will depend on your total number of points.","","0","instructions","","","","","","","","","","","","","",""
"learning-instructions","84","515390","0.0-9.0-1.0-0.8","1441","1","2","""event"",""trial"",""time""
""fullscreenenter"",""1"",""1711""
","
","
","""event"",""trial"",""time""
""fullscreenenter"",""1"",""1711""
","
","","","","","","2656.5450000002747","<p> The position of each type of fuel will change throughout the round. </p><p> The fuel's position <i> does not </i> influence how likely it is to make each vehicle start. </p>","","0","instructions","","","","","","","","","","","","","",""
"learning-instructions","85","526630","0.0-9.0-1.0-0.9","1441","1","2","""event"",""trial"",""time""
""fullscreenenter"",""1"",""1711""
","
","
","""event"",""trial"",""time""
""fullscreenenter"",""1"",""1711""
","
","","","","","","1936.7999999999302","<p> You will have 4 seconds to make each choice. Try to respond before time runs out! </p><p> You will lose 1 point each time you do not make a response. </p>","","0","instructions","","","","","","","","","","","","","",""
"html-keyboard-response","86","527246","0.0-9.0-2.0-0.0","1441","1","2","""event"",""trial"",""time""
""fullscreenenter"",""1"",""1711""
","
","
","""event"",""trial"",""time""
""fullscreenenter"",""1"",""1711""
","
","","","","","","null","<div style=""font-size:60px;"">+</div>","null","","fixation","","","","","","","","","","","","","",""
"learning-trial","87","531252","0.0-9.0-2.0-1.0","1441","1","2","""event"",""trial"",""time""
""fullscreenenter"",""1"",""1711""
","
","
","""event"",""trial"",""time""
""fullscreenenter"",""1"",""1711""
","
","","","","","","3569.7700000000186","images/boat1.png","","","learning","images/vehicles_choice1.png","images/vehicles_choice3.png","images/vehicles_choice2.png","[0,2,1]","2","1","2","images/vehicles_choice3.png","1","vehicles","","boat","1","0"
"html-keyboard-response","88","531772","0.0-9.0-2.0-0.1","1441","1","2","""event"",""trial"",""time""
""fullscreenenter"",""1"",""1711""
","
","
","""event"",""trial"",""time""
""fullscreenenter"",""1"",""1711""
","
","","","","","","null","<div style=""font-size:60px;"">+</div>","null","","fixation","","","","","","","","","","","","","",""
"learning-trial","89","535782","0.0-9.0-2.0-1.1","1441","1","2","""event"",""trial"",""time""
""fullscreenenter"",""1"",""1711""
","
","
","""event"",""trial"",""time""
""fullscreenenter"",""1"",""1711""
","
","","","","","","1594.2749999999069","images/train5.png","","","learning","images/vehicles_choice3.png","images/vehicles_choice2.png","images/vehicles_choice1.png","[2,1,0]","1","1","1","images/vehicles_choice3.png","-1","vehicles","","train","1","0"
"html-keyboard-response","90","536292","0.0-9.0-2.0-0.2","1441","1","2","""event"",""trial"",""time""
""fullscreenenter"",""1"",""1711""
","
","
","""event"",""trial"",""time""
""fullscreenenter"",""1"",""1711""
","
","","","","","","null","<div style=""font-size:60px;"">+</div>","null","","fixation","","","","","","","","","","","","","",""
"learning-trial","91","540302","0.0-9.0-2.0-1.2","1441","1","2","""event"",""trial"",""time""
""fullscreenenter"",""1"",""1711""
","
","
","""event"",""trial"",""time""
""fullscreenenter"",""1"",""1711""
","
","","","","","","1225.0050000002375","images/truck2.png","","","learning","images/vehicles_choice3.png","images/vehicles_choice2.png","images/vehicles_choice1.png","[2,1,0]","0","2","2","images/vehicles_choice2.png","-1","vehicles","","truck","1","0"
"html-keyboard-response","92","540812","0.0-9.0-2.0-0.3","1441","1","2","""event"",""trial"",""time""
""fullscreenenter"",""1"",""1711""
","
","
","""event"",""trial"",""time""
""fullscreenenter"",""1"",""1711""
","
","","","","","","null","<div style=""font-size:60px;"">+</div>","null","","fixation","","","","","","","","","","","","","",""
"learning-trial","93","544832","0.0-9.0-2.0-1.3","1441","1","2","""event"",""trial"",""time""
""fullscreenenter"",""1"",""1711""
","
","
","""event"",""trial"",""time""
""fullscreenenter"",""1"",""1711""
","
","","","","","","1714.2950000002747","images/truck2.png","","","learning","images/vehicles_choice2.png","images/vehicles_choice1.png","images/vehicles_choice3.png","[1,0,2]","0","1","1","images/vehicles_choice2.png","-1","vehicles","","truck","1","0"
"html-keyboard-response","94","545352","0.0-9.0-2.0-0.4","1441","1","2","""event"",""trial"",""time""
""fullscreenenter"",""1"",""1711""
","
","
","""event"",""trial"",""time""
""fullscreenenter"",""1"",""1711""
","
","","","","","","null","<div style=""font-size:60px;"">+</div>","null","","fixation","","","","","","","","","","","","","",""
"learning-trial","95","549362","0.0-9.0-2.0-1.4","1441","1","2","""event"",""trial"",""time""
""fullscreenenter"",""1"",""1711""
","
","
","""event"",""trial"",""time""
""fullscreenenter"",""1"",""1711""
","
","","","","","","1264.4250000002794","images/boat1.png","","","learning","images/vehicles_choice3.png","images/vehicles_choice1.png","images/vehicles_choice2.png","[2,0,1]","2","0","2","images/vehicles_choice1.png","-1","vehicles","","boat","1","0"
"html-keyboard-response","96","549872","0.0-9.0-2.0-0.5","1441","1","2","""event"",""trial"",""time""
""fullscreenenter"",""1"",""1711""
","
","
","""event"",""trial"",""time""
""fullscreenenter"",""1"",""1711""
","
","","","","","","null","<div style=""font-size:60px;"">+</div>","null","","fixation","","","","","","","","","","","","","",""
"learning-trial","97","553892","0.0-9.0-2.0-1.5","1441","1","2","""event"",""trial"",""time""
""fullscreenenter"",""1"",""1711""
","
","
","""event"",""trial"",""time""
""fullscreenenter"",""1"",""1711""
","
","","","","","","2565.090000000084","images/truck5.png","","","learning","images/vehicles_choice1.png","images/vehicles_choice3.png","images/vehicles_choice2.png","[0,2,1]","0","0","1","images/vehicles_choice1.png","1","vehicles","","truck","1","0"
"html-keyboard-response","98","554412","0.0-9.0-2.0-0.6","1441","1","2","""event"",""trial"",""time""
""fullscreenenter"",""1"",""1711""
","
","
","""event"",""trial"",""time""
""fullscreenenter"",""1"",""1711""
","
","","","","","","null","<div style=""font-size:60px;"">+</div>","null","","fixation","","","","","","","","","","","","","",""
"learning-trial","99","558417","0.0-9.0-2.0-1.6","1441","1","2","""event"",""trial"",""time""
""fullscreenenter"",""1"",""1711""
","
","
","""event"",""trial"",""time""
""fullscreenenter"",""1"",""1711""
","
","","","","","","2233.92499999993","images/truck5.png","","","learning","images/vehicles_choice1.png","images/vehicles_choice2.png","images/vehicles_choice3.png","[0,1,2]","0","0","2","images/vehicles_choice2.png","-1","vehicles","","truck","1","0"
"html-keyboard-response","100","558926","0.0-9.0-2.0-0.7","1441","1","2","""event"",""trial"",""time""
""fullscreenenter"",""1"",""1711""
","
","
","""event"",""trial"",""time""
""fullscreenenter"",""1"",""1711""
","
","","","","","","null","<div style=""font-size:60px;"">+</div>","null","","fixation","","","","","","","","","","","","","",""
"learning-trial","101","562935","0.0-9.0-2.0-1.7","1441","1","2","""event"",""trial"",""time""
""fullscreenenter"",""1"",""1711""
","
","
","""event"",""trial"",""time""
""fullscreenenter"",""1"",""1711""
","
","","","","","","1260.3950000002515","images/train1.png","","","learning","images/vehicles_choice2.png","images/vehicles_choice1.png","images/vehicles_choice3.png","[1,0,2]","1","0","1","images/vehicles_choice2.png","1","vehicles","","train","1","0"
"html-keyboard-response","102","563436","0.0-9.0-2.0-0.8","1441","1","2","""event"",""trial"",""time""
""fullscreenenter"",""1"",""1711""
","
","
","""event"",""trial"",""time""
""fullscreenenter"",""1"",""1711""
","
","","","","","","null","<div style=""font-size:60px;"">+</div>","null","","fixation","","","","","","","","","","","","","",""
"learning-trial","103","567442","0.0-9.0-2.0-1.8","1441","1","2","""event"",""trial"",""time""
""fullscreenenter"",""1"",""1711""
","
","
","""event"",""trial"",""time""
""fullscreenenter"",""1"",""1711""
","
","","","","","","1929.3949999996694","images/train5.png","","","learning","images/vehicles_choice3.png","images/vehicles_choice1.png","images/vehicles_choice2.png","[2,0,1]","1","2","3","images/vehicles_choice2.png","1","vehicles","","train","1","0"
"html-keyboard-response","104","567947","0.0-9.0-2.0-0.9","1441","1","2","""event"",""trial"",""time""
""fullscreenenter"",""1"",""1711""
","
","
","""event"",""trial"",""time""
""fullscreenenter"",""1"",""1711""
","
","","","","","","null","<div style=""font-size:60px;"">+</div>","null","","fixation","","","","","","","","","","","","","",""
"learning-trial","105","571956","0.0-9.0-2.0-1.9","1441","1","2","""event"",""trial"",""time""
""fullscreenenter"",""1"",""1711""
","
","
","""event"",""trial"",""time""
""fullscreenenter"",""1"",""1711""
","
","","","","","","1548.2600000000093","images/truck2.png","","","learning","images/vehicles_choice1.png","images/vehicles_choice2.png","images/vehicles_choice3.png","[0,1,2]","0","0","1","images/vehicles_choice1.png","1","vehicles","","truck","1","0"
"html-keyboard-response","106","572462","0.0-9.0-2.0-0.10","1441","1","2","""event"",""trial"",""time""
""fullscreenenter"",""1"",""1711""
","
","
","""event"",""trial"",""time""
""fullscreenenter"",""1"",""1711""
","
","","","","","","null","<div style=""font-size:60px;"">+</div>","null","","fixation","","","","","","","","","","","","","",""
"learning-trial","107","576468","0.0-9.0-2.0-1.10","1441","1","2","""event"",""trial"",""time""
""fullscreenenter"",""1"",""1711""
","
","
","""event"",""trial"",""time""
""fullscreenenter"",""1"",""1711""
","
","","","","","","2283.4549999997253","images/train5.png","","","learning","images/vehicles_choice1.png","images/vehicles_choice3.png","images/vehicles_choice2.png","[0,2,1]","1","2","2","images/vehicles_choice3.png","-1","vehicles","","train","1","0"
"html-keyboard-response","108","576973","0.0-9.0-2.0-0.11","1441","1","2","""event"",""trial"",""time""
""fullscreenenter"",""1"",""1711""
","
","
","""event"",""trial"",""time""
""fullscreenenter"",""1"",""1711""
","
","","","","","","null","<div style=""font-size:60px;"">+</div>","null","","fixation","","","","","","","","","","","","","",""
"learning-trial","109","580979","0.0-9.0-2.0-1.11","1441","1","2","""event"",""trial"",""time""
""fullscreenenter"",""1"",""1711""
","
","
","""event"",""trial"",""time""
""fullscreenenter"",""1"",""1711""
","
","","","","","","2192.7799999999115","images/train1.png","","","learning","images/vehicles_choice2.png","images/vehicles_choice3.png","images/vehicles_choice1.png","[1,2,0]","1","0","3","images/vehicles_choice1.png","-1","vehicles","","train","1","0"
"html-keyboard-response","110","581484","0.0-9.0-2.0-0.12","1441","1","2","""event"",""trial"",""time""
""fullscreenenter"",""1"",""1711""
","
","
","""event"",""trial"",""time""
""fullscreenenter"",""1"",""1711""
","
","","","","","","null","<div style=""font-size:60px;"">+</div>","null","","fixation","","","","","","","","","","","","","",""
"learning-trial","111","585495","0.0-9.0-2.0-1.12","1441","1","2","""event"",""trial"",""time""
""fullscreenenter"",""1"",""1711""
","
","
","""event"",""trial"",""time""
""fullscreenenter"",""1"",""1711""
","
","","","","","","1701.3400000000838","images/train5.png","","","learning","images/vehicles_choice3.png","images/vehicles_choice2.png","images/vehicles_choice1.png","[2,1,0]","1","1","1","images/vehicles_choice3.png","-1","vehicles","","train","1","0"
"html-keyboard-response","112","585997","0.0-9.0-2.0-0.13","1441","1","2","""event"",""trial"",""time""
""fullscreenenter"",""1"",""1711""
","
","
","""event"",""trial"",""time""
""fullscreenenter"",""1"",""1711""
","
","","","","","","null","<div style=""font-size:60px;"">+</div>","null","","fixation","","","","","","","","","","","","","",""
"learning-trial","113","590005","0.0-9.0-2.0-1.13","1441","1","2","""event"",""trial"",""time""
""fullscreenenter"",""1"",""1711""
","
","
","""event"",""trial"",""time""
""fullscreenenter"",""1"",""1711""
","
","","","","","","718.815000000177","images/truck2.png","","","learning","images/vehicles_choice3.png","images/vehicles_choice1.png","images/vehicles_choice2.png","[2,0,1]","0","1","2","images/vehicles_choice1.png","1","vehicles","","truck","1","0"
"html-keyboard-response","114","590514","0.0-9.0-2.0-0.14","1441","1","2","""event"",""trial"",""time""
""fullscreenenter"",""1"",""1711""
","
","
","""event"",""trial"",""time""
""fullscreenenter"",""1"",""1711""
","
","","","","","","null","<div style=""font-size:60px;"">+</div>","null","","fixation","","","","","","","","","","","","","",""
"learning-trial","115","594523","0.0-9.0-2.0-1.14","1441","1","2","""event"",""trial"",""time""
""fullscreenenter"",""1"",""1711""
","
","
","""event"",""trial"",""time""
""fullscreenenter"",""1"",""1711""
","
","","","","","","1150.7750000001397","images/boat5.png","","","learning","images/vehicles_choice3.png","images/vehicles_choice2.png","images/vehicles_choice1.png","[2,1,0]","2","0","1","images/vehicles_choice3.png","1","vehicles","","boat","1","0"
"html-keyboard-response","116","595026","0.0-9.0-2.0-0.15","1441","1","2","""event"",""trial"",""time""
""fullscreenenter"",""1"",""1711""
","
","
","""event"",""trial"",""time""
""fullscreenenter"",""1"",""1711""
","
","","","","","","null","<div style=""font-size:60px;"">+</div>","null","","fixation","","","","","","","","","","","","","",""
"learning-trial","117","599035","0.0-9.0-2.0-1.15","1441","1","2","""event"",""trial"",""time""
""fullscreenenter"",""1"",""1711""
","
","
","""event"",""trial"",""time""
""fullscreenenter"",""1"",""1711""
","
","","","","","","2108.3349999999627","images/boat3.png","","","learning","images/vehicles_choice1.png","images/vehicles_choice2.png","images/vehicles_choice3.png","[0,1,2]","2","2","2","images/vehicles_choice2.png","-1","vehicles","","boat","1","0"
"html-keyboard-response","118","599542","0.0-9.0-2.0-0.16","1441","1","2","""event"",""trial"",""time""
""fullscreenenter"",""1"",""1711""
","
","
","""event"",""trial"",""time""
""fullscreenenter"",""1"",""1711""
","
","","","","","","null","<div style=""font-size:60px;"">+</div>","null","","fixation","","","","","","","","","","","","","",""
"learning-trial","119","603549","0.0-9.0-2.0-1.16","1441","1","2","""event"",""trial"",""time""
""fullscreenenter"",""1"",""1711""
","
","
","""event"",""trial"",""time""
""fullscreenenter"",""1"",""1711""
","
","","","","","","2032.8949999997858","images/truck5.png","","","learning","images/vehicles_choice2.png","images/vehicles_choice1.png","images/vehicles_choice3.png","[1,0,2]","0","1","2","images/vehicles_choice1.png","1","vehicles","","truck","1","0"
"html-keyboard-response","120","604055","0.0-9.0-2.0-0.17","1441","1","2","""event"",""trial"",""time""
""fullscreenenter"",""1"",""1711""
","
","
","""event"",""trial"",""time""
""fullscreenenter"",""1"",""1711""
","
","","","","","","null","<div style=""font-size:60px;"">+</div>","null","","fixation","","","","","","","","","","","","","",""
"learning-trial","121","608060","0.0-9.0-2.0-1.17","1441","1","2","""event"",""trial"",""time""
""fullscreenenter"",""1"",""1711""
","
","
","""event"",""trial"",""time""
""fullscreenenter"",""1"",""1711""
","
","","","","","","1689.9649999996182","images/truck3.png","","","learning","images/vehicles_choice1.png","images/vehicles_choice3.png","images/vehicles_choice2.png","[0,2,1]","0","0","3","images/vehicles_choice2.png","-1","vehicles","","truck","1","0"
"html-keyboard-response","122","608566","0.0-9.0-2.0-0.18","1441","1","2","""event"",""trial"",""time""
""fullscreenenter"",""1"",""1711""
","
","
","""event"",""trial"",""time""
""fullscreenenter"",""1"",""1711""
","
","","","","","","null","<div style=""font-size:60px;"">+</div>","null","","fixation","","","","","","","","","","","","","",""
"learning-trial","123","612570","0.0-9.0-2.0-1.18","1441","1","2","""event"",""trial"",""time""
""fullscreenenter"",""1"",""1711""
","
","
","""event"",""trial"",""time""
""fullscreenenter"",""1"",""1711""
","
","","","","","","1241.3849999997765","images/train5.png","","","learning","images/vehicles_choice2.png","images/vehicles_choice3.png","images/vehicles_choice1.png","[1,2,0]","1","0","1","images/vehicles_choice2.png","1","vehicles","","train","1","0"
"html-keyboard-response","124","613072","0.0-9.0-2.0-0.19","1441","1","2","""event"",""trial"",""time""
""fullscreenenter"",""1"",""1711""
","
","
","""event"",""trial"",""time""
""fullscreenenter"",""1"",""1711""
","
","","","","","","null","<div style=""font-size:60px;"">+</div>","null","","fixation","","","","","","","","","","","","","",""
"learning-trial","125","617081","0.0-9.0-2.0-1.19","1441","1","2","""event"",""trial"",""time""
""fullscreenenter"",""1"",""1711""
","
","
","""event"",""trial"",""time""
""fullscreenenter"",""1"",""1711""
","
","","","","","","1556.094999999972","images/boat5.png","","","learning","images/vehicles_choice2.png","images/vehicles_choice1.png","images/vehicles_choice3.png","[1,0,2]","2","2","3","images/vehicles_choice3.png","1","vehicles","","boat","1","0"
"html-keyboard-response","126","617584","0.0-9.0-2.0-0.20","1441","1","2","""event"",""trial"",""time""
""fullscreenenter"",""1"",""1711""
","
","
","""event"",""trial"",""time""
""fullscreenenter"",""1"",""1711""
","
","","","","","","null","<div style=""font-size:60px;"">+</div>","null","","fixation","","","","","","","","","","","","","",""
"learning-trial","127","621592","0.0-9.0-2.0-1.20","1441","1","2","""event"",""trial"",""time""
""fullscreenenter"",""1"",""1711""
","
","
","""event"",""trial"",""time""
""fullscreenenter"",""1"",""1711""
","
","","","","","","1324.3100000000559","images/boat3.png","","","learning","images/vehicles_choice2.png","images/vehicles_choice1.png","images/vehicles_choice3.png","[1,0,2]","2","2","1","images/vehicles_choice2.png","-1","vehicles","","boat","1","0"
"html-keyboard-response","128","622100","0.0-9.0-2.0-0.21","1441","1","2","""event"",""trial"",""time""
""fullscreenenter"",""1"",""1711""
","
","
","""event"",""trial"",""time""
""fullscreenenter"",""1"",""1711""
","
","","","","","","null","<div style=""font-size:60px;"">+</div>","null","","fixation","","","","","","","","","","","","","",""
"learning-trial","129","626110","0.0-9.0-2.0-1.21","1441","1","2","""event"",""trial"",""time""
""fullscreenenter"",""1"",""1711""
","
","
","""event"",""trial"",""time""
""fullscreenenter"",""1"",""1711""
","
","","","","","","2078.1200000001118","images/boat1.png","","","learning","images/vehicles_choice1.png","images/vehicles_choice3.png","images/vehicles_choice2.png","[0,2,1]","2","1","1","images/vehicles_choice1.png","-1","vehicles","","boat","1","0"
"html-keyboard-response","130","626614","0.0-9.0-2.0-0.22","1441","1","2","""event"",""trial"",""time""
""fullscreenenter"",""1"",""1711""
","
","
","""event"",""trial"",""time""
""fullscreenenter"",""1"",""1711""
","
","","","","","","null","<div style=""font-size:60px;"">+</div>","null","","fixation","","","","","","","","","","","","","",""
"learning-trial","131","630618","0.0-9.0-2.0-1.22","1441","1","2","""event"",""trial"",""time""
""fullscreenenter"",""1"",""1711""
","
","
","""event"",""trial"",""time""
""fullscreenenter"",""1"",""1711""
","
","","","","","","1023.9199999995762","images/train1.png","","","learning","images/vehicles_choice2.png","images/vehicles_choice3.png","images/vehicles_choice1.png","[1,2,0]","1","0","1","images/vehicles_choice2.png","1","vehicles","","train","1","0"
"html-keyboard-response","132","631120","0.0-9.0-2.0-0.23","1441","1","2","""event"",""trial"",""time""
""fullscreenenter"",""1"",""1711""
","
","
","""event"",""trial"",""time""
""fullscreenenter"",""1"",""1711""
","
","","","","","","null","<div style=""font-size:60px;"">+</div>","null","","fixation","","","","","","","","","","","","","",""
"learning-trial","133","635129","0.0-9.0-2.0-1.23","1441","1","2","""event"",""trial"",""time""
""fullscreenenter"",""1"",""1711""
","
","
","""event"",""trial"",""time""
""fullscreenenter"",""1"",""1711""
","
","","","","","","3067.8949999996694","images/truck2.png","","","learning","images/vehicles_choice3.png","images/vehicles_choice2.png","images/vehicles_choice1.png","[2,1,0]","0","2","3","images/vehicles_choice1.png","1","vehicles","","truck","1","0"
"html-keyboard-response","134","635635","0.0-9.0-2.0-0.24","1441","1","2","""event"",""trial"",""time""
""fullscreenenter"",""1"",""1711""
","
","
","""event"",""trial"",""time""
""fullscreenenter"",""1"",""1711""
","
","","","","","","null","<div style=""font-size:60px;"">+</div>","null","","fixation","","","","","","","","","","","","","",""
"learning-trial","135","639646","0.0-9.0-2.0-1.24","1441","1","2","""event"",""trial"",""time""
""fullscreenenter"",""1"",""1711""
","
","
","""event"",""trial"",""time""
""fullscreenenter"",""1"",""1711""
","
","","","","","","1471.719999999972","images/truck3.png","","","learning","images/vehicles_choice3.png","images/vehicles_choice2.png","images/vehicles_choice1.png","[2,1,0]","0","2","2","images/vehicles_choice2.png","1","vehicles","","truck","1","0"
"html-keyboard-response","136","640151","0.0-9.0-2.0-0.25","1441","1","2","""event"",""trial"",""time""
""fullscreenenter"",""1"",""1711""
","
","
","""event"",""trial"",""time""
""fullscreenenter"",""1"",""1711""
","
","","","","","","null","<div style=""font-size:60px;"">+</div>","null","","fixation","","","","","","","","","","","","","",""
"learning-trial","137","644160","0.0-9.0-2.0-1.25","1441","1","2","""event"",""trial"",""time""
""fullscreenenter"",""1"",""1711""
","
","
","""event"",""trial"",""time""
""fullscreenenter"",""1"",""1711""
","
","","","","","","2855.395000000135","images/train5.png","","","learning","images/vehicles_choice1.png","images/vehicles_choice2.png","images/vehicles_choice3.png","[0,1,2]","1","1","2","images/vehicles_choice2.png","1","vehicles","","train","1","0"
"html-keyboard-response","138","644663","0.0-9.0-2.0-0.26","1441","1","2","""event"",""trial"",""time""
""fullscreenenter"",""1"",""1711""
","
","
","""event"",""trial"",""time""
""fullscreenenter"",""1"",""1711""
","
","","","","","","null","<div style=""font-size:60px;"">+</div>","null","","fixation","","","","","","","","","","","","","",""
"learning-trial","139","648672","0.0-9.0-2.0-1.26","1441","1","2","""event"",""trial"",""time""
""fullscreenenter"",""1"",""1711""
","
","
","""event"",""trial"",""time""
""fullscreenenter"",""1"",""1711""
","
","","","","","","1454.7400000002235","images/truck2.png","","","learning","images/vehicles_choice1.png","images/vehicles_choice2.png","images/vehicles_choice3.png","[0,1,2]","0","0","1","images/vehicles_choice1.png","-1","vehicles","","truck","1","0"
"html-keyboard-response","140","649177","0.0-9.0-2.0-0.27","1441","1","2","""event"",""trial"",""time""
""fullscreenenter"",""1"",""1711""
","
","
","""event"",""trial"",""time""
""fullscreenenter"",""1"",""1711""
","
","","","","","","null","<div style=""font-size:60px;"">+</div>","null","","fixation","","","","","","","","","","","","","",""
"learning-trial","141","653188","0.0-9.0-2.0-1.27","1441","1","2","""event"",""trial"",""time""
""fullscreenenter"",""1"",""1711""
","
","
","""event"",""trial"",""time""
""fullscreenenter"",""1"",""1711""
","
","","","","","","1590.1250000001164","images/train5.png","","","learning","images/vehicles_choice3.png","images/vehicles_choice2.png","images/vehicles_choice1.png","[2,1,0]","1","1","3","images/vehicles_choice1.png","-1","vehicles","","train","1","0"
"html-keyboard-response","142","653695","0.0-9.0-2.0-0.28","1441","1","2","""event"",""trial"",""time""
""fullscreenenter"",""1"",""1711""
","
","
","""event"",""trial"",""time""
""fullscreenenter"",""1"",""1711""
","
","","","","","","null","<div style=""font-size:60px;"">+</div>","null","","fixation","","","","","","","","","","","","","",""
"learning-trial","143","657700","0.0-9.0-2.0-1.28","1441","1","2","""event"",""trial"",""time""
""fullscreenenter"",""1"",""1711""
","
","
","""event"",""trial"",""time""
""fullscreenenter"",""1"",""1711""
","
","","","","","","1791.6700000001583","images/truck3.png","","","learning","images/vehicles_choice3.png","images/vehicles_choice1.png","images/vehicles_choice2.png","[2,0,1]","0","1","3","images/vehicles_choice2.png","-1","vehicles","","truck","1","0"
"html-keyboard-response","144","658202","0.0-9.0-2.0-0.29","1441","1","2","""event"",""trial"",""time""
""fullscreenenter"",""1"",""1711""
","
","
","""event"",""trial"",""time""
""fullscreenenter"",""1"",""1711""
","
","","","","","","null","<div style=""font-size:60px;"">+</div>","null","","fixation","","","","","","","","","","","","","",""
"learning-trial","145","662212","0.0-9.0-2.0-1.29","1441","1","2","""event"",""trial"",""time""
""fullscreenenter"",""1"",""1711""
","
","
","""event"",""trial"",""time""
""fullscreenenter"",""1"",""1711""
","
","","","","","","875.600000000326","images/train1.png","","","learning","images/vehicles_choice2.png","images/vehicles_choice1.png","images/vehicles_choice3.png","[1,0,2]","1","0","1","images/vehicles_choice2.png","1","vehicles","","train","1","0"
"html-keyboard-response","146","662717","0.0-9.0-2.0-0.30","1441","1","2","""event"",""trial"",""time""
""fullscreenenter"",""1"",""1711""
","
","
","""event"",""trial"",""time""
""fullscreenenter"",""1"",""1711""
","
","","","","","","null","<div style=""font-size:60px;"">+</div>","null","","fixation","","","","","","","","","","","","","",""
"learning-trial","147","666720","0.0-9.0-2.0-1.30","1441","1","2","""event"",""trial"",""time""
""fullscreenenter"",""1"",""1711""
","
","
","""event"",""trial"",""time""
""fullscreenenter"",""1"",""1711""
","
","","","","","","1080.2699999999022","images/boat5.png","","","learning","images/vehicles_choice3.png","images/vehicles_choice2.png","images/vehicles_choice1.png","[2,1,0]","2","0","1","images/vehicles_choice3.png","-1","vehicles","","boat","1","0"
"html-keyboard-response","148","667222","0.0-9.0-2.0-0.31","1441","1","2","""event"",""trial"",""time""
""fullscreenenter"",""1"",""1711""
","
","
","""event"",""trial"",""time""
""fullscreenenter"",""1"",""1711""
","
","","","","","","null","<div style=""font-size:60px;"">+</div>","null","","fixation","","","","","","","","","","","","","",""
"learning-trial","149","671226","0.0-9.0-2.0-1.31","1441","1","2","""event"",""trial"",""time""
""fullscreenenter"",""1"",""1711""
","
","
","""event"",""trial"",""time""
""fullscreenenter"",""1"",""1711""
","
","","","","","","1104.1549999999115","images/truck2.png","","","learning","images/vehicles_choice3.png","images/vehicles_choice1.png","images/vehicles_choice2.png","[2,0,1]","0","1","2","images/vehicles_choice1.png","1","vehicles","","truck","1","0"
"html-keyboard-response","150","671728","0.0-9.0-2.0-0.32","1441","1","2","""event"",""trial"",""time""
""fullscreenenter"",""1"",""1711""
","
","
","""event"",""trial"",""time""
""fullscreenenter"",""1"",""1711""
","
","","","","","","null","<div style=""font-size:60px;"">+</div>","null","","fixation","","","","","","","","","","","","","",""
"learning-trial","151","675740","0.0-9.0-2.0-1.32","1441","1","2","""event"",""trial"",""time""
""fullscreenenter"",""1"",""1711""
","
","
","""event"",""trial"",""time""
""fullscreenenter"",""1"",""1711""
","
","","","","","","1798.875","images/boat3.png","","","learning","images/vehicles_choice1.png","images/vehicles_choice2.png","images/vehicles_choice3.png","[0,1,2]","2","2","3","images/vehicles_choice3.png","-1","vehicles","","boat","1","0"
"html-keyboard-response","152","676245","0.0-9.0-2.0-0.33","1441","1","2","""event"",""trial"",""time""
""fullscreenenter"",""1"",""1711""
","
","
","""event"",""trial"",""time""
""fullscreenenter"",""1"",""1711""
","
","","","","","","null","<div style=""font-size:60px;"">+</div>","null","","fixation","","","","","","","","","","","","","",""
"learning-trial","153","680253","0.0-9.0-2.0-1.33","1441","1","2","""event"",""trial"",""time""
""fullscreenenter"",""1"",""1711""
","
","
","""event"",""trial"",""time""
""fullscreenenter"",""1"",""1711""
","
","","","","","","2011.559999999823","images/boat1.png","","","learning","images/vehicles_choice3.png","images/vehicles_choice2.png","images/vehicles_choice1.png","[2,1,0]","2","0","3","images/vehicles_choice1.png","-1","vehicles","","boat","1","0"
"html-keyboard-response","154","680757","0.0-9.0-2.0-0.34","1441","1","2","""event"",""trial"",""time""
""fullscreenenter"",""1"",""1711""
","
","
","""event"",""trial"",""time""
""fullscreenenter"",""1"",""1711""
","
","","","","","","null","<div style=""font-size:60px;"">+</div>","null","","fixation","","","","","","","","","","","","","",""
"learning-trial","155","684768","0.0-9.0-2.0-1.34","1441","1","2","""event"",""trial"",""time""
""fullscreenenter"",""1"",""1711""
","
","
","""event"",""trial"",""time""
""fullscreenenter"",""1"",""1711""
","
","","","","","","1308.5150000002468","images/truck5.png","","","learning","images/vehicles_choice3.png","images/vehicles_choice1.png","images/vehicles_choice2.png","[2,0,1]","0","1","2","images/vehicles_choice1.png","1","vehicles","","truck","1","0"
"html-keyboard-response","156","685275","0.0-9.0-2.0-0.35","1441","1","2","""event"",""trial"",""time""
""fullscreenenter"",""1"",""1711""
","
","
","""event"",""trial"",""time""
""fullscreenenter"",""1"",""1711""
","
","","","","","","null","<div style=""font-size:60px;"">+</div>","null","","fixation","","","","","","","","","","","","","",""
"learning-trial","157","689279","0.0-9.0-2.0-1.35","1441","1","2","""event"",""trial"",""time""
""fullscreenenter"",""1"",""1711""
","
","
","""event"",""trial"",""time""
""fullscreenenter"",""1"",""1711""
","
","","","","","","1900.8600000002189","images/boat5.png","","","learning","images/vehicles_choice2.png","images/vehicles_choice1.png","images/vehicles_choice3.png","[1,0,2]","2","2","1","images/vehicles_choice2.png","-1","vehicles","","boat","1","0"
"html-keyboard-response","158","689782","0.0-9.0-2.0-0.36","1441","1","2","""event"",""trial"",""time""
""fullscreenenter"",""1"",""1711""
","
","
","""event"",""trial"",""time""
""fullscreenenter"",""1"",""1711""
","
","","","","","","null","<div style=""font-size:60px;"">+</div>","null","","fixation","","","","","","","","","","","","","",""
"learning-trial","159","693791","0.0-9.0-2.0-1.36","1441","1","2","""event"",""trial"",""time""
""fullscreenenter"",""1"",""1711""
","
","
","""event"",""trial"",""time""
""fullscreenenter"",""1"",""1711""
","
","","","","","","1373.6500000000233","images/train3.png","","","learning","images/vehicles_choice2.png","images/vehicles_choice1.png","images/vehicles_choice3.png","[1,0,2]","1","0","2","images/vehicles_choice1.png","-1","vehicles","","train","1","0"
"html-keyboard-response","160","694297","0.0-9.0-2.0-0.37","1441","1","2","""event"",""trial"",""time""
""fullscreenenter"",""1"",""1711""
","
","
","""event"",""trial"",""time""
""fullscreenenter"",""1"",""1711""
","
","","","","","","null","<div style=""font-size:60px;"">+</div>","null","","fixation","","","","","","","","","","","","","",""
"learning-trial","161","698304","0.0-9.0-2.0-1.37","1441","1","2","""event"",""trial"",""time""
""fullscreenenter"",""1"",""1711""
","
","
","""event"",""trial"",""time""
""fullscreenenter"",""1"",""1711""
","
","","","","","","979.2200000000885","images/train1.png","","","learning","images/vehicles_choice2.png","images/vehicles_choice1.png","images/vehicles_choice3.png","[1,0,2]","1","0","1","images/vehicles_choice2.png","1","vehicles","","train","1","0"
"html-keyboard-response","162","698809","0.0-9.0-2.0-0.38","1441","1","2","""event"",""trial"",""time""
""fullscreenenter"",""1"",""1711""
","
","
","""event"",""trial"",""time""
""fullscreenenter"",""1"",""1711""
","
","","","","","","null","<div style=""font-size:60px;"">+</div>","null","","fixation","","","","","","","","","","","","","",""
"learning-trial","163","702817","0.0-9.0-2.0-1.38","1441","1","2","""event"",""trial"",""time""
""fullscreenenter"",""1"",""1711""
","
","
","""event"",""trial"",""time""
""fullscreenenter"",""1"",""1711""
","
","","","","","","2277.7249999999767","images/truck3.png","","","learning","images/vehicles_choice1.png","images/vehicles_choice2.png","images/vehicles_choice3.png","[0,1,2]","0","0","1","images/vehicles_choice1.png","1","vehicles","","truck","1","0"
"html-keyboard-response","164","703322","0.0-9.0-2.0-0.39","1441","1","2","""event"",""trial"",""time""
""fullscreenenter"",""1"",""1711""
","
","
","""event"",""trial"",""time""
""fullscreenenter"",""1"",""1711""
","
","","","","","","null","<div style=""font-size:60px;"">+</div>","null","","fixation","","","","","","","","","","","","","",""
"learning-trial","165","707328","0.0-9.0-2.0-1.39","1441","1","2","""event"",""trial"",""time""
""fullscreenenter"",""1"",""1711""
","
","
","""event"",""trial"",""time""
""fullscreenenter"",""1"",""1711""
","
","","","","","","2123.6049999997485","images/boat3.png","","","learning","images/vehicles_choice3.png","images/vehicles_choice1.png","images/vehicles_choice2.png","[2,0,1]","2","0","1","images/vehicles_choice3.png","1","vehicles","","boat","1","0"
"html-keyboard-response","166","707836","0.0-9.0-2.0-0.40","1441","1","2","""event"",""trial"",""time""
""fullscreenenter"",""1"",""1711""
","
","
","""event"",""trial"",""time""
""fullscreenenter"",""1"",""1711""
","
","","","","","","null","<div style=""font-size:60px;"">+</div>","null","","fixation","","","","","","","","","","","","","",""
"learning-trial","167","711845","0.0-9.0-2.0-1.40","1441","1","2","""event"",""trial"",""time""
""fullscreenenter"",""1"",""1711""
","
","
","""event"",""trial"",""time""
""fullscreenenter"",""1"",""1711""
","
","","","","","","1490.4899999996414","images/boat3.png","","","learning","images/vehicles_choice1.png","images/vehicles_choice3.png","images/vehicles_choice2.png","[0,2,1]","2","1","2","images/vehicles_choice3.png","1","vehicles","","boat","1","0"
"html-keyboard-response","168","712350","0.0-9.0-2.0-0.41","1441","1","2","""event"",""trial"",""time""
""fullscreenenter"",""1"",""1711""
","
","
","""event"",""trial"",""time""
""fullscreenenter"",""1"",""1711""
","
","","","","","","null","<div style=""font-size:60px;"">+</div>","null","","fixation","","","","","","","","","","","","","",""
"learning-trial","169","716355","0.0-9.0-2.0-1.41","1441","1","2","""event"",""trial"",""time""
""fullscreenenter"",""1"",""1711""
","
","
","""event"",""trial"",""time""
""fullscreenenter"",""1"",""1711""
","
","","","","","","1406.0649999997113","images/boat3.png","","","learning","images/vehicles_choice2.png","images/vehicles_choice1.png","images/vehicles_choice3.png","[1,0,2]","2","2","3","images/vehicles_choice3.png","1","vehicles","","boat","1","0"
"html-keyboard-response","170","716859","0.0-9.0-2.0-0.42","1441","1","2","""event"",""trial"",""time""
""fullscreenenter"",""1"",""1711""
","
","
","""event"",""trial"",""time""
""fullscreenenter"",""1"",""1711""
","
","","","","","","null","<div style=""font-size:60px;"">+</div>","null","","fixation","","","","","","","","","","","","","",""
"learning-trial","171","720868","0.0-9.0-2.0-1.42","1441","1","2","""event"",""trial"",""time""
""fullscreenenter"",""1"",""1711""
","
","
","""event"",""trial"",""time""
""fullscreenenter"",""1"",""1711""
","
","","","","","","1357.3950000000186","images/train3.png","","","learning","images/vehicles_choice2.png","images/vehicles_choice3.png","images/vehicles_choice1.png","[1,2,0]","1","0","1","images/vehicles_choice2.png","1","vehicles","","train","1","0"
"html-keyboard-response","172","721374","0.0-9.0-2.0-0.43","1441","1","2","""event"",""trial"",""time""
""fullscreenenter"",""1"",""1711""
","
","
","""event"",""trial"",""time""
""fullscreenenter"",""1"",""1711""
","
","","","","","","null","<div style=""font-size:60px;"">+</div>","null","","fixation","","","","","","","","","","","","","",""
"learning-trial","173","725380","0.0-9.0-2.0-1.43","1441","1","2","""event"",""trial"",""time""
""fullscreenenter"",""1"",""1711""
","
","
","""event"",""trial"",""time""
""fullscreenenter"",""1"",""1711""
","
","","","","","","1282.4099999997998","images/boat5.png","","","learning","images/vehicles_choice1.png","images/vehicles_choice3.png","images/vehicles_choice2.png","[0,2,1]","2","1","3","images/vehicles_choice2.png","-1","vehicles","","boat","1","0"
"html-keyboard-response","174","725886","0.0-9.0-2.0-0.44","1441","1","2","""event"",""trial"",""time""
""fullscreenenter"",""1"",""1711""
","
","
","""event"",""trial"",""time""
""fullscreenenter"",""1"",""1711""
","
","","","","","","null","<div style=""font-size:60px;"">+</div>","null","","fixation","","","","","","","","","","","","","",""
"learning-trial","175","729895","0.0-9.0-2.0-1.44","1441","1","2","""event"",""trial"",""time""
""fullscreenenter"",""1"",""1711""
","
","
","""event"",""trial"",""time""
""fullscreenenter"",""1"",""1711""
","
","","","","","","1889.4100000002654","images/truck5.png","","","learning","images/vehicles_choice2.png","images/vehicles_choice3.png","images/vehicles_choice1.png","[1,2,0]","0","2","1","images/vehicles_choice2.png","1","vehicles","","truck","1","0"
"html-keyboard-response","176","730397","0.0-9.0-2.0-0.45","1441","1","2","""event"",""trial"",""time""
""fullscreenenter"",""1"",""1711""
","
","
","""event"",""trial"",""time""
""fullscreenenter"",""1"",""1711""
","
","","","","","","null","<div style=""font-size:60px;"">+</div>","null","","fixation","","","","","","","","","","","","","",""
"learning-trial","177","734405","0.0-9.0-2.0-1.45","1441","1","2","""event"",""trial"",""time""
""fullscreenenter"",""1"",""1711""
","
","
","""event"",""trial"",""time""
""fullscreenenter"",""1"",""1711""
","
","","","","","","3358.830000000191","images/boat1.png","","","learning","images/vehicles_choice3.png","images/vehicles_choice1.png","images/vehicles_choice2.png","[2,0,1]","2","0","1","images/vehicles_choice3.png","1","vehicles","","boat","1","0"
"html-keyboard-response","178","734910","0.0-9.0-2.0-0.46","1441","1","2","""event"",""trial"",""time""
""fullscreenenter"",""1"",""1711""
","
","
","""event"",""trial"",""time""
""fullscreenenter"",""1"",""1711""
","
","","","","","","null","<div style=""font-size:60px;"">+</div>","null","","fixation","","","","","","","","","","","","","",""
"learning-trial","179","738915","0.0-9.0-2.0-1.46","1441","1","2","""event"",""trial"",""time""
""fullscreenenter"",""1"",""1711""
","
","
","""event"",""trial"",""time""
""fullscreenenter"",""1"",""1711""
","
","","","","","","2384.6500000000233","images/train3.png","","","learning","images/vehicles_choice1.png","images/vehicles_choice2.png","images/vehicles_choice3.png","[0,1,2]","1","1","2","images/vehicles_choice2.png","1","vehicles","","train","1","0"
"html-keyboard-response","180","739422","0.0-9.0-2.0-0.47","1441","1","2","""event"",""trial"",""time""
""fullscreenenter"",""1"",""1711""
","
","
","""event"",""trial"",""time""
""fullscreenenter"",""1"",""1711""
","
","","","","","","null","<div style=""font-size:60px;"">+</div>","null","","fixation","","","","","","","","","","","","","",""
"learning-trial","181","743426","0.0-9.0-2.0-1.47","1441","1","2","""event"",""trial"",""time""
""fullscreenenter"",""1"",""1711""
","
","
","""event"",""trial"",""time""
""fullscreenenter"",""1"",""1711""
","
","","","","","","1853.9850000002189","images/boat5.png","","","learning","images/vehicles_choice2.png","images/vehicles_choice3.png","images/vehicles_choice1.png","[1,2,0]","2","1","2","images/vehicles_choice3.png","1","vehicles","","boat","1","0"
"html-keyboard-response","182","743929","0.0-9.0-2.0-0.48","1441","1","2","""event"",""trial"",""time""
""fullscreenenter"",""1"",""1711""
","
","
","""event"",""trial"",""time""
""fullscreenenter"",""1"",""1711""
","
","","","","","","null","<div style=""font-size:60px;"">+</div>","null","","fixation","","","","","","","","","","","","","",""
"learning-trial","183","747938","0.0-9.0-2.0-1.48","1441","1","2","""event"",""trial"",""time""
""fullscreenenter"",""1"",""1711""
","
","
","""event"",""trial"",""time""
""fullscreenenter"",""1"",""1711""
","
","","","","","","2256.1499999997905","images/truck5.png","","","learning","images/vehicles_choice3.png","images/vehicles_choice2.png","images/vehicles_choice1.png","[2,1,0]","0","2","2","images/vehicles_choice2.png","-1","vehicles","","truck","1","0"
"html-keyboard-response","184","748444","0.0-9.0-2.0-0.49","1441","1","2","""event"",""trial"",""time""
""fullscreenenter"",""1"",""1711""
","
","
","""event"",""trial"",""time""
""fullscreenenter"",""1"",""1711""
","
","","","","","","null","<div style=""font-size:60px;"">+</div>","null","","fixation","","","","","","","","","","","","","",""
"learning-trial","185","752449","0.0-9.0-2.0-1.49","1441","1","2","""event"",""trial"",""time""
""fullscreenenter"",""1"",""1711""
","
","
","""event"",""trial"",""time""
""fullscreenenter"",""1"",""1711""
","
","","","","","","1301.0300000001444","images/boat5.png","","","learning","images/vehicles_choice2.png","images/vehicles_choice3.png","images/vehicles_choice1.png","[1,2,0]","2","1","2","images/vehicles_choice3.png","1","vehicles","","boat","1","0"
"html-keyboard-response","186","752958","0.0-9.0-2.0-0.50","1441","1","2","""event"",""trial"",""time""
""fullscreenenter"",""1"",""1711""
","
","
","""event"",""trial"",""time""
""fullscreenenter"",""1"",""1711""
","
","","","","","","null","<div style=""font-size:60px;"">+</div>","null","","fixation","","","","","","","","","","","","","",""
"learning-trial","187","756965","0.0-9.0-2.0-1.50","1441","1","2","""event"",""trial"",""time""
""fullscreenenter"",""1"",""1711""
","
","
","""event"",""trial"",""time""
""fullscreenenter"",""1"",""1711""
","
","","","","","","1378.2000000001863","images/train1.png","","","learning","images/vehicles_choice1.png","images/vehicles_choice2.png","images/vehicles_choice3.png","[0,1,2]","1","1","3","images/vehicles_choice3.png","-1","vehicles","","train","1","0"
"html-keyboard-response","188","757471","0.0-9.0-2.0-0.51","1441","1","2","""event"",""trial"",""time""
""fullscreenenter"",""1"",""1711""
","
","
","""event"",""trial"",""time""
""fullscreenenter"",""1"",""1711""
","
","","","","","","null","<div style=""font-size:60px;"">+</div>","null","","fixation","","","","","","","","","","","","","",""
"learning-trial","189","761477","0.0-9.0-2.0-1.51","1441","1","2","""event"",""trial"",""time""
""fullscreenenter"",""1"",""1711""
","
","
","""event"",""trial"",""time""
""fullscreenenter"",""1"",""1711""
","
","","","","","","1363.9500000003027","images/truck2.png","","","learning","images/vehicles_choice3.png","images/vehicles_choice1.png","images/vehicles_choice2.png","[2,0,1]","0","1","1","images/vehicles_choice3.png","-1","vehicles","","truck","1","0"
"html-keyboard-response","190","761981","0.0-9.0-2.0-0.52","1441","1","2","""event"",""trial"",""time""
""fullscreenenter"",""1"",""1711""
","
","
","""event"",""trial"",""time""
""fullscreenenter"",""1"",""1711""
","
","","","","","","null","<div style=""font-size:60px;"">+</div>","null","","fixation","","","","","","","","","","","","","",""
"learning-trial","191","765991","0.0-9.0-2.0-1.52","1441","1","2","""event"",""trial"",""time""
""fullscreenenter"",""1"",""1711""
","
","
","""event"",""trial"",""time""
""fullscreenenter"",""1"",""1711""
","
","","","","","","2584.7450000001118","images/train3.png","","","learning","images/vehicles_choice1.png","images/vehicles_choice2.png","images/vehicles_choice3.png","[0,1,2]","1","1","3","images/vehicles_choice3.png","-1","vehicles","","train","1","0"
"html-keyboard-response","192","766495","0.0-9.0-2.0-0.53","1441","1","2","""event"",""trial"",""time""
""fullscreenenter"",""1"",""1711""
","
","
","""event"",""trial"",""time""
""fullscreenenter"",""1"",""1711""
","
","","","","","","null","<div style=""font-size:60px;"">+</div>","null","","fixation","","","","","","","","","","","","","",""
"learning-trial","193","770506","0.0-9.0-2.0-1.53","1441","1","2","""event"",""trial"",""time""
""fullscreenenter"",""1"",""1711""
","
","
","""event"",""trial"",""time""
""fullscreenenter"",""1"",""1711""
","
","","","","","","1661.100000000326","images/truck3.png","","","learning","images/vehicles_choice2.png","images/vehicles_choice1.png","images/vehicles_choice3.png","[1,0,2]","0","1","1","images/vehicles_choice2.png","-1","vehicles","","truck","1","0"
"html-keyboard-response","194","771008","0.0-9.0-2.0-0.54","1441","1","2","""event"",""trial"",""time""
""fullscreenenter"",""1"",""1711""
","
","
","""event"",""trial"",""time""
""fullscreenenter"",""1"",""1711""
","
","","","","","","null","<div style=""font-size:60px;"">+</div>","null","","fixation","","","","","","","","","","","","","",""
"learning-trial","195","775015","0.0-9.0-2.0-1.54","1441","1","2","""event"",""trial"",""time""
""fullscreenenter"",""1"",""1711""
","
","
","""event"",""trial"",""time""
""fullscreenenter"",""1"",""1711""
","
","","","","","","1256.6600000000326","images/boat3.png","","","learning","images/vehicles_choice3.png","images/vehicles_choice1.png","images/vehicles_choice2.png","[2,0,1]","2","0","1","images/vehicles_choice3.png","1","vehicles","","boat","1","0"
"html-keyboard-response","196","775519","0.0-9.0-2.0-0.55","1441","1","2","""event"",""trial"",""time""
""fullscreenenter"",""1"",""1711""
","
","
","""event"",""trial"",""time""
""fullscreenenter"",""1"",""1711""
","
","","","","","","null","<div style=""font-size:60px;"">+</div>","null","","fixation","","","","","","","","","","","","","",""
"learning-trial","197","779524","0.0-9.0-2.0-1.55","1441","1","2","""event"",""trial"",""time""
""fullscreenenter"",""1"",""1711""
","
","
","""event"",""trial"",""time""
""fullscreenenter"",""1"",""1711""
","
","","","","","","2725.925000000163","images/train3.png","","","learning","images/vehicles_choice1.png","images/vehicles_choice2.png","images/vehicles_choice3.png","[0,1,2]","1","1","2","images/vehicles_choice2.png","1","vehicles","","train","1","0"
"html-keyboard-response","198","780028","0.0-9.0-2.0-0.56","1441","1","2","""event"",""trial"",""time""
""fullscreenenter"",""1"",""1711""
","
","
","""event"",""trial"",""time""
""fullscreenenter"",""1"",""1711""
","
","","","","","","null","<div style=""font-size:60px;"">+</div>","null","","fixation","","","","","","","","","","","","","",""
"learning-trial","199","784035","0.0-9.0-2.0-1.56","1441","1","2","""event"",""trial"",""time""
""fullscreenenter"",""1"",""1711""
","
","
","""event"",""trial"",""time""
""fullscreenenter"",""1"",""1711""
","
","","","","","","3156.4400000002934","images/truck3.png","","","learning","images/vehicles_choice1.png","images/vehicles_choice3.png","images/vehicles_choice2.png","[0,2,1]","0","0","1","images/vehicles_choice1.png","1","vehicles","","truck","1","0"
"html-keyboard-response","200","784540","0.0-9.0-2.0-0.57","1441","1","2","""event"",""trial"",""time""
""fullscreenenter"",""1"",""1711""
","
","
","""event"",""trial"",""time""
""fullscreenenter"",""1"",""1711""
","
","","","","","","null","<div style=""font-size:60px;"">+</div>","null","","fixation","","","","","","","","","","","","","",""
"learning-trial","201","788549","0.0-9.0-2.0-1.57","1441","1","2","""event"",""trial"",""time""
""fullscreenenter"",""1"",""1711""
","
","
","""event"",""trial"",""time""
""fullscreenenter"",""1"",""1711""
","
","","","","","","1204.6500000001397","images/boat1.png","","","learning","images/vehicles_choice2.png","images/vehicles_choice3.png","images/vehicles_choice1.png","[1,2,0]","2","1","2","images/vehicles_choice3.png","1","vehicles","","boat","1","0"
"html-keyboard-response","202","789052","0.0-9.0-2.0-0.58","1441","1","2","""event"",""trial"",""time""
""fullscreenenter"",""1"",""1711""
","
","
","""event"",""trial"",""time""
""fullscreenenter"",""1"",""1711""
","
","","","","","","null","<div style=""font-size:60px;"">+</div>","null","","fixation","","","","","","","","","","","","","",""
"learning-trial","203","793063","0.0-9.0-2.0-1.58","1441","1","2","""event"",""trial"",""time""
""fullscreenenter"",""1"",""1711""
","
","
","""event"",""trial"",""time""
""fullscreenenter"",""1"",""1711""
","
","","","","","","2095.5849999999627","images/train1.png","","","learning","images/vehicles_choice2.png","images/vehicles_choice3.png","images/vehicles_choice1.png","[1,2,0]","1","0","3","images/vehicles_choice1.png","-1","vehicles","","train","1","0"
"html-keyboard-response","204","793571","0.0-9.0-2.0-0.59","1441","1","2","""event"",""trial"",""time""
""fullscreenenter"",""1"",""1711""
","
","
","""event"",""trial"",""time""
""fullscreenenter"",""1"",""1711""
","
","","","","","","null","<div style=""font-size:60px;"">+</div>","null","","fixation","","","","","","","","","","","","","",""
"learning-trial","205","797578","0.0-9.0-2.0-1.59","1441","1","2","""event"",""trial"",""time""
""fullscreenenter"",""1"",""1711""
","
","
","""event"",""trial"",""time""
""fullscreenenter"",""1"",""1711""
","
","","","","","","1256.4950000001118","images/train1.png","","","learning","images/vehicles_choice3.png","images/vehicles_choice1.png","images/vehicles_choice2.png","[2,0,1]","1","2","3","images/vehicles_choice2.png","1","vehicles","","train","1","0"
"html-keyboard-response","206","798079","0.0-9.0-2.0-0.60","1441","1","2","""event"",""trial"",""time""
""fullscreenenter"",""1"",""1711""
","
","
","""event"",""trial"",""time""
""fullscreenenter"",""1"",""1711""
","
","","","","","","null","<div style=""font-size:60px;"">+</div>","null","","fixation","","","","","","","","","","","","","",""
"learning-trial","207","802086","0.0-9.0-2.0-1.60","1441","1","2","""event"",""trial"",""time""
""fullscreenenter"",""1"",""1711""
","
","
","""event"",""trial"",""time""
""fullscreenenter"",""1"",""1711""
","
","","","","","","1358.780000000028","images/truck5.png","","","learning","images/vehicles_choice2.png","images/vehicles_choice1.png","images/vehicles_choice3.png","[1,0,2]","0","1","2","images/vehicles_choice1.png","1","vehicles","","truck","1","0"
"html-keyboard-response","208","802589","0.0-9.0-2.0-0.61","1441","1","2","""event"",""trial"",""time""
""fullscreenenter"",""1"",""1711""
","
","
","""event"",""trial"",""time""
""fullscreenenter"",""1"",""1711""
","
","","","","","","null","<div style=""font-size:60px;"">+</div>","null","","fixation","","","","","","","","","","","","","",""
"learning-trial","209","806593","0.0-9.0-2.0-1.61","1441","1","2","""event"",""trial"",""time""
""fullscreenenter"",""1"",""1711""
","
","
","""event"",""trial"",""time""
""fullscreenenter"",""1"",""1711""
","
","","","","","","1959.449999999837","images/truck3.png","","","learning","images/vehicles_choice3.png","images/vehicles_choice2.png","images/vehicles_choice1.png","[2,1,0]","0","2","2","images/vehicles_choice2.png","1","vehicles","","truck","1","0"
"html-keyboard-response","210","807101","0.0-9.0-2.0-0.62","1441","1","2","""event"",""trial"",""time""
""fullscreenenter"",""1"",""1711""
","
","
","""event"",""trial"",""time""
""fullscreenenter"",""1"",""1711""
","
","","","","","","null","<div style=""font-size:60px;"">+</div>","null","","fixation","","","","","","","","","","","","","",""
"learning-trial","211","811107","0.0-9.0-2.0-1.62","1441","1","2","""event"",""trial"",""time""
""fullscreenenter"",""1"",""1711""
","
","
","""event"",""trial"",""time""
""fullscreenenter"",""1"",""1711""
","
","","","","","","1126.664999999688","images/boat5.png","","","learning","images/vehicles_choice1.png","images/vehicles_choice2.png","images/vehicles_choice3.png","[0,1,2]","2","2","1","images/vehicles_choice1.png","-1","vehicles","","boat","1","0"
"html-keyboard-response","212","811610","0.0-9.0-2.0-0.63","1441","1","2","""event"",""trial"",""time""
""fullscreenenter"",""1"",""1711""
","
","
","""event"",""trial"",""time""
""fullscreenenter"",""1"",""1711""
","
","","","","","","null","<div style=""font-size:60px;"">+</div>","null","","fixation","","","","","","","","","","","","","",""
"learning-trial","213","815619","0.0-9.0-2.0-1.63","1441","1","2","""event"",""trial"",""time""
""fullscreenenter"",""1"",""1711""
","
","
","""event"",""trial"",""time""
""fullscreenenter"",""1"",""1711""
","
","","","","","","1587.469999999972","images/train3.png","","","learning","images/vehicles_choice1.png","images/vehicles_choice3.png","images/vehicles_choice2.png","[0,2,1]","1","2","3","images/vehicles_choice2.png","1","vehicles","","train","1","0"
"html-keyboard-response","214","816123","0.0-9.0-2.0-0.64","1441","1","2","""event"",""trial"",""time""
""fullscreenenter"",""1"",""1711""
","
","
","""event"",""trial"",""time""
""fullscreenenter"",""1"",""1711""
","
","","","","","","null","<div style=""font-size:60px;"">+</div>","null","","fixation","","","","","","","","","","","","","",""
"learning-trial","215","820132","0.0-9.0-2.0-1.64","1441","1","2","""event"",""trial"",""time""
""fullscreenenter"",""1"",""1711""
","
","
","""event"",""trial"",""time""
""fullscreenenter"",""1"",""1711""
","
","","","","","","1774.5949999998556","images/boat1.png","","","learning","images/vehicles_choice3.png","images/vehicles_choice1.png","images/vehicles_choice2.png","[2,0,1]","2","0","1","images/vehicles_choice3.png","1","vehicles","","boat","1","0"
"html-keyboard-response","216","820636","0.0-9.0-2.0-0.65","1441","1","2","""event"",""trial"",""time""
""fullscreenenter"",""1"",""1711""
","
","
","""event"",""trial"",""time""
""fullscreenenter"",""1"",""1711""
","
","","","","","","null","<div style=""font-size:60px;"">+</div>","null","","fixation","","","","","","","","","","","","","",""
"learning-trial","217","824640","0.0-9.0-2.0-1.65","1441","1","2","""event"",""trial"",""time""
""fullscreenenter"",""1"",""1711""
","
","
","""event"",""trial"",""time""
""fullscreenenter"",""1"",""1711""
","
","","","","","","1341.0249999997905","images/train5.png","","","learning","images/vehicles_choice3.png","images/vehicles_choice1.png","images/vehicles_choice2.png","[2,0,1]","1","2","3","images/vehicles_choice2.png","1","vehicles","","train","1","0"
"html-keyboard-response","218","825144","0.0-9.0-2.0-0.66","1441","1","2","""event"",""trial"",""time""
""fullscreenenter"",""1"",""1711""
","
","
","""event"",""trial"",""time""
""fullscreenenter"",""1"",""1711""
","
","","","","","","null","<div style=""font-size:60px;"">+</div>","null","","fixation","","","","","","","","","","","","","",""
"learning-trial","219","829149","0.0-9.0-2.0-1.66","1441","1","2","""event"",""trial"",""time""
""fullscreenenter"",""1"",""1711""
","
","
","""event"",""trial"",""time""
""fullscreenenter"",""1"",""1711""
","
","","","","","","2853.4899999998743","images/boat3.png","","","learning","images/vehicles_choice1.png","images/vehicles_choice2.png","images/vehicles_choice3.png","[0,1,2]","2","2","3","images/vehicles_choice3.png","1","vehicles","","boat","1","0"
"html-keyboard-response","220","829652","0.0-9.0-2.0-0.67","1441","1","2","""event"",""trial"",""time""
""fullscreenenter"",""1"",""1711""
","
","
","""event"",""trial"",""time""
""fullscreenenter"",""1"",""1711""
","
","","","","","","null","<div style=""font-size:60px;"">+</div>","null","","fixation","","","","","","","","","","","","","",""
"learning-trial","221","833662","0.0-9.0-2.0-1.67","1441","1","2","""event"",""trial"",""time""
""fullscreenenter"",""1"",""1711""
","
","
","""event"",""trial"",""time""
""fullscreenenter"",""1"",""1711""
","
","","","","","","1904.9599999998463","images/truck3.png","","","learning","images/vehicles_choice2.png","images/vehicles_choice1.png","images/vehicles_choice3.png","[1,0,2]","0","1","1","images/vehicles_choice2.png","1","vehicles","","truck","1","0"
"html-keyboard-response","222","834164","0.0-9.0-2.0-0.68","1441","1","2","""event"",""trial"",""time""
""fullscreenenter"",""1"",""1711""
","
","
","""event"",""trial"",""time""
""fullscreenenter"",""1"",""1711""
","
","","","","","","null","<div style=""font-size:60px;"">+</div>","null","","fixation","","","","","","","","","","","","","",""
"learning-trial","223","838170","0.0-9.0-2.0-1.68","1441","1","2","""event"",""trial"",""time""
""fullscreenenter"",""1"",""1711""
","
","
","""event"",""trial"",""time""
""fullscreenenter"",""1"",""1711""
","
","","","","","","2132.8850000000093","images/train3.png","","","learning","images/vehicles_choice3.png","images/vehicles_choice2.png","images/vehicles_choice1.png","[2,1,0]","1","1","2","images/vehicles_choice2.png","-1","vehicles","","train","1","0"
"html-keyboard-response","224","838677","0.0-9.0-2.0-0.69","1441","1","2","""event"",""trial"",""time""
""fullscreenenter"",""1"",""1711""
","
","
","""event"",""trial"",""time""
""fullscreenenter"",""1"",""1711""
","
","","","","","","null","<div style=""font-size:60px;"">+</div>","null","","fixation","","","","","","","","","","","","","",""
"learning-trial","225","842681","0.0-9.0-2.0-1.69","1441","1","2","""event"",""trial"",""time""
""fullscreenenter"",""1"",""1711""
","
","
","""event"",""trial"",""time""
""fullscreenenter"",""1"",""1711""
","
","","","","","","1720.4849999997532","images/train3.png","","","learning","images/vehicles_choice2.png","images/vehicles_choice3.png","images/vehicles_choice1.png","[1,2,0]","1","0","3","images/vehicles_choice1.png","-1","vehicles","","train","1","0"
"html-keyboard-response","226","843188","0.0-9.0-2.0-0.70","1441","1","2","""event"",""trial"",""time""
""fullscreenenter"",""1"",""1711""
","
","
","""event"",""trial"",""time""
""fullscreenenter"",""1"",""1711""
","
","","","","","","null","<div style=""font-size:60px;"">+</div>","null","","fixation","","","","","","","","","","","","","",""
"learning-trial","227","847200","0.0-9.0-2.0-1.70","1441","1","2","""event"",""trial"",""time""
""fullscreenenter"",""1"",""1711""
","
","
","""event"",""trial"",""time""
""fullscreenenter"",""1"",""1711""
","
","","","","","","1248.820000000298","images/truck5.png","","","learning","images/vehicles_choice3.png","images/vehicles_choice2.png","images/vehicles_choice1.png","[2,1,0]","0","2","1","images/vehicles_choice3.png","-1","vehicles","","truck","1","0"
"html-keyboard-response","228","847708","0.0-9.0-2.0-0.71","1441","1","2","""event"",""trial"",""time""
""fullscreenenter"",""1"",""1711""
","
","
","""event"",""trial"",""time""
""fullscreenenter"",""1"",""1711""
","
","","","","","","null","<div style=""font-size:60px;"">+</div>","null","","fixation","","","","","","","","","","","","","",""
"learning-trial","229","851717","0.0-9.0-2.0-1.71","1441","1","2","""event"",""trial"",""time""
""fullscreenenter"",""1"",""1711""
","
","
","""event"",""trial"",""time""
""fullscreenenter"",""1"",""1711""
","
","","","","","","1131.4799999999814","images/boat1.png","","","learning","images/vehicles_choice1.png","images/vehicles_choice2.png","images/vehicles_choice3.png","[0,1,2]","2","2","2","images/vehicles_choice2.png","-1","vehicles","","boat","1","0"
"html-button-response","230","853487","0.0-9.0-3.0","1441","1","2","""event"",""trial"",""time""
""fullscreenenter"",""1"",""1711""
","
","
","""event"",""trial"",""time""
""fullscreenenter"",""1"",""1711""
","
","","","","","","1768.8250000000698","<p> You have completed the round! <p> In this round, you earned 8 points! </p>","0","","break","","","","","","","","","","","","","",""
"html-button-response","231","855887","0.0-10.0","1441","1","2","""event"",""trial"",""time""
""fullscreenenter"",""1"",""1711""
","
","
","""event"",""trial"",""time""
""fullscreenenter"",""1"",""1711""
","
","","","","","","2397.925000000163","<p> Now it's time to play another round. </p>","0","","transition_screen","","","","","","","","","","","","","",""
"preload","232","859207","0.0-11.0-0.0","1441","1","2","""event"",""trial"",""time""
""fullscreenenter"",""1"",""1711""
","
","
","""event"",""trial"",""time""
""fullscreenenter"",""1"",""1711""
","
","true","false","[]","[]","[]","","","","","","","","","","","","","","","","","","",""
"learning-instructions","233","869575","0.0-11.0-1.0-0.0","1441","1","2","""event"",""trial"",""time""
""fullscreenenter"",""1"",""1711""
","
","
","""event"",""trial"",""time""
""fullscreenenter"",""1"",""1711""
","
","","","","","","3586.99000000034","<p> Your goal in this round is to feed all of your pets with the foods they like. </p><p> You will need to feed many pets. </p></div>","","0","instructions","","","","","","","","","","","","","",""
"learning-instructions","234","879119","0.0-11.0-1.0-0.1","1441","1","2","""event"",""trial"",""time""
""fullscreenenter"",""1"",""1711""
","
","
","""event"",""trial"",""time""
""fullscreenenter"",""1"",""1711""
","
","","","","","","1540.469999999972","<p> On each turn, you will see a picture of one of your pets and three different types of foods.  </p><p> You need to select the food that you want to give to your pet.  </p>","","0","instructions","","","","","","","","","","","","","",""
"learning-instructions","235","888271","0.0-11.0-1.0-0.2","1441","1","2","""event"",""trial"",""time""
""fullscreenenter"",""1"",""1711""
","
","
","""event"",""trial"",""time""
""fullscreenenter"",""1"",""1711""
","
