"trial_type","trial_index","time_elapsed","internal_node_id","subject_id","condition","task_version","interactions","blur_events","focus_events","fullscreenenter_events","fullscreenexit_events","success","timeout","failed_images","failed_audio","failed_video","rt","stimulus","response","button_pressed","task_part","left_choice","middle_choice","right_choice","choice_positions","correct_response","correct_position","key_press","option_selected","points","task_block","correct","stim_cat","block_condition","block_number"
"pavlovia","0","5","0.0-0.0","1525","1","2","""event"",""trial"",""time""
""fullscreenenter"",""1"",""11514""
","
","
","""event"",""trial"",""time""
""fullscreenenter"",""1"",""11514""
","
","","","","","","","","","","","","","","","","","","","","","","","",""
"fullscreen","1","12458","0.0-1.0","1525","1","2","""event"",""trial"",""time""
""fullscreenenter"",""1"",""11514""
","
","
","""event"",""trial"",""time""
""fullscreenenter"",""1"",""11514""
","
","true","","","","","","","","","","","","","","","","","","","","","","",""
"preload","2","14831","0.0-2.0","1525","1","2","""event"",""trial"",""time""
""fullscreenenter"",""1"",""11514""
","
","
","""event"",""trial"",""time""
""fullscreenenter"",""1"",""11514""
","
","true","false","[]","[]","[]","","","","","","","","","","","","","","","","","","",""
"audio-keyboard-response","3","23186","0.0-3.0","1525","1","2","""event"",""trial"",""time""
""fullscreenenter"",""1"",""11514""
","
","
","""event"",""trial"",""time""
""fullscreenenter"",""1"",""11514""
","
","","","","","","0","audio/beep_loop.wav"," ","","","","","","","","","","","","","","","",""
"audio-button-response","4","26395","0.0-4.0","1525","1","2","""event"",""trial"",""time""
""fullscreenenter"",""1"",""11514""
","
","
","""event"",""trial"",""time""
""fullscreenenter"",""1"",""11514""
","
","","","","","","2656","audio/shark.wav","4","","","","","","","","","","","","","","","",""
"audio-button-response","5","29019","0.0-5.0","1525","1","2","""event"",""trial"",""time""
""fullscreenenter"",""1"",""11514""
","
","
","""event"",""trial"",""time""
""fullscreenenter"",""1"",""11514""
","
","","","","","","1622","audio/turtle.wav","1","","","","","","","","","","","","","","","",""
"preload","6","32094","0.0-6.0","1525","1","2","""event"",""trial"",""time""
""fullscreenenter"",""1"",""11514""
","
","
","""event"",""trial"",""time""
""fullscreenenter"",""1"",""11514""
","
","true","false","[]","[]","[]","","","","","","","","","","","","","","","","","","",""
"html-keyboard-response","7","34321","0.0-7.0","1525","1","2","""event"",""trial"",""time""
""fullscreenenter"",""1"",""11514""
","
","
","""event"",""trial"",""time""
""fullscreenenter"",""1"",""11514""
","
","","","","","","2225","Welcome to the experiment. Press any key to begin and to advance the instructions."," ","","","","","","","","","","","","","","","",""
"learning-instructions","8","43855","0.0-8.0-0.0-0.0","1525","1","2","""event"",""trial"",""time""
""fullscreenenter"",""1"",""11514""
","
","
","""event"",""trial"",""time""
""fullscreenenter"",""1"",""11514""
","
","","","","","","1785","<p> Welcome! Today you are going to play 6 different rounds of a decision-making game. </p><p> Use the mouse to click next to continue. </p>","","0","instructions","","","","","","","","","","","","","",""
"learning-instructions","9","47582","0.0-8.0-0.0-0.1","1525","1","2","""event"",""trial"",""time""
""fullscreenenter"",""1"",""11514""
","
","
","""event"",""trial"",""time""
""fullscreenenter"",""1"",""11514""
","
","","","","","","727","<p> You will start with a practice round to learn the rules. </p>","","0","instructions","","","","","","","","","","","","","",""
"learning-instructions","10","56427","0.0-8.0-0.0-0.2","1525","1","2","""event"",""trial"",""time""
""fullscreenenter"",""1"",""11514""
","
","
","""event"",""trial"",""time""
""fullscreenenter"",""1"",""11514""
","
","","","","","","1109.0000000000073","<p> Your goal in this round is to deliver sports equipment to three different parks. </p><p> You will need to deliver many types of equipment. </p></div>","","0","instructions","","","","","","","","","","","","","",""
"learning-instructions","11","65317","0.0-8.0-0.0-0.3","1525","1","2","""event"",""trial"",""time""
""fullscreenenter"",""1"",""11514""
","
","
","""event"",""trial"",""time""
""fullscreenenter"",""1"",""11514""
","
","","","","","","409","<p> On each turn, you will see one piece of sports equipment and three different parks.  </p><p> You need to select which park to deliver the equipment to.  </p>","","0","instructions","","","","","","","","","","","","","",""
"learning-instructions","12","80829","0.0-8.0-0.0-0.4","1525","1","2","""event"",""trial"",""time""
""fullscreenenter"",""1"",""11514""
","
","
","""event"",""trial"",""time""
""fullscreenenter"",""1"",""11514""
","
","","","","","","2231","<p> You can select the park on the left by pressing the '1' key on your keyboard. <br>You can select the park in the middle by pressing the '2' key on your keyboard. <br>You can select the park on the right by pressing the '3' key on your keyboard.  </p><br><div class=""choice-instructions-grid""> <div class=""choice-option""><img src=""images/park1.png"" class=""choice-option-img"" stage=""instructions"" position=""0"" ><div class=""choice-option-text""> Press ""1."" </div></div><div class=""choice-option""><img src=""images/park2.png"" class=""choice-option-img"" stage=""instructions"" position=""1"" ><div class=""choice-option-text""> Press ""2."" </div></div><div class=""choice-option""><img src=""images/park3.png"" class=""choice-option-img"" stage=""instructions"" position=""2"" ><div class=""choice-option-text""> Press ""3."" </div></div></div>","","0","instructions","","","","","","","","","","","","","",""
"learning-instructions","13","86891","0.0-8.0-0.0-0.5","1525","1","2","""event"",""trial"",""time""
""fullscreenenter"",""1"",""11514""
","
","
","""event"",""trial"",""time""
""fullscreenenter"",""1"",""11514""
","
","","","","","","684","<p> If the kids in the park you chose like the equipment, they will be very happy! </p><div style='float: center;'><img src='images/check.png' width = '200' height = '200'></img>","","0","instructions","","","","","","","","","","","","","",""
"learning-instructions","14","92945","0.0-8.0-0.0-0.6","1525","1","2","""event"",""trial"",""time""
""fullscreenenter"",""1"",""11514""
","
","
","""event"",""trial"",""time""
""fullscreenenter"",""1"",""11514""
","
","","","","","","469","<p> But, if the kids in the park you chose do not like the equipment, they will be sad. </p><div style='float: center;'><img src='images/x.png' width = '200' height = '200'></img>","","0","instructions","","","","","","","","","","","","","",""
"learning-instructions","15","100786","0.0-8.0-0.0-0.7","1525","1","2","""event"",""trial"",""time""
""fullscreenenter"",""1"",""11514""
","
","
","""event"",""trial"",""time""
""fullscreenenter"",""1"",""11514""
","
","","","","","","1412","<p> Importantly, the kids in each park like some pieces of sports equipment more than others. </p>","","0","instructions","","","","","","","","","","","","","",""
"learning-instructions","16","107276","0.0-8.0-0.0-0.8","1525","1","2","""event"",""trial"",""time""
""fullscreenenter"",""1"",""11514""
","
","
","""event"",""trial"",""time""
""fullscreenenter"",""1"",""11514""
","
","","","","","","444","<p> If you choose the best park for each piece of equipment, the kids there will usually be happy. </p>","","0","instructions","","","","","","","","","","","","","",""
"learning-instructions","17","114397","0.0-8.0-0.0-0.9","1525","1","2","""event"",""trial"",""time""
""fullscreenenter"",""1"",""11514""
","
","
","""event"",""trial"",""time""
""fullscreenenter"",""1"",""11514""
","
","","","","","","479","<p> However, even if you choose the best park for the equipment, the kids may sometimes be sad. </p>","","0","instructions","","","","","","","","","","","","","",""
"learning-instructions","18","122332","0.0-8.0-0.0-0.10","1525","1","2","""event"",""trial"",""time""
""fullscreenenter"",""1"",""11514""
","
","
","""event"",""trial"",""time""
""fullscreenenter"",""1"",""11514""
","
","","","","","","711.9999999999854","<p> Similarly, even if you choose the <i>wrong</i> park for the equipment, the kids may still be happy sometimes.","","0","instructions","","","","","","","","","","","","","",""
"learning-instructions","19","130006","0.0-8.0-0.0-0.11","1525","1","2","""event"",""trial"",""time""
""fullscreenenter"",""1"",""11514""
","
","
","""event"",""trial"",""time""
""fullscreenenter"",""1"",""11514""
","
","","","","","","2623.9999999999854","<p> For example, the best park for this soccer ball is this one.<div style='float: center;'><img src='images/i1.png' width = '500' height = '268'></img>","","0","instructions","","","","","","","","","","","","","",""
"learning-instructions","20","136012","0.0-8.0-0.0-0.12","1525","1","2","""event"",""trial"",""time""
""fullscreenenter"",""1"",""11514""
","
","
","""event"",""trial"",""time""
""fullscreenenter"",""1"",""11514""
","
","","","","","","720","<p> Let's see what happens if you choose this park for the soccer ball five times.","","0","instructions","","","","","","","","","","","","","",""
"learning-instructions","21","140696","0.0-8.0-0.0-0.13","1525","1","2","""event"",""trial"",""time""
""fullscreenenter"",""1"",""11514""
","
","
","""event"",""trial"",""time""
""fullscreenenter"",""1"",""11514""
","
","","","","","","2523","<p> The kids are happy.<div style='float: left;'><img src='images/i2.png' width = '640' height = '360'></img>","","0","instructions","","","","","","","","","","","","","",""
"learning-instructions","22","143384","0.0-8.0-0.0-0.14","1525","1","2","""event"",""trial"",""time""
""fullscreenenter"",""1"",""11514""
","
","
","""event"",""trial"",""time""
""fullscreenenter"",""1"",""11514""
","
","","","","","","525","<p> The kids are happy.<div style='float: left;'><img src='images/i3.png' width = '640' height = '360'></img>","","0","instructions","","","","","","","","","","","","","",""
"learning-instructions","23","146306","0.0-8.0-0.0-0.15","1525","1","2","""event"",""trial"",""time""
""fullscreenenter"",""1"",""11514""
","
","
","""event"",""trial"",""time""
""fullscreenenter"",""1"",""11514""
","
","","","","","","760","<p> The kids are happy.<div style='float: left;'><img src='images/i4.png' width = '640' height = '360'></img>","","0","instructions","","","","","","","","","","","","","",""
"learning-instructions","24","149317","0.0-8.0-0.0-0.16","1525","1","2","""event"",""trial"",""time""
""fullscreenenter"",""1"",""11514""
","
","
","""event"",""trial"",""time""
""fullscreenenter"",""1"",""11514""
","
","","","","","","807","<p> The kids are sad.<div style='float: left;'><img src='images/i5.png' width = '640' height = '360'></img>","","0","instructions","","","","","","","","","","","","","",""
"learning-instructions","25","152352","0.0-8.0-0.0-0.17","1525","1","2","""event"",""trial"",""time""
""fullscreenenter"",""1"",""11514""
","
","
","""event"",""trial"",""time""
""fullscreenenter"",""1"",""11514""
","
","","","","","","873","<p> The kids are happy.<div style='float: left;'><img src='images/i6.png' width = '640' height = '360'></img>","","0","instructions","","","","","","","","","","","","","",""
"learning-instructions","26","161512","0.0-8.0-0.0-0.18","1525","1","2","""event"",""trial"",""time""
""fullscreenenter"",""1"",""11514""
","
","
","""event"",""trial"",""time""
""fullscreenenter"",""1"",""11514""
","
","","","","","","1895","<p> As you can see, selecting that park for the soccer ball made the kids happy most of the time, but not all the time.","","0","instructions","","","","","","","","","","","","","",""
"learning-instructions","27","168366","0.0-8.0-0.0-0.19","1525","1","2","""event"",""trial"",""time""
""fullscreenenter"",""1"",""11514""
","
","
","""event"",""trial"",""time""
""fullscreenenter"",""1"",""11514""
","
","","","","","","857","<p> Now let's see what happens if you choose a DIFFERENT park for the soccer ball 5 times.","","0","instructions","","","","","","","","","","","","","",""
"learning-instructions","28","171026","0.0-8.0-0.0-0.20","1525","1","2","""event"",""trial"",""time""
""fullscreenenter"",""1"",""11514""
","
","
","""event"",""trial"",""time""
""fullscreenenter"",""1"",""11514""
","
","","","","","","456.9999999999709","<p> The kids are sad.<div style='float: left;'><img src='images/i7.png' width = '640' height = '360'></img>","","0","instructions","","","","","","","","","","","","","",""
"learning-instructions","29","173688","0.0-8.0-0.0-0.21","1525","1","2","""event"",""trial"",""time""
""fullscreenenter"",""1"",""11514""
","
","
","""event"",""trial"",""time""
""fullscreenenter"",""1"",""11514""
","
","","","","","","461","<p> The kids are sad.<div style='float: left;'><img src='images/i8.png' width = '640' height = '360'></img>","","0","instructions","","","","","","","","","","","","","",""
"learning-instructions","30","176340","0.0-8.0-0.0-0.22","1525","1","2","""event"",""trial"",""time""
""fullscreenenter"",""1"",""11514""
","
","
","""event"",""trial"",""time""
""fullscreenenter"",""1"",""11514""
","
","","","","","","489","<p> The kids are happy.<div style='float: left;'><img src='images/i9.png' width = '640' height = '360'></img>","","0","instructions","","","","","","","","","","","","","",""
"learning-instructions","31","179035","0.0-8.0-0.0-0.23","1525","1","2","""event"",""trial"",""time""
""fullscreenenter"",""1"",""11514""
","
","
","""event"",""trial"",""time""
""fullscreenenter"",""1"",""11514""
","
","","","","","","493","<p> The kids are sad.<div style='float: left;'><img src='images/i10.png' width = '640' height = '360'></img>","","0","instructions","","","","","","","","","","","","","",""
"learning-instructions","32","182465","0.0-8.0-0.0-0.24","1525","1","2","""event"",""trial"",""time""
""fullscreenenter"",""1"",""11514""
","
","
","""event"",""trial"",""time""
""fullscreenenter"",""1"",""11514""
","
","","","","","","1226","<p> The kids are sad.<div style='float: left;'><img src='images/i11.png' width = '640' height = '360'></img>","","0","instructions","","","","","","","","","","","","","",""
"learning-instructions","33","192646","0.0-8.0-0.0-0.25","1525","1","2","""event"",""trial"",""time""
""fullscreenenter"",""1"",""11514""
","
","
","""event"",""trial"",""time""
""fullscreenenter"",""1"",""11514""
","
","","","","","","2063","<p> As you can see, selecting the wrong park for the soccer ball made the kids sad most of the time, but not all the time.","","0","instructions","","","","","","","","","","","","","",""
"learning-instructions","34","202502","0.0-8.0-0.0-0.26","1525","1","2","""event"",""trial"",""time""
""fullscreenenter"",""1"",""11514""
","
","
","""event"",""trial"",""time""
""fullscreenenter"",""1"",""11514""
","
","","","","","","746","<p> The different pieces of equipment belong in different parks. You need to try to learn which is the best park for each piece of equipment.","","0","instructions","","","","","","","","","","","","","",""
"learning-instructions","35","219357","0.0-8.0-0.0-0.27","1525","1","2","""event"",""trial"",""time""
""fullscreenenter"",""1"",""11514""
","
","
","""event"",""trial"",""time""
""fullscreenenter"",""1"",""11514""
","
","","","","","","473","<p> Try to choose the best park for each piece of equipment, because you will <b> WIN </b> 1 point for each time you make the kids happy and <b>LOSE</b> 1 point for each time you make them sad. </p><p> Remember, if you make the best choice, you will win 1 point most of the time, but not all the time. </p>","","0","instructions","","","","","","","","","","","","","",""
"learning-instructions","36","226260","0.0-8.0-0.0-0.28","1525","1","2","""event"",""trial"",""time""
""fullscreenenter"",""1"",""11514""
","
","
","""event"",""trial"",""time""
""fullscreenenter"",""1"",""11514""
","
","","","","","","1429","<p> This is just a practice round, but in the real game, your bonus payment will depend on your total number of points.","","0","instructions","","","","","","","","","","","","","",""
"learning-instructions","37","238669","0.0-8.0-0.0-0.29","1525","1","2","""event"",""trial"",""time""
""fullscreenenter"",""1"",""11514""
","
","
","""event"",""trial"",""time""
""fullscreenenter"",""1"",""11514""
","
","","","","","","2091","<p> The position where each park appears will change throughout the game. </p><p> The position where the park appears <i> does not </i> influence how likely the kids are to be happy or sad. </p>","","0","instructions","","","","","","","","","","","","","",""
"learning-instructions","38","249819","0.0-8.0-0.0-0.30","1525","1","2","""event"",""trial"",""time""
""fullscreenenter"",""1"",""11514""
","
","
","""event"",""trial"",""time""
""fullscreenenter"",""1"",""11514""
","
","","","","","","574","<p> You will have 4 seconds to make each choice. Try to respond before time runs out! </p><p> You will lose 1 point each time you do not make a response. </p>","","0","instructions","","","","","","","","","","","","","",""
"learning-instructions","39","257868","0.0-8.0-0.0-0.31","1525","1","2","""event"",""trial"",""time""
""fullscreenenter"",""1"",""11514""
","
","
","""event"",""trial"",""time""
""fullscreenenter"",""1"",""11514""
","
","","","","","","1264.000000000029","<p> Remember, you should use the 1, 2, and 3 keys to select the park for each piece of equipment. </p><br><div class=""choice-instructions-grid""> <div class=""choice-option""><img src=""images/park1.png"" class=""choice-option-img"" stage=""instructions"" position=""0"" ><div class=""choice-option-text""> Press ""1."" </div></div><div class=""choice-option""><img src=""images/park2.png"" class=""choice-option-img"" stage=""instructions"" position=""1"" ><div class=""choice-option-text""> Press ""2."" </div></div><div class=""choice-option""><img src=""images/park3.png"" class=""choice-option-img"" stage=""instructions"" position=""2"" ><div class=""choice-option-text""> Press ""3."" </div></div></div>","","0","instructions","","","","","","","","","","","","","",""
"html-button-response","40","261040","0.0-8.0-1.0","1525","1","2","""event"",""trial"",""time""
""fullscreenenter"",""1"",""11514""
","
","
","""event"",""trial"",""time""
""fullscreenenter"",""1"",""11514""
","
","","","","","","3070.999999999971","<p> Ready to practice? </p>","0","","","","","","","","","","","","","","","",""
"html-keyboard-response","41","261643","0.0-8.0-2.0-0.0","1525","1","2","""event"",""trial"",""time""
""fullscreenenter"",""1"",""11514""
","
","
","""event"",""trial"",""time""
""fullscreenenter"",""1"",""11514""
","
","","","","","","null","<div style=""font-size:60px;"">+</div>","null","","fixation","","","","","","","","","","","","","",""
"learning-trial","42","265646","0.0-8.0-2.0-1.0","1525","1","2","""event"",""trial"",""time""
""fullscreenenter"",""1"",""11514""
","
","
","""event"",""trial"",""time""
""fullscreenenter"",""1"",""11514""
","
","","","","","","2464.999999999942","images/ball2.png","","","practice","images/park1.png","images/park2.png","images/park3.png","[0,1,2]","0","0","1","images/park1.png","1","practice","","","",""
"html-keyboard-response","43","266148","0.0-8.0-2.0-0.1","1525","1","2","""event"",""trial"",""time""
""fullscreenenter"",""1"",""11514""
","
","
","""event"",""trial"",""time""
""fullscreenenter"",""1"",""11514""
","
","","","","","","null","<div style=""font-size:60px;"">+</div>","null","","fixation","","","","","","","","","","","","","",""
"learning-trial","44","270151","0.0-8.0-2.0-1.1","1525","1","2","""event"",""trial"",""time""
""fullscreenenter"",""1"",""11514""
","
","
","""event"",""trial"",""time""
""fullscreenenter"",""1"",""11514""
","
","","","","","","3038","images/ball1.png","","","practice","images/park2.png","images/park1.png","images/park3.png","[1,0,2]","0","1","1","images/park2.png","-1","practice","","","",""
"html-keyboard-response","45","270652","0.0-8.0-2.0-0.2","1525","1","2","""event"",""trial"",""time""
""fullscreenenter"",""1"",""11514""
","
","
","""event"",""trial"",""time""
""fullscreenenter"",""1"",""11514""
","
","","","","","","null","<div style=""font-size:60px;"">+</div>","null","","fixation","","","","","","","","","","","","","",""
"learning-trial","46","274655","0.0-8.0-2.0-1.2","1525","1","2","""event"",""trial"",""time""
""fullscreenenter"",""1"",""11514""
","
","
","""event"",""trial"",""time""
""fullscreenenter"",""1"",""11514""
","
","","","","","","null","images/racket2.png","","","practice","images/park3.png","images/park1.png","images/park2.png","[2,0,1]","2","0","null","null","-1","practice","","","",""
"html-keyboard-response","47","275157","0.0-8.0-2.0-0.3","1525","1","2","""event"",""trial"",""time""
""fullscreenenter"",""1"",""11514""
","
","
","""event"",""trial"",""time""
""fullscreenenter"",""1"",""11514""
","
","","","","","","null","<div style=""font-size:60px;"">+</div>","null","","fixation","","","","","","","","","","","","","",""
"learning-trial","48","279159","0.0-8.0-2.0-1.3","1525","1","2","""event"",""trial"",""time""
""fullscreenenter"",""1"",""11514""
","
","
","""event"",""trial"",""time""
""fullscreenenter"",""1"",""11514""
","
","","","","","","2595","images/racket4.png","","","practice","images/park1.png","images/park2.png","images/park3.png","[0,1,2]","2","2","3","images/park3.png","-1","practice","","","",""
"html-keyboard-response","49","279661","0.0-8.0-2.0-0.4","1525","1","2","""event"",""trial"",""time""
""fullscreenenter"",""1"",""11514""
","
","
","""event"",""trial"",""time""
""fullscreenenter"",""1"",""11514""
","
","","","","","","null","<div style=""font-size:60px;"">+</div>","null","","fixation","","","","","","","","","","","","","",""
"learning-trial","50","283662","0.0-8.0-2.0-1.4","1525","1","2","""event"",""trial"",""time""
""fullscreenenter"",""1"",""11514""
","
","
","""event"",""trial"",""time""
""fullscreenenter"",""1"",""11514""
","
","","","","","","1721.0000000000582","images/racket2.png","","","practice","images/park3.png","images/park1.png","images/park2.png","[2,0,1]","2","0","3","images/park2.png","-1","practice","","","",""
"html-keyboard-response","51","284164","0.0-8.0-2.0-0.5","1525","1","2","""event"",""trial"",""time""
""fullscreenenter"",""1"",""11514""
","
","
","""event"",""trial"",""time""
""fullscreenenter"",""1"",""11514""
","
","","","","","","null","<div style=""font-size:60px;"">+</div>","null","","fixation","","","","","","","","","","","","","",""
"learning-trial","52","288166","0.0-8.0-2.0-1.5","1525","1","2","""event"",""trial"",""time""
""fullscreenenter"",""1"",""11514""
","
","
","""event"",""trial"",""time""
""fullscreenenter"",""1"",""11514""
","
","","","","","","1727","images/ball4.png","","","practice","images/park1.png","images/park2.png","images/park3.png","[0,1,2]","1","1","1","images/park1.png","-1","practice","","","",""
"html-keyboard-response","53","288668","0.0-8.0-2.0-0.6","1525","1","2","""event"",""trial"",""time""
""fullscreenenter"",""1"",""11514""
","
","
","""event"",""trial"",""time""
""fullscreenenter"",""1"",""11514""
","
","","","","","","null","<div style=""font-size:60px;"">+</div>","null","","fixation","","","","","","","","","","","","","",""
"learning-trial","54","292670","0.0-8.0-2.0-1.6","1525","1","2","""event"",""trial"",""time""
""fullscreenenter"",""1"",""11514""
","
","
","""event"",""trial"",""time""
""fullscreenenter"",""1"",""11514""
","
","","","","","","1018.9999999999418","images/ball4.png","","","practice","images/park1.png","images/park3.png","images/park2.png","[0,2,1]","1","2","2","images/park3.png","-1","practice","","","",""
"html-keyboard-response","55","293171","0.0-8.0-2.0-0.7","1525","1","2","""event"",""trial"",""time""
""fullscreenenter"",""1"",""11514""
","
","
","""event"",""trial"",""time""
""fullscreenenter"",""1"",""11514""
","
","","","","","","null","<div style=""font-size:60px;"">+</div>","null","","fixation","","","","","","","","","","","","","",""
"learning-trial","56","297173","0.0-8.0-2.0-1.7","1525","1","2","""event"",""trial"",""time""
""fullscreenenter"",""1"",""11514""
","
","
","""event"",""trial"",""time""
""fullscreenenter"",""1"",""11514""
","
","","","","","","1119","images/racket4.png","","","practice","images/park1.png","images/park2.png","images/park3.png","[0,1,2]","2","2","2","images/park2.png","-1","practice","","","",""
"html-keyboard-response","57","297675","0.0-8.0-2.0-0.8","1525","1","2","""event"",""trial"",""time""
""fullscreenenter"",""1"",""11514""
","
","
","""event"",""trial"",""time""
""fullscreenenter"",""1"",""11514""
","
","","","","","","null","<div style=""font-size:60px;"">+</div>","null","","fixation","","","","","","","","","","","","","",""
"learning-trial","58","301677","0.0-8.0-2.0-1.8","1525","1","2","""event"",""trial"",""time""
""fullscreenenter"",""1"",""11514""
","
","
","""event"",""trial"",""time""
""fullscreenenter"",""1"",""11514""
","
","","","","","","3007","images/ball3.png","","","practice","images/park2.png","images/park3.png","images/park1.png","[1,2,0]","1","0","1","images/park2.png","1","practice","","","",""
"html-keyboard-response","59","302179","0.0-8.0-2.0-0.9","1525","1","2","""event"",""trial"",""time""
""fullscreenenter"",""1"",""11514""
","
","
","""event"",""trial"",""time""
""fullscreenenter"",""1"",""11514""
","
","","","","","","null","<div style=""font-size:60px;"">+</div>","null","","fixation","","","","","","","","","","","","","",""
"learning-trial","60","306181","0.0-8.0-2.0-1.9","1525","1","2","""event"",""trial"",""time""
""fullscreenenter"",""1"",""11514""
","
","
","""event"",""trial"",""time""
""fullscreenenter"",""1"",""11514""
","
","","","","","","1780.0000000000582","images/ball1.png","","","practice","images/park1.png","images/park3.png","images/park2.png","[0,2,1]","0","0","3","images/park2.png","-1","practice","","","",""
"html-keyboard-response","61","306682","0.0-8.0-2.0-0.10","1525","1","2","""event"",""trial"",""time""
""fullscreenenter"",""1"",""11514""
","
","
","""event"",""trial"",""time""
""fullscreenenter"",""1"",""11514""
","
","","","","","","null","<div style=""font-size:60px;"">+</div>","null","","fixation","","","","","","","","","","","","","",""
"learning-trial","62","310684","0.0-8.0-2.0-1.10","1525","1","2","""event"",""trial"",""time""
""fullscreenenter"",""1"",""11514""
","
","
","""event"",""trial"",""time""
""fullscreenenter"",""1"",""11514""
","
","","","","","","1611.0000000000582","images/ball3.png","","","practice","images/park2.png","images/park1.png","images/park3.png","[1,0,2]","1","0","1","images/park2.png","1","practice","","","",""
"html-keyboard-response","63","311187","0.0-8.0-2.0-0.11","1525","1","2","""event"",""trial"",""time""
""fullscreenenter"",""1"",""11514""
","
","
","""event"",""trial"",""time""
""fullscreenenter"",""1"",""11514""
","
","","","","","","null","<div style=""font-size:60px;"">+</div>","null","","fixation","","","","","","","","","","","","","",""
"learning-trial","64","315189","0.0-8.0-2.0-1.11","1525","1","2","""event"",""trial"",""time""
""fullscreenenter"",""1"",""11514""
","
","
","""event"",""trial"",""time""
""fullscreenenter"",""1"",""11514""
","
","","","","","","1243.0000000000582","images/ball2.png","","","practice","images/park1.png","images/park3.png","images/park2.png","[0,2,1]","0","0","1","images/park1.png","1","practice","","","",""
"html-button-response","65","318860","0.0-8.0-3.0","1525","1","2","""event"",""trial"",""time""
""fullscreenenter"",""1"",""11514""
","
","
","""event"",""trial"",""time""
""fullscreenenter"",""1"",""11514""
","
","","","","","","3670","<p> You earned -4 points in the practice round! </p>","0","","break","","","","","","","","","","","","","",""
"learning-instructions","66","328293","0.0-8.0-4.0-0.0","1525","1","2","""event"",""trial"",""time""
""fullscreenenter"",""1"",""11514""
","
","
","""event"",""trial"",""time""
""fullscreenenter"",""1"",""11514""
","
","","","","","","1759","<p> It's almost time to start the real game. </p><p> Before you start, we're going to ask you a few questions about how the game works. </p>","","0","instructions","","","","","","","","","","","","","",""
"preload","67","330156","0.0-8.0-5.0","1525","1","2","""event"",""trial"",""time""
""fullscreenenter"",""1"",""11514""
","
","
","""event"",""trial"",""time""
""fullscreenenter"",""1"",""11514""
","
","true","false","[]","[]","[]","","","","","","","","","","","","","","","","","","",""
"comp-q","68","336955","0.0-8.0-6.0-0.0","1525","1","2","""event"",""trial"",""time""
""fullscreenenter"",""1"",""11514""
","
","
","""event"",""trial"",""time""
""fullscreenenter"",""1"",""11514""
","
","","","","","","1335","<p> <b> True or False? </b> </p><p> If you choose the best option, you will always earn 1 point. </p>","","1","comp_question","","","","","","","","","","","true","","",""
"comp-q","69","344018","0.0-8.0-6.0-1.0","1525","1","2","""event"",""trial"",""time""
""fullscreenenter"",""1"",""11514""
","
","
","""event"",""trial"",""time""
""fullscreenenter"",""1"",""11514""
","
","","","","","","1400","<p><b> That's right! </b> Sometimes you will lose 1 point, even if you choose the best option. </p>","","0","comp_answer","","","","","","","","","","","","","",""
"comp-q","70","349295","0.0-8.0-6.0-0.1","1525","1","2","""event"",""trial"",""time""
""fullscreenenter"",""1"",""11514""
","
","
","""event"",""trial"",""time""
""fullscreenenter"",""1"",""11514""
","
","","","","","","647","<p> <b> True or False? </b> </p><p> You will have as much time as you want to make each choice. </p>","","1","comp_question","","","","","","","","","","","true","","",""
"comp-q","71","356939","0.0-8.0-6.0-1.1","1525","1","2","""event"",""trial"",""time""
""fullscreenenter"",""1"",""11514""
","
","
","""event"",""trial"",""time""
""fullscreenenter"",""1"",""11514""
","
","","","","","","2828","<p> <b> That's right! </b> You will only have 4 seconds to make each choice. </p>","","0","comp_answer","","","","","","","","","","","","","",""
"comp-q","72","363895","0.0-8.0-6.0-0.2","1525","1","2","""event"",""trial"",""time""
""fullscreenenter"",""1"",""11514""
","
","
","""event"",""trial"",""time""
""fullscreenenter"",""1"",""11514""
","
","","","","","","809","<p> <b> True or False? </b> </p><p> You should use the '1', '2', and '3' keys to make your choices. </p>","","0","comp_question","","","","","","","","","","","true","","",""
"comp-q","73","371276","0.0-8.0-6.0-1.2","1525","1","2","""event"",""trial"",""time""
""fullscreenenter"",""1"",""11514""
","
","
","""event"",""trial"",""time""
""fullscreenenter"",""1"",""11514""
","
","","","","","","2539","<p> <b> That's right! </b> You should use the '1', '2', and '3' keys to make each choice. </p>","","0","comp_answer","","","","","","","","","","","","","",""
"learning-instructions","74","381114","0.0-8.0-7.0-0.0","1525","1","2","""event"",""trial"",""time""
""fullscreenenter"",""1"",""11514""
","
","
","""event"",""trial"",""time""
""fullscreenenter"",""1"",""11514""
","
","","","","","","1353","<p> It's now time to start the real game. </p>Do your best, because the points you earn in the next rounds will influence your bonus payment. </p>","","0","instructions","","","","","","","","","","","","","",""
"preload","75","383252","0.0-9.0-0.0","1525","1","2","""event"",""trial"",""time""
""fullscreenenter"",""1"",""11514""
","
","
","""event"",""trial"",""time""
""fullscreenenter"",""1"",""11514""
","
","true","false","[]","[]","[]","","","","","","","","","","","","","","","","","","",""
"learning-instructions","76","394401","0.0-9.0-1.0-0.0","1525","1","2","""event"",""trial"",""time""
""fullscreenenter"",""1"",""11514""
","
","
","""event"",""trial"",""time""
""fullscreenenter"",""1"",""11514""
","
","","","","","","3488","<p> Your goal in this round is to return farm animals to the barns where they live. </p><p>  Different animals wandered away from different barns! </p></div>","","0","instructions","","","","","","","","","","","","","",""
"learning-instructions","77","403489","0.0-9.0-1.0-0.1","1525","1","2","""event"",""trial"",""time""
""fullscreenenter"",""1"",""11514""
","
","
","""event"",""trial"",""time""
""fullscreenenter"",""1"",""11514""
","
","","","","","","465.0000000000582","<p> On each turn, you will see a picture of a farm animal and three different barns.  </p><p> You need to select the barn where each animal lives.  </p>","","0","instructions","","","","","","","","","","","","","",""
"learning-instructions","78","411192","0.0-9.0-1.0-0.2","1525","1","2","""event"",""trial"",""time""
""fullscreenenter"",""1"",""11514""
","
","
","""event"",""trial"",""time""
""fullscreenenter"",""1"",""11514""
","
","","","","","","523","<p> You can select the barn on the left by pressing 1, the barn in the middle by pressing 2, and the barn on the right by pressing 3. </p><br><div class=""choice-instructions-grid""> <div class=""choice-option""><img src=""images/animals_choice1.png"" class=""choice-option-img"" stage=""instructions"" position=""0"" ><div class=""choice-option-text""> Press ""1."" </div></div><div class=""choice-option""><img src=""images/animals_choice2.png"" class=""choice-option-img"" stage=""instructions"" position=""1"" ><div class=""choice-option-text""> Press ""2."" </div></div><div class=""choice-option""><img src=""images/animals_choice3.png"" class=""choice-option-img"" stage=""instructions"" position=""2"" ><div class=""choice-option-text""> Press ""3."" </div></div></div>","","0","instructions","","","","","","","","","","","","","",""
"learning-instructions","79","417680","0.0-9.0-1.0-0.3","1525","1","2","""event"",""trial"",""time""
""fullscreenenter"",""1"",""11514""
","
","
","""event"",""trial"",""time""
""fullscreenenter"",""1"",""11514""
","
","","","","","","1354","<p> If you return the farm animal to the correct barn, it will usually be happy! </p><div style='float: center;'><img src='images/check.png' width = '200' height = '200'></img>","","0","instructions","","","","","","","","","","","","","",""
"learning-instructions","80","423992","0.0-9.0-1.0-0.4","1525","1","2","""event"",""trial"",""time""
""fullscreenenter"",""1"",""11514""
","
","
","""event"",""trial"",""time""
""fullscreenenter"",""1"",""11514""
","
","","","","","","1014.9999999999418","<p> But, if you return the farm animal to the wrong barn, it will usually be sad. </p><div style='float: center;'><img src='images/x.png' width = '200' height = '200'></img>","","0","instructions","","","","","","","","","","","","","",""
"learning-instructions","81","434811","0.0-9.0-1.0-0.5","1525","1","2","""event"",""trial"",""time""
""fullscreenenter"",""1"",""11514""
","
","
","""event"",""trial"",""time""
""fullscreenenter"",""1"",""11514""
","
","","","","","","265","<p> Importantly, each farm animal belongs in one of the barns. </p><p> If you choose the correct barn, the farm animal will return home safely and will be more likely to be happy! </p>","","0","instructions","","","","","","","","","","","","","",""
"learning-instructions","82","448833","0.0-9.0-1.0-0.6","1525","1","2","""event"",""trial"",""time""
""fullscreenenter"",""1"",""11514""
","
","
","""event"",""trial"",""time""
""fullscreenenter"",""1"",""11514""
","
","","","","","","3507","<p> However, even if you choose the correct barn for the farm animal, it might still feel sad. </p><p> Similarly, even if you choose the <i>wrong</i> barn, it might still feel happy.","","0","instructions","","","","","","","","","","","","","",""
"learning-instructions","83","463257","0.0-9.0-1.0-0.7","1525","1","2","""event"",""trial"",""time""
""fullscreenenter"",""1"",""11514""
","
","
","""event"",""trial"",""time""
""fullscreenenter"",""1"",""11514""
","
","","","","","","731","<p> Try to choose the correct barn for each farm animal, because you will <b> WIN </b> 1 point for each farm animal you make happy and <b>LOSE</b> 1 point for each farm animal you make sad. </p><p> Your bonus payment will depend on your total number of points.","","0","instructions","","","","","","","","","","","","","",""
"learning-instructions","84","471924","0.0-9.0-1.0-0.8","1525","1","2","""event"",""trial"",""time""
""fullscreenenter"",""1"",""11514""
","
","
","""event"",""trial"",""time""
""fullscreenenter"",""1"",""11514""
","
","","","","","","562","<p> The position of each barn will change throughout the round. </p><p> The barn's position <i> does not </i> influence how likely it is to be the correct one. </p>","","0","instructions","","","","","","","","","","","","","",""
"learning-instructions","85","481782","0.0-9.0-1.0-0.9","1525","1","2","""event"",""trial"",""time""
""fullscreenenter"",""1"",""11514""
","
","
","""event"",""trial"",""time""
""fullscreenenter"",""1"",""11514""
","
","","","","","","572","<p> You will have 4 seconds to make each choice. Try to respond before time runs out! </p><p> You will lose 1 point each time you do not make a response. </p>","","0","instructions","","","","","","","","","","","","","",""
"html-keyboard-response","86","482384","0.0-9.0-2.0-0.0","1525","1","2","""event"",""trial"",""time""
""fullscreenenter"",""1"",""11514""
","
","
","""event"",""trial"",""time""
""fullscreenenter"",""1"",""11514""
","
","","","","","","null","<div style=""font-size:60px;"">+</div>","null","","fixation","","","","","","","","","","","","","",""
"learning-trial","87","486387","0.0-9.0-2.0-1.0","1525","1","2","""event"",""trial"",""time""
""fullscreenenter"",""1"",""11514""
","
","
","""event"",""trial"",""time""
""fullscreenenter"",""1"",""11514""
","
","","","","","","1643","images/goat5.png","","","learning","images/animals_choice3.png","images/animals_choice1.png","images/animals_choice2.png","[2,0,1]","0","1","1","images/animals_choice3.png","-1","animals","","goat","1","0"
"html-keyboard-response","88","486889","0.0-9.0-2.0-0.1","1525","1","2","""event"",""trial"",""time""
""fullscreenenter"",""1"",""11514""
","
","
","""event"",""trial"",""time""
""fullscreenenter"",""1"",""11514""
","
","","","","","","null","<div style=""font-size:60px;"">+</div>","null","","fixation","","","","","","","","","","","","","",""
"learning-trial","89","490891","0.0-9.0-2.0-1.1","1525","1","2","""event"",""trial"",""time""
""fullscreenenter"",""1"",""11514""
","
","
","""event"",""trial"",""time""
""fullscreenenter"",""1"",""11514""
","
","","","","","","1370.9999999999418","images/horse4.png","","","learning","images/animals_choice3.png","images/animals_choice1.png","images/animals_choice2.png","[2,0,1]","2","0","2","images/animals_choice1.png","1","animals","","horse","1","0"
"html-keyboard-response","90","491392","0.0-9.0-2.0-0.2","1525","1","2","""event"",""trial"",""time""
""fullscreenenter"",""1"",""11514""
","
","
","""event"",""trial"",""time""
""fullscreenenter"",""1"",""11514""
","
","","","","","","null","<div style=""font-size:60px;"">+</div>","null","","fixation","","","","","","","","","","","","","",""
"learning-trial","91","495394","0.0-9.0-2.0-1.2","1525","1","2","""event"",""trial"",""time""
""fullscreenenter"",""1"",""11514""
","
","
","""event"",""trial"",""time""
""fullscreenenter"",""1"",""11514""
","
","","","","","","1660","images/goat5.png","","","learning","images/animals_choice3.png","images/animals_choice2.png","images/animals_choice1.png","[2,1,0]","0","2","2","images/animals_choice2.png","1","animals","","goat","1","0"
"html-keyboard-response","92","495895","0.0-9.0-2.0-0.3","1525","1","2","""event"",""trial"",""time""
""fullscreenenter"",""1"",""11514""
","
","
","""event"",""trial"",""time""
""fullscreenenter"",""1"",""11514""
","
","","","","","","null","<div style=""font-size:60px;"">+</div>","null","","fixation","","","","","","","","","","","","","",""
"learning-trial","93","499898","0.0-9.0-2.0-1.3","1525","1","2","""event"",""trial"",""time""
""fullscreenenter"",""1"",""11514""
","
","
","""event"",""trial"",""time""
""fullscreenenter"",""1"",""11514""
","
","","","","","","1197","images/cow3.png","","","learning","images/animals_choice3.png","images/animals_choice2.png","images/animals_choice1.png","[2,1,0]","1","1","1","images/animals_choice3.png","1","animals","","cow","1","0"
"html-keyboard-response","94","500399","0.0-9.0-2.0-0.4","1525","1","2","""event"",""trial"",""time""
""fullscreenenter"",""1"",""11514""
","
","
","""event"",""trial"",""time""
""fullscreenenter"",""1"",""11514""
","
","","","","","","null","<div style=""font-size:60px;"">+</div>","null","","fixation","","","","","","","","","","","","","",""
"learning-trial","95","504401","0.0-9.0-2.0-1.4","1525","1","2","""event"",""trial"",""time""
""fullscreenenter"",""1"",""11514""
","
","
","""event"",""trial"",""time""
""fullscreenenter"",""1"",""11514""
","
","","","","","","1909","images/goat4.png","","","learning","images/animals_choice1.png","images/animals_choice2.png","images/animals_choice3.png","[0,1,2]","0","0","2","images/animals_choice2.png","-1","animals","","goat","1","0"
"html-keyboard-response","96","504903","0.0-9.0-2.0-0.5","1525","1","2","""event"",""trial"",""time""
""fullscreenenter"",""1"",""11514""
","
","
","""event"",""trial"",""time""
""fullscreenenter"",""1"",""11514""
","
","","","","","","null","<div style=""font-size:60px;"">+</div>","null","","fixation","","","","","","","","","","","","","",""
"learning-trial","97","508905","0.0-9.0-2.0-1.5","1525","1","2","""event"",""trial"",""time""
""fullscreenenter"",""1"",""11514""
","
","
","""event"",""trial"",""time""
""fullscreenenter"",""1"",""11514""
","
","","","","","","1805","images/goat1.png","","","learning","images/animals_choice1.png","images/animals_choice2.png","images/animals_choice3.png","[0,1,2]","0","0","2","images/animals_choice2.png","-1","animals","","goat","1","0"
"html-keyboard-response","98","509407","0.0-9.0-2.0-0.6","1525","1","2","""event"",""trial"",""time""
""fullscreenenter"",""1"",""11514""
","
","
","""event"",""trial"",""time""
""fullscreenenter"",""1"",""11514""
","
","","","","","","null","<div style=""font-size:60px;"">+</div>","null","","fixation","","","","","","","","","","","","","",""
"learning-trial","99","513409","0.0-9.0-2.0-1.6","1525","1","2","""event"",""trial"",""time""
""fullscreenenter"",""1"",""11514""
","
","
","""event"",""trial"",""time""
""fullscreenenter"",""1"",""11514""
","
","","","","","","1733","images/cow1.png","","","learning","images/animals_choice2.png","images/animals_choice3.png","images/animals_choice1.png","[1,2,0]","1","0","3","images/animals_choice1.png","-1","animals","","cow","1","0"
"html-keyboard-response","100","513911","0.0-9.0-2.0-0.7","1525","1","2","""event"",""trial"",""time""
""fullscreenenter"",""1"",""11514""
","
","
","""event"",""trial"",""time""
""fullscreenenter"",""1"",""11514""
","
","","","","","","null","<div style=""font-size:60px;"">+</div>","null","","fixation","","","","","","","","","","","","","",""
"learning-trial","101","517913","0.0-9.0-2.0-1.7","1525","1","2","""event"",""trial"",""time""
""fullscreenenter"",""1"",""11514""
","
","
","""event"",""trial"",""time""
""fullscreenenter"",""1"",""11514""
","
","","","","","","1484","images/goat5.png","","","learning","images/animals_choice2.png","images/animals_choice3.png","images/animals_choice1.png","[1,2,0]","0","2","2","images/animals_choice3.png","-1","animals","","goat","1","0"
"html-keyboard-response","102","518414","0.0-9.0-2.0-0.8","1525","1","2","""event"",""trial"",""time""
""fullscreenenter"",""1"",""11514""
","
","
","""event"",""trial"",""time""
""fullscreenenter"",""1"",""11514""
","
","","","","","","null","<div style=""font-size:60px;"">+</div>","null","","fixation","","","","","","","","","","","","","",""
"learning-trial","103","522417","0.0-9.0-2.0-1.8","1525","1","2","""event"",""trial"",""time""
""fullscreenenter"",""1"",""11514""
","
","
","""event"",""trial"",""time""
""fullscreenenter"",""1"",""11514""
","
","","","","","","1366","images/cow5.png","","","learning","images/animals_choice3.png","images/animals_choice1.png","images/animals_choice2.png","[2,0,1]","1","2","3","images/animals_choice2.png","1","animals","","cow","1","0"
"html-keyboard-response","104","522918","0.0-9.0-2.0-0.9","1525","1","2","""event"",""trial"",""time""
""fullscreenenter"",""1"",""11514""
","
","
","""event"",""trial"",""time""
""fullscreenenter"",""1"",""11514""
","
","","","","","","null","<div style=""font-size:60px;"">+</div>","null","","fixation","","","","","","","","","","","","","",""
"learning-trial","105","526920","0.0-9.0-2.0-1.9","1525","1","2","""event"",""trial"",""time""
""fullscreenenter"",""1"",""11514""
","
","
","""event"",""trial"",""time""
""fullscreenenter"",""1"",""11514""
","
","","","","","","1055.9999999999418","images/goat1.png","","","learning","images/animals_choice3.png","images/animals_choice2.png","images/animals_choice1.png","[2,1,0]","0","2","1","images/animals_choice3.png","-1","animals","","goat","1","0"
"html-keyboard-response","106","527421","0.0-9.0-2.0-0.10","1525","1","2","""event"",""trial"",""time""
""fullscreenenter"",""1"",""11514""
","
","
","""event"",""trial"",""time""
""fullscreenenter"",""1"",""11514""
","
","","","","","","null","<div style=""font-size:60px;"">+</div>","null","","fixation","","","","","","","","","","","","","",""
"learning-trial","107","531424","0.0-9.0-2.0-1.10","1525","1","2","""event"",""trial"",""time""
""fullscreenenter"",""1"",""11514""
","
","
","""event"",""trial"",""time""
""fullscreenenter"",""1"",""11514""
","
","","","","","","857","images/goat1.png","","","learning","images/animals_choice3.png","images/animals_choice1.png","images/animals_choice2.png","[2,0,1]","0","1","2","images/animals_choice1.png","1","animals","","goat","1","0"
"html-keyboard-response","108","531925","0.0-9.0-2.0-0.11","1525","1","2","""event"",""trial"",""time""
""fullscreenenter"",""1"",""11514""
","
","
","""event"",""trial"",""time""
""fullscreenenter"",""1"",""11514""
","
","","","","","","null","<div style=""font-size:60px;"">+</div>","null","","fixation","","","","","","","","","","","","","",""
"learning-trial","109","535928","0.0-9.0-2.0-1.11","1525","1","2","""event"",""trial"",""time""
""fullscreenenter"",""1"",""11514""
","
","
","""event"",""trial"",""time""
""fullscreenenter"",""1"",""11514""
","
","","","","","","1329","images/goat4.png","","","learning","images/animals_choice2.png","images/animals_choice3.png","images/animals_choice1.png","[1,2,0]","0","2","1","images/animals_choice2.png","-1","animals","","goat","1","0"
"html-keyboard-response","110","536429","0.0-9.0-2.0-0.12","1525","1","2","""event"",""trial"",""time""
""fullscreenenter"",""1"",""11514""
","
","
","""event"",""trial"",""time""
""fullscreenenter"",""1"",""11514""
","
","","","","","","null","<div style=""font-size:60px;"">+</div>","null","","fixation","","","","","","","","","","","","","",""
"learning-trial","111","540432","0.0-9.0-2.0-1.12","1525","1","2","""event"",""trial"",""time""
""fullscreenenter"",""1"",""11514""
","
","
","""event"",""trial"",""time""
""fullscreenenter"",""1"",""11514""
","
","","","","","","1478.0000000001164","images/horse3.png","","","learning","images/animals_choice1.png","images/animals_choice3.png","images/animals_choice2.png","[0,2,1]","2","1","1","images/animals_choice1.png","-1","animals","","horse","1","0"
"html-keyboard-response","112","540933","0.0-9.0-2.0-0.13","1525","1","2","""event"",""trial"",""time""
""fullscreenenter"",""1"",""11514""
","
","
","""event"",""trial"",""time""
""fullscreenenter"",""1"",""11514""
","
","","","","","","null","<div style=""font-size:60px;"">+</div>","null","","fixation","","","","","","","","","","","","","",""
"learning-trial","113","544935","0.0-9.0-2.0-1.13","1525","1","2","""event"",""trial"",""time""
""fullscreenenter"",""1"",""11514""
","
","
","""event"",""trial"",""time""
""fullscreenenter"",""1"",""11514""
","
","","","","","","713","images/horse2.png","","","learning","images/animals_choice3.png","images/animals_choice2.png","images/animals_choice1.png","[2,1,0]","2","0","3","images/animals_choice1.png","-1","animals","","horse","1","0"
"html-keyboard-response","114","545437","0.0-9.0-2.0-0.14","1525","1","2","""event"",""trial"",""time""
""fullscreenenter"",""1"",""11514""
","
","
","""event"",""trial"",""time""
""fullscreenenter"",""1"",""11514""
","
","","","","","","null","<div style=""font-size:60px;"">+</div>","null","","fixation","","","","","","","","","","","","","",""
"learning-trial","115","549438","0.0-9.0-2.0-1.14","1525","1","2","""event"",""trial"",""time""
""fullscreenenter"",""1"",""11514""
","
","
","""event"",""trial"",""time""
""fullscreenenter"",""1"",""11514""
","
","","","","","","272.9999999998836","images/cow1.png","","","learning","images/animals_choice1.png","images/animals_choice2.png","images/animals_choice3.png","[0,1,2]","1","1","2","images/animals_choice2.png","1","animals","","cow","1","0"
"html-keyboard-response","116","549939","0.0-9.0-2.0-0.15","1525","1","2","""event"",""trial"",""time""
""fullscreenenter"",""1"",""11514""
","
","
","""event"",""trial"",""time""
""fullscreenenter"",""1"",""11514""
","
","","","","","","null","<div style=""font-size:60px;"">+</div>","null","","fixation","","","","","","","","","","","","","",""
"learning-trial","117","553942","0.0-9.0-2.0-1.15","1525","1","2","""event"",""trial"",""time""
""fullscreenenter"",""1"",""11514""
","
","
","""event"",""trial"",""time""
""fullscreenenter"",""1"",""11514""
","
","","","","","","651","images/goat4.png","","","learning","images/animals_choice3.png","images/animals_choice2.png","images/animals_choice1.png","[2,1,0]","0","2","2","images/animals_choice2.png","-1","animals","","goat","1","0"
"html-keyboard-response","118","554443","0.0-9.0-2.0-0.16","1525","1","2","""event"",""trial"",""time""
""fullscreenenter"",""1"",""11514""
","
","
","""event"",""trial"",""time""
""fullscreenenter"",""1"",""11514""
","
","","","","","","null","<div style=""font-size:60px;"">+</div>","null","","fixation","","","","","","","","","","","","","",""
"learning-trial","119","558446","0.0-9.0-2.0-1.16","1525","1","2","""event"",""trial"",""time""
""fullscreenenter"",""1"",""11514""
","
","
","""event"",""trial"",""time""
""fullscreenenter"",""1"",""11514""
","
","","","","","","330","images/goat4.png","","","learning","images/animals_choice2.png","images/animals_choice3.png","images/animals_choice1.png","[1,2,0]","0","2","3","images/animals_choice1.png","1","animals","","goat","1","0"
"html-keyboard-response","120","558948","0.0-9.0-2.0-0.17","1525","1","2","""event"",""trial"",""time""
""fullscreenenter"",""1"",""11514""
","
","
","""event"",""trial"",""time""
""fullscreenenter"",""1"",""11514""
","
","","","","","","null","<div style=""font-size:60px;"">+</div>","null","","fixation","","","","","","","","","","","","","",""
"learning-trial","121","562950","0.0-9.0-2.0-1.17","1525","1","2","""event"",""trial"",""time""
""fullscreenenter"",""1"",""11514""
","
","
","""event"",""trial"",""time""
""fullscreenenter"",""1"",""11514""
","
","","","","","","1771","images/cow5.png","","","learning","images/animals_choice1.png","images/animals_choice2.png","images/animals_choice3.png","[0,1,2]","1","1","3","images/animals_choice3.png","-1","animals","","cow","1","0"
"html-keyboard-response","122","563452","0.0-9.0-2.0-0.18","1525","1","2","""event"",""trial"",""time""
""fullscreenenter"",""1"",""11514""
","
","
","""event"",""trial"",""time""
""fullscreenenter"",""1"",""11514""
","
","","","","","","null","<div style=""font-size:60px;"">+</div>","null","","fixation","","","","","","","","","","","","","",""
"learning-trial","123","567453","0.0-9.0-2.0-1.18","1525","1","2","""event"",""trial"",""time""
""fullscreenenter"",""1"",""11514""
","
","
","""event"",""trial"",""time""
""fullscreenenter"",""1"",""11514""
","
","","","","","","1218","images/horse3.png","","","learning","images/animals_choice3.png","images/animals_choice2.png","images/animals_choice1.png","[2,1,0]","2","0","3","images/animals_choice1.png","1","animals","","horse","1","0"
"html-keyboard-response","124","567955","0.0-9.0-2.0-0.19","1525","1","2","""event"",""trial"",""time""
""fullscreenenter"",""1"",""11514""
","
","
","""event"",""trial"",""time""
""fullscreenenter"",""1"",""11514""
","
","","","","","","null","<div style=""font-size:60px;"">+</div>","null","","fixation","","","","","","","","","","","","","",""
"learning-trial","125","571957","0.0-9.0-2.0-1.19","1525","1","2","""event"",""trial"",""time""
""fullscreenenter"",""1"",""11514""
","
","
","""event"",""trial"",""time""
""fullscreenenter"",""1"",""11514""
","
","","","","","","1215","images/horse2.png","","","learning","images/animals_choice1.png","images/animals_choice2.png","images/animals_choice3.png","[0,1,2]","2","2","1","images/animals_choice1.png","-1","animals","","horse","1","0"
"html-keyboard-response","126","572459","0.0-9.0-2.0-0.20","1525","1","2","""event"",""trial"",""time""
""fullscreenenter"",""1"",""11514""
","
","
","""event"",""trial"",""time""
""fullscreenenter"",""1"",""11514""
","
","","","","","","null","<div style=""font-size:60px;"">+</div>","null","","fixation","","","","","","","","","","","","","",""
"learning-trial","127","576462","0.0-9.0-2.0-1.20","1525","1","2","""event"",""trial"",""time""
""fullscreenenter"",""1"",""11514""
","
","
","""event"",""trial"",""time""
""fullscreenenter"",""1"",""11514""
","
","","","","","","1489","images/goat5.png","","","learning","images/animals_choice2.png","images/animals_choice3.png","images/animals_choice1.png","[1,2,0]","0","2","1","images/animals_choice2.png","-1","animals","","goat","1","0"
"html-keyboard-response","128","576963","0.0-9.0-2.0-0.21","1525","1","2","""event"",""trial"",""time""
""fullscreenenter"",""1"",""11514""
","
","
","""event"",""trial"",""time""
""fullscreenenter"",""1"",""11514""
","
","","","","","","null","<div style=""font-size:60px;"">+</div>","null","","fixation","","","","","","","","","","","","","",""
"learning-trial","129","580965","0.0-9.0-2.0-1.21","1525","1","2","""event"",""trial"",""time""
""fullscreenenter"",""1"",""11514""
","
","
","""event"",""trial"",""time""
""fullscreenenter"",""1"",""11514""
","
","","","","","","734","images/cow3.png","","","learning","images/animals_choice3.png","images/animals_choice2.png","images/animals_choice1.png","[2,1,0]","1","1","3","images/animals_choice1.png","-1","animals","","cow","1","0"
"html-keyboard-response","130","581466","0.0-9.0-2.0-0.22","1525","1","2","""event"",""trial"",""time""
""fullscreenenter"",""1"",""11514""
","
","
","""event"",""trial"",""time""
""fullscreenenter"",""1"",""11514""
","
","","","","","","null","<div style=""font-size:60px;"">+</div>","null","","fixation","","","","","","","","","","","","","",""
"learning-trial","131","585468","0.0-9.0-2.0-1.22","1525","1","2","""event"",""trial"",""time""
""fullscreenenter"",""1"",""11514""
","
","
","""event"",""trial"",""time""
""fullscreenenter"",""1"",""11514""
","
","","","","","","317.0000000001164","images/goat4.png","","","learning","images/animals_choice2.png","images/animals_choice1.png","images/animals_choice3.png","[1,0,2]","0","1","2","images/animals_choice1.png","1","animals","","goat","1","0"
"html-keyboard-response","132","585968","0.0-9.0-2.0-0.23","1525","1","2","""event"",""trial"",""time""
""fullscreenenter"",""1"",""11514""
","
","
","""event"",""trial"",""time""
""fullscreenenter"",""1"",""11514""
","
","","","","","","null","<div style=""font-size:60px;"">+</div>","null","","fixation","","","","","","","","","","","","","",""
"learning-trial","133","589971","0.0-9.0-2.0-1.23","1525","1","2","""event"",""trial"",""time""
""fullscreenenter"",""1"",""11514""
","
","
","""event"",""trial"",""time""
""fullscreenenter"",""1"",""11514""
","
","","","","","","1467","images/horse4.png","","","learning","images/animals_choice2.png","images/animals_choice3.png","images/animals_choice1.png","[1,2,0]","2","1","2","images/animals_choice3.png","1","animals","","horse","1","0"
"html-keyboard-response","134","590472","0.0-9.0-2.0-0.24","1525","1","2","""event"",""trial"",""time""
""fullscreenenter"",""1"",""11514""
","
","
","""event"",""trial"",""time""
""fullscreenenter"",""1"",""11514""
","
","","","","","","null","<div style=""font-size:60px;"">+</div>","null","","fixation","","","","","","","","","","","","","",""
"learning-trial","135","594475","0.0-9.0-2.0-1.24","1525","1","2","""event"",""trial"",""time""
""fullscreenenter"",""1"",""11514""
","
","
","""event"",""trial"",""time""
""fullscreenenter"",""1"",""11514""
","
","","","","","","987","images/horse3.png","","","learning","images/animals_choice1.png","images/animals_choice2.png","images/animals_choice3.png","[0,1,2]","2","2","1","images/animals_choice1.png","-1","animals","","horse","1","0"
"html-keyboard-response","136","594976","0.0-9.0-2.0-0.25","1525","1","2","""event"",""trial"",""time""
""fullscreenenter"",""1"",""11514""
","
","
","""event"",""trial"",""time""
""fullscreenenter"",""1"",""11514""
","
","","","","","","null","<div style=""font-size:60px;"">+</div>","null","","fixation","","","","","","","","","","","","","",""
"learning-trial","137","598978","0.0-9.0-2.0-1.25","1525","1","2","""event"",""trial"",""time""
""fullscreenenter"",""1"",""11514""
","
","
","""event"",""trial"",""time""
""fullscreenenter"",""1"",""11514""
","
","","","","","","958","images/cow1.png","","","learning","images/animals_choice1.png","images/animals_choice2.png","images/animals_choice3.png","[0,1,2]","1","1","3","images/animals_choice3.png","-1","animals","","cow","1","0"
"html-keyboard-response","138","599480","0.0-9.0-2.0-0.26","1525","1","2","""event"",""trial"",""time""
""fullscreenenter"",""1"",""11514""
","
","
","""event"",""trial"",""time""
""fullscreenenter"",""1"",""11514""
","
","","","","","","null","<div style=""font-size:60px;"">+</div>","null","","fixation","","","","","","","","","","","","","",""
"learning-trial","139","603482","0.0-9.0-2.0-1.26","1525","1","2","""event"",""trial"",""time""
""fullscreenenter"",""1"",""11514""
","
","
","""event"",""trial"",""time""
""fullscreenenter"",""1"",""11514""
","
","","","","","","826","images/cow3.png","","","learning","images/animals_choice3.png","images/animals_choice2.png","images/animals_choice1.png","[2,1,0]","1","1","2","images/animals_choice2.png","1","animals","","cow","1","0"
"html-keyboard-response","140","603983","0.0-9.0-2.0-0.27","1525","1","2","""event"",""trial"",""time""
""fullscreenenter"",""1"",""11514""
","
","
","""event"",""trial"",""time""
""fullscreenenter"",""1"",""11514""
","
","","","","","","null","<div style=""font-size:60px;"">+</div>","null","","fixation","","","","","","","","","","","","","",""
"learning-trial","141","607984","0.0-9.0-2.0-1.27","1525","1","2","""event"",""trial"",""time""
""fullscreenenter"",""1"",""11514""
","
","
","""event"",""trial"",""time""
""fullscreenenter"",""1"",""11514""
","
","","","","","","1130","images/cow3.png","","","learning","images/animals_choice1.png","images/animals_choice3.png","images/animals_choice2.png","[0,2,1]","1","2","3","images/animals_choice2.png","1","animals","","cow","1","0"
"html-keyboard-response","142","608486","0.0-9.0-2.0-0.28","1525","1","2","""event"",""trial"",""time""
""fullscreenenter"",""1"",""11514""
","
","
","""event"",""trial"",""time""
""fullscreenenter"",""1"",""11514""
","
","","","","","","null","<div style=""font-size:60px;"">+</div>","null","","fixation","","","","","","","","","","","","","",""
"learning-trial","143","612488","0.0-9.0-2.0-1.28","1525","1","2","""event"",""trial"",""time""
""fullscreenenter"",""1"",""11514""
","
","
","""event"",""trial"",""time""
""fullscreenenter"",""1"",""11514""
","
","","","","","","815.9999999998836","images/horse3.png","","","learning","images/animals_choice1.png","images/animals_choice3.png","images/animals_choice2.png","[0,2,1]","2","1","1","images/animals_choice1.png","-1","animals","","horse","1","0"
"html-keyboard-response","144","612990","0.0-9.0-2.0-0.29","1525","1","2","""event"",""trial"",""time""
""fullscreenenter"",""1"",""11514""
","
","
","""event"",""trial"",""time""
""fullscreenenter"",""1"",""11514""
","
","","","","","","null","<div style=""font-size:60px;"">+</div>","null","","fixation","","","","","","","","","","","","","",""
"learning-trial","145","616993","0.0-9.0-2.0-1.29","1525","1","2","""event"",""trial"",""time""
""fullscreenenter"",""1"",""11514""
","
","
","""event"",""trial"",""time""
""fullscreenenter"",""1"",""11514""
","
","","","","","","908","images/cow5.png","","","learning","images/animals_choice3.png","images/animals_choice1.png","images/animals_choice2.png","[2,0,1]","1","2","3","images/animals_choice2.png","1","animals","","cow","1","0"
"html-keyboard-response","146","617494","0.0-9.0-2.0-0.30","1525","1","2","""event"",""trial"",""time""
""fullscreenenter"",""1"",""11514""
","
","
","""event"",""trial"",""time""
""fullscreenenter"",""1"",""11514""
","
","","","","","","null","<div style=""font-size:60px;"">+</div>","null","","fixation","","","","","","","","","","","","","",""
"learning-trial","147","621496","0.0-9.0-2.0-1.30","1525","1","2","""event"",""trial"",""time""
""fullscreenenter"",""1"",""11514""
","
","
","""event"",""trial"",""time""
""fullscreenenter"",""1"",""11514""
","
","","","","","","1233","images/horse4.png","","","learning","images/animals_choice3.png","images/animals_choice2.png","images/animals_choice1.png","[2,1,0]","2","0","3","images/animals_choice1.png","-1","animals","","horse","1","0"
"html-keyboard-response","148","621998","0.0-9.0-2.0-0.31","1525","1","2","""event"",""trial"",""time""
""fullscreenenter"",""1"",""11514""
","
","
","""event"",""trial"",""time""
""fullscreenenter"",""1"",""11514""
","
","","","","","","null","<div style=""font-size:60px;"">+</div>","null","","fixation","","","","","","","","","","","","","",""
"learning-trial","149","625999","0.0-9.0-2.0-1.31","1525","1","2","""event"",""trial"",""time""
""fullscreenenter"",""1"",""11514""
","
","
","""event"",""trial"",""time""
""fullscreenenter"",""1"",""11514""
","
","","","","","","1203","images/cow5.png","","","learning","images/animals_choice2.png","images/animals_choice3.png","images/animals_choice1.png","[1,2,0]","1","0","1","images/animals_choice2.png","-1","animals","","cow","1","0"
"html-keyboard-response","150","626501","0.0-9.0-2.0-0.32","1525","1","2","""event"",""trial"",""time""
""fullscreenenter"",""1"",""11514""
","
","
","""event"",""trial"",""time""
""fullscreenenter"",""1"",""11514""
","
","","","","","","null","<div style=""font-size:60px;"">+</div>","null","","fixation","","","","","","","","","","","","","",""
"learning-trial","151","630502","0.0-9.0-2.0-1.32","1525","1","2","""event"",""trial"",""time""
""fullscreenenter"",""1"",""11514""
","
","
","""event"",""trial"",""time""
""fullscreenenter"",""1"",""11514""
","
","","","","","","1030","images/cow3.png","","","learning","images/animals_choice2.png","images/animals_choice3.png","images/animals_choice1.png","[1,2,0]","1","0","1","images/animals_choice2.png","1","animals","","cow","1","0"
"html-keyboard-response","152","631004","0.0-9.0-2.0-0.33","1525","1","2","""event"",""trial"",""time""
""fullscreenenter"",""1"",""11514""
","
","
","""event"",""trial"",""time""
""fullscreenenter"",""1"",""11514""
","
","","","","","","null","<div style=""font-size:60px;"">+</div>","null","","fixation","","","","","","","","","","","","","",""
"learning-trial","153","635006","0.0-9.0-2.0-1.33","1525","1","2","""event"",""trial"",""time""
""fullscreenenter"",""1"",""11514""
","
","
","""event"",""trial"",""time""
""fullscreenenter"",""1"",""11514""
","
","","","","","","1244","images/cow1.png","","","learning","images/animals_choice1.png","images/animals_choice3.png","images/animals_choice2.png","[0,2,1]","1","2","3","images/animals_choice2.png","1","animals","","cow","1","0"
"html-keyboard-response","154","635508","0.0-9.0-2.0-0.34","1525","1","2","""event"",""trial"",""time""
""fullscreenenter"",""1"",""11514""
","
","
","""event"",""trial"",""time""
""fullscreenenter"",""1"",""11514""
","
","","","","","","null","<div style=""font-size:60px;"">+</div>","null","","fixation","","","","","","","","","","","","","",""
"learning-trial","155","639511","0.0-9.0-2.0-1.34","1525","1","2","""event"",""trial"",""time""
""fullscreenenter"",""1"",""11514""
","
","
","""event"",""trial"",""time""
""fullscreenenter"",""1"",""11514""
","
","","","","","","1568","images/goat1.png","","","learning","images/animals_choice3.png","images/animals_choice1.png","images/animals_choice2.png","[2,0,1]","0","1","1","images/animals_choice3.png","-1","animals","","goat","1","0"
"html-keyboard-response","156","640012","0.0-9.0-2.0-0.35","1525","1","2","""event"",""trial"",""time""
""fullscreenenter"",""1"",""11514""
","
","
","""event"",""trial"",""time""
""fullscreenenter"",""1"",""11514""
","
","","","","","","null","<div style=""font-size:60px;"">+</div>","null","","fixation","","","","","","","","","","","","","",""
"learning-trial","157","644014","0.0-9.0-2.0-1.35","1525","1","2","""event"",""trial"",""time""
""fullscreenenter"",""1"",""11514""
","
","
","""event"",""trial"",""time""
""fullscreenenter"",""1"",""11514""
","
","","","","","","1089","images/cow1.png","","","learning","images/animals_choice2.png","images/animals_choice1.png","images/animals_choice3.png","[1,0,2]","1","0","3","images/animals_choice3.png","-1","animals","","cow","1","0"
"html-keyboard-response","158","644515","0.0-9.0-2.0-0.36","1525","1","2","""event"",""trial"",""time""
""fullscreenenter"",""1"",""11514""
","
","
","""event"",""trial"",""time""
""fullscreenenter"",""1"",""11514""
","
","","","","","","null","<div style=""font-size:60px;"">+</div>","null","","fixation","","","","","","","","","","","","","",""
"learning-trial","159","648518","0.0-9.0-2.0-1.36","1525","1","2","""event"",""trial"",""time""
""fullscreenenter"",""1"",""11514""
","
","
","""event"",""trial"",""time""
""fullscreenenter"",""1"",""11514""
","
","","","","","","762.9999999998836","images/cow5.png","","","learning","images/animals_choice2.png","images/animals_choice1.png","images/animals_choice3.png","[1,0,2]","1","0","1","images/animals_choice2.png","1","animals","","cow","1","0"
"html-keyboard-response","160","649019","0.0-9.0-2.0-0.37","1525","1","2","""event"",""trial"",""time""
""fullscreenenter"",""1"",""11514""
","
","
","""event"",""trial"",""time""
""fullscreenenter"",""1"",""11514""
","
","","","","","","null","<div style=""font-size:60px;"">+</div>","null","","fixation","","","","","","","","","","","","","",""
"learning-trial","161","653022","0.0-9.0-2.0-1.37","1525","1","2","""event"",""trial"",""time""
""fullscreenenter"",""1"",""11514""
","
","
","""event"",""trial"",""time""
""fullscreenenter"",""1"",""11514""
","
","","","","","","775","images/cow1.png","","","learning","images/animals_choice2.png","images/animals_choice3.png","images/animals_choice1.png","[1,2,0]","1","0","1","images/animals_choice2.png","1","animals","","cow","1","0"
"html-keyboard-response","162","653522","0.0-9.0-2.0-0.38","1525","1","2","""event"",""trial"",""time""
""fullscreenenter"",""1"",""11514""
","
","
","""event"",""trial"",""time""
""fullscreenenter"",""1"",""11514""
","
","","","","","","null","<div style=""font-size:60px;"">+</div>","null","","fixation","","","","","","","","","","","","","",""
"learning-trial","163","657525","0.0-9.0-2.0-1.38","1525","1","2","""event"",""trial"",""time""
""fullscreenenter"",""1"",""11514""
","
","
","""event"",""trial"",""time""
""fullscreenenter"",""1"",""11514""
","
","","","","","","1230","images/goat4.png","","","learning","images/animals_choice1.png","images/animals_choice2.png","images/animals_choice3.png","[0,1,2]","0","0","3","images/animals_choice3.png","-1","animals","","goat","1","0"
"html-keyboard-response","164","658027","0.0-9.0-2.0-0.39","1525","1","2","""event"",""trial"",""time""
""fullscreenenter"",""1"",""11514""
","
","
","""event"",""trial"",""time""
""fullscreenenter"",""1"",""11514""
","
","","","","","","null","<div style=""font-size:60px;"">+</div>","null","","fixation","","","","","","","","","","","","","",""
"learning-trial","165","662030","0.0-9.0-2.0-1.39","1525","1","2","""event"",""trial"",""time""
""fullscreenenter"",""1"",""11514""
","
","
","""event"",""trial"",""time""
""fullscreenenter"",""1"",""11514""
","
","","","","","","2069","images/horse4.png","","","learning","images/animals_choice2.png","images/animals_choice3.png","images/animals_choice1.png","[1,2,0]","2","1","2","images/animals_choice3.png","1","animals","","horse","1","0"
"html-keyboard-response","166","662531","0.0-9.0-2.0-0.40","1525","1","2","""event"",""trial"",""time""
""fullscreenenter"",""1"",""11514""
","
","
","""event"",""trial"",""time""
""fullscreenenter"",""1"",""11514""
","
","","","","","","null","<div style=""font-size:60px;"">+</div>","null","","fixation","","","","","","","","","","","","","",""
"learning-trial","167","666534","0.0-9.0-2.0-1.40","1525","1","2","""event"",""trial"",""time""
""fullscreenenter"",""1"",""11514""
","
","
","""event"",""trial"",""time""
""fullscreenenter"",""1"",""11514""
","
","","","","","","1037","images/horse4.png","","","learning","images/animals_choice3.png","images/animals_choice1.png","images/animals_choice2.png","[2,0,1]","2","0","1","images/animals_choice3.png","1","animals","","horse","1","0"
"html-keyboard-response","168","667035","0.0-9.0-2.0-0.41","1525","1","2","""event"",""trial"",""time""
""fullscreenenter"",""1"",""11514""
","
","
","""event"",""trial"",""time""
""fullscreenenter"",""1"",""11514""
","
","","","","","","null","<div style=""font-size:60px;"">+</div>","null","","fixation","","","","","","","","","","","","","",""
"learning-trial","169","671036","0.0-9.0-2.0-1.41","1525","1","2","""event"",""trial"",""time""
""fullscreenenter"",""1"",""11514""
","
","
","""event"",""trial"",""time""
""fullscreenenter"",""1"",""11514""
","
","","","","","","1609.9999999998836","images/horse3.png","","","learning","images/animals_choice3.png","images/animals_choice1.png","images/animals_choice2.png","[2,0,1]","2","0","1","images/animals_choice3.png","1","animals","","horse","1","0"
"html-keyboard-response","170","671538","0.0-9.0-2.0-0.42","1525","1","2","""event"",""trial"",""time""
""fullscreenenter"",""1"",""11514""
","
","
","""event"",""trial"",""time""
""fullscreenenter"",""1"",""11514""
","
","","","","","","null","<div style=""font-size:60px;"">+</div>","null","","fixation","","","","","","","","","","","","","",""
"learning-trial","171","675540","0.0-9.0-2.0-1.42","1525","1","2","""event"",""trial"",""time""
""fullscreenenter"",""1"",""11514""
","
","
","""event"",""trial"",""time""
""fullscreenenter"",""1"",""11514""
","
","","","","","","1100","images/cow5.png","","","learning","images/animals_choice3.png","images/animals_choice2.png","images/animals_choice1.png","[2,1,0]","1","1","2","images/animals_choice2.png","1","animals","","cow","1","0"
"html-keyboard-response","172","676042","0.0-9.0-2.0-0.43","1525","1","2","""event"",""trial"",""time""
""fullscreenenter"",""1"",""11514""
","
","
","""event"",""trial"",""time""
""fullscreenenter"",""1"",""11514""
","
","","","","","","null","<div style=""font-size:60px;"">+</div>","null","","fixation","","","","","","","","","","","","","",""
"learning-trial","173","680045","0.0-9.0-2.0-1.43","1525","1","2","""event"",""trial"",""time""
""fullscreenenter"",""1"",""11514""
","
","
","""event"",""trial"",""time""
""fullscreenenter"",""1"",""11514""
","
","","","","","","1467","images/cow3.png","","","learning","images/animals_choice1.png","images/animals_choice2.png","images/animals_choice3.png","[0,1,2]","1","1","3","images/animals_choice3.png","-1","animals","","cow","1","0"
"html-keyboard-response","174","680546","0.0-9.0-2.0-0.44","1525","1","2","""event"",""trial"",""time""
""fullscreenenter"",""1"",""11514""
","
","
","""event"",""trial"",""time""
""fullscreenenter"",""1"",""11514""
","
","","","","","","null","<div style=""font-size:60px;"">+</div>","null","","fixation","","","","","","","","","","","","","",""
"learning-trial","175","684548","0.0-9.0-2.0-1.44","1525","1","2","""event"",""trial"",""time""
""fullscreenenter"",""1"",""11514""
","
","
","""event"",""trial"",""time""
""fullscreenenter"",""1"",""11514""
","
","","","","","","1217","images/horse3.png","","","learning","images/animals_choice2.png","images/animals_choice1.png","images/animals_choice3.png","[1,0,2]","2","2","3","images/animals_choice3.png","1","animals","","horse","1","0"
"html-keyboard-response","176","685049","0.0-9.0-2.0-0.45","1525","1","2","""event"",""trial"",""time""
""fullscreenenter"",""1"",""11514""
","
","
","""event"",""trial"",""time""
""fullscreenenter"",""1"",""11514""
","
","","","","","","null","<div style=""font-size:60px;"">+</div>","null","","fixation","","","","","","","","","","","","","",""
"learning-trial","177","689051","0.0-9.0-2.0-1.45","1525","1","2","""event"",""trial"",""time""
""fullscreenenter"",""1"",""11514""
","
","
","""event"",""trial"",""time""
""fullscreenenter"",""1"",""11514""
","
","","","","","","1307","images/goat5.png","","","learning","images/animals_choice1.png","images/animals_choice2.png","images/animals_choice3.png","[0,1,2]","0","0","2","images/animals_choice2.png","-1","animals","","goat","1","0"
"html-keyboard-response","178","689552","0.0-9.0-2.0-0.46","1525","1","2","""event"",""trial"",""time""
""fullscreenenter"",""1"",""11514""
","
","
","""event"",""trial"",""time""
""fullscreenenter"",""1"",""11514""
","
","","","","","","null","<div style=""font-size:60px;"">+</div>","null","","fixation","","","","","","","","","","","","","",""
"learning-trial","179","693554","0.0-9.0-2.0-1.46","1525","1","2","""event"",""trial"",""time""
""fullscreenenter"",""1"",""11514""
","
","
","""event"",""trial"",""time""
""fullscreenenter"",""1"",""11514""
","
","","","","","","1671","images/goat1.png","","","learning","images/animals_choice1.png","images/animals_choice2.png","images/animals_choice3.png","[0,1,2]","0","0","2","images/animals_choice2.png","-1","animals","","goat","1","0"
"html-keyboard-response","180","694056","0.0-9.0-2.0-0.47","1525","1","2","""event"",""trial"",""time""
""fullscreenenter"",""1"",""11514""
","
","
","""event"",""trial"",""time""
""fullscreenenter"",""1"",""11514""
","
","","","","","","null","<div style=""font-size:60px;"">+</div>","null","","fixation","","","","","","","","","","","","","",""
"learning-trial","181","698058","0.0-9.0-2.0-1.47","1525","1","2","""event"",""trial"",""time""
""fullscreenenter"",""1"",""11514""
","
","
","""event"",""trial"",""time""
""fullscreenenter"",""1"",""11514""
","
","","","","","","1114","images/cow5.png","","","learning","images/animals_choice1.png","images/animals_choice3.png","images/animals_choice2.png","[0,2,1]","1","2","3","images/animals_choice2.png","1","animals","","cow","1","0"
"html-keyboard-response","182","698560","0.0-9.0-2.0-0.48","1525","1","2","""event"",""trial"",""time""
""fullscreenenter"",""1"",""11514""
","
","
","""event"",""trial"",""time""
""fullscreenenter"",""1"",""11514""
","
","","","","","","null","<div style=""font-size:60px;"">+</div>","null","","fixation","","","","","","","","","","","","","",""
"learning-trial","183","702562","0.0-9.0-2.0-1.48","1525","1","2","""event"",""trial"",""time""
""fullscreenenter"",""1"",""11514""
","
","
","""event"",""trial"",""time""
""fullscreenenter"",""1"",""11514""
","
","","","","","","1800.9999999998836","images/horse2.png","","","learning","images/animals_choice2.png","images/animals_choice1.png","images/animals_choice3.png","[1,0,2]","2","2","3","images/animals_choice3.png","1","animals","","horse","1","0"
"html-keyboard-response","184","703063","0.0-9.0-2.0-0.49","1525","1","2","""event"",""trial"",""time""
""fullscreenenter"",""1"",""11514""
","
","
","""event"",""trial"",""time""
""fullscreenenter"",""1"",""11514""
","
","","","","","","null","<div style=""font-size:60px;"">+</div>","null","","fixation","","","","","","","","","","","","","",""
"learning-trial","185","707065","0.0-9.0-2.0-1.49","1525","1","2","""event"",""trial"",""time""
""fullscreenenter"",""1"",""11514""
","
","
","""event"",""trial"",""time""
""fullscreenenter"",""1"",""11514""
","
","","","","","","1730","images/horse4.png","","","learning","images/animals_choice3.png","images/animals_choice1.png","images/animals_choice2.png","[2,0,1]","2","0","1","images/animals_choice3.png","-1","animals","","horse","1","0"
"html-keyboard-response","186","707567","0.0-9.0-2.0-0.50","1525","1","2","""event"",""trial"",""time""
""fullscreenenter"",""1"",""11514""
","
","
","""event"",""trial"",""time""
""fullscreenenter"",""1"",""11514""
","
","","","","","","null","<div style=""font-size:60px;"">+</div>","null","","fixation","","","","","","","","","","","","","",""
"learning-trial","187","711569","0.0-9.0-2.0-1.50","1525","1","2","""event"",""trial"",""time""
""fullscreenenter"",""1"",""11514""
","
","
","""event"",""trial"",""time""
""fullscreenenter"",""1"",""11514""
","
","","","","","","1649","images/goat1.png","","","learning","images/animals_choice3.png","images/animals_choice2.png","images/animals_choice1.png","[2,1,0]","0","2","2","images/animals_choice2.png","-1","animals","","goat","1","0"
"html-keyboard-response","188","712071","0.0-9.0-2.0-0.51","1525","1","2","""event"",""trial"",""time""
""fullscreenenter"",""1"",""11514""
","
","
","""event"",""trial"",""time""
""fullscreenenter"",""1"",""11514""
","
","","","","","","null","<div style=""font-size:60px;"">+</div>","null","","fixation","","","","","","","","","","","","","",""
"learning-trial","189","716072","0.0-9.0-2.0-1.51","1525","1","2","""event"",""trial"",""time""
""fullscreenenter"",""1"",""11514""
","
","
","""event"",""trial"",""time""
""fullscreenenter"",""1"",""11514""
","
","","","","","","1039","images/goat1.png","","","learning","images/animals_choice1.png","images/animals_choice3.png","images/animals_choice2.png","[0,2,1]","0","0","1","images/animals_choice1.png","1","animals","","goat","1","0"
"html-keyboard-response","190","716574","0.0-9.0-2.0-0.52","1525","1","2","""event"",""trial"",""time""
""fullscreenenter"",""1"",""11514""
","
","
","""event"",""trial"",""time""
""fullscreenenter"",""1"",""11514""
","
","","","","","","null","<div style=""font-size:60px;"">+</div>","null","","fixation","","","","","","","","","","","","","",""
"learning-trial","191","720577","0.0-9.0-2.0-1.52","1525","1","2","""event"",""trial"",""time""
""fullscreenenter"",""1"",""11514""
","
","
","""event"",""trial"",""time""
""fullscreenenter"",""1"",""11514""
","
","","","","","","1806","images/goat4.png","","","learning","images/animals_choice3.png","images/animals_choice1.png","images/animals_choice2.png","[2,0,1]","0","1","2","images/animals_choice1.png","1","animals","","goat","1","0"
"html-keyboard-response","192","721079","0.0-9.0-2.0-0.53","1525","1","2","""event"",""trial"",""time""
""fullscreenenter"",""1"",""11514""
","
","
","""event"",""trial"",""time""
""fullscreenenter"",""1"",""11514""
","
","","","","","","null","<div style=""font-size:60px;"">+</div>","null","","fixation","","","","","","","","","","","","","",""
"learning-trial","193","725081","0.0-9.0-2.0-1.53","1525","1","2","""event"",""trial"",""time""
""fullscreenenter"",""1"",""11514""
","
","
","""event"",""trial"",""time""
""fullscreenenter"",""1"",""11514""
","
","","","","","","1889.9999999998836","images/goat5.png","","","learning","images/animals_choice3.png","images/animals_choice2.png","images/animals_choice1.png","[2,1,0]","0","2","1","images/animals_choice3.png","-1","animals","","goat","1","0"
"html-keyboard-response","194","725583","0.0-9.0-2.0-0.54","1525","1","2","""event"",""trial"",""time""
""fullscreenenter"",""1"",""11514""
","
","
","""event"",""trial"",""time""
""fullscreenenter"",""1"",""11514""
","
","","","","","","null","<div style=""font-size:60px;"">+</div>","null","","fixation","","","","","","","","","","","","","",""
"learning-trial","195","729585","0.0-9.0-2.0-1.54","1525","1","2","""event"",""trial"",""time""
""fullscreenenter"",""1"",""11514""
","
","
","""event"",""trial"",""time""
""fullscreenenter"",""1"",""11514""
","
","","","","","","925","images/cow1.png","","","learning","images/animals_choice1.png","images/animals_choice2.png","images/animals_choice3.png","[0,1,2]","1","1","2","images/animals_choice2.png","-1","animals","","cow","1","0"
"html-keyboard-response","196","730086","0.0-9.0-2.0-0.55","1525","1","2","""event"",""trial"",""time""
""fullscreenenter"",""1"",""11514""
","
","
","""event"",""trial"",""time""
""fullscreenenter"",""1"",""11514""
","
","","","","","","null","<div style=""font-size:60px;"">+</div>","null","","fixation","","","","","","","","","","","","","",""
"learning-trial","197","734088","0.0-9.0-2.0-1.55","1525","1","2","""event"",""trial"",""time""
""fullscreenenter"",""1"",""11514""
","
","
","""event"",""trial"",""time""
""fullscreenenter"",""1"",""11514""
","
","","","","","","973","images/horse2.png","","","learning","images/animals_choice2.png","images/animals_choice1.png","images/animals_choice3.png","[1,0,2]","2","2","3","images/animals_choice3.png","1","animals","","horse","1","0"
"html-keyboard-response","198","734589","0.0-9.0-2.0-0.56","1525","1","2","""event"",""trial"",""time""
""fullscreenenter"",""1"",""11514""
","
","
","""event"",""trial"",""time""
""fullscreenenter"",""1"",""11514""
","
","","","","","","null","<div style=""font-size:60px;"">+</div>","null","","fixation","","","","","","","","","","","","","",""
"learning-trial","199","738592","0.0-9.0-2.0-1.56","1525","1","2","""event"",""trial"",""time""
""fullscreenenter"",""1"",""11514""
","
","
","""event"",""trial"",""time""
""fullscreenenter"",""1"",""11514""
","
","","","","","","1048","images/horse3.png","","","learning","images/animals_choice3.png","images/animals_choice2.png","images/animals_choice1.png","[2,1,0]","2","0","1","images/animals_choice3.png","1","animals","","horse","1","0"
"html-keyboard-response","200","739094","0.0-9.0-2.0-0.57","1525","1","2","""event"",""trial"",""time""
""fullscreenenter"",""1"",""11514""
","
","
","""event"",""trial"",""time""
""fullscreenenter"",""1"",""11514""
","
","","","","","","null","<div style=""font-size:60px;"">+</div>","null","","fixation","","","","","","","","","","","","","",""
"learning-trial","201","743095","0.0-9.0-2.0-1.57","1525","1","2","""event"",""trial"",""time""
""fullscreenenter"",""1"",""11514""
","
","
","""event"",""trial"",""time""
""fullscreenenter"",""1"",""11514""
","
","","","","","","1129","images/goat5.png","","","learning","images/animals_choice3.png","images/animals_choice1.png","images/animals_choice2.png","[2,0,1]","0","1","1","images/animals_choice3.png","-1","animals","","goat","1","0"
"html-keyboard-response","202","743597","0.0-9.0-2.0-0.58","1525","1","2","""event"",""trial"",""time""
""fullscreenenter"",""1"",""11514""
","
","
","""event"",""trial"",""time""
""fullscreenenter"",""1"",""11514""
","
","","","","","","null","<div style=""font-size:60px;"">+</div>","null","","fixation","","","","","","","","","","","","","",""
"learning-trial","203","747599","0.0-9.0-2.0-1.58","1525","1","2","""event"",""trial"",""time""
""fullscreenenter"",""1"",""11514""
","
","
","""event"",""trial"",""time""
""fullscreenenter"",""1"",""11514""
","
","","","","","","758","images/cow1.png","","","learning","images/animals_choice2.png","images/animals_choice1.png","images/animals_choice3.png","[1,0,2]","1","0","1","images/animals_choice2.png","1","animals","","cow","1","0"
"html-keyboard-response","204","748101","0.0-9.0-2.0-0.59","1525","1","2","""event"",""trial"",""time""
""fullscreenenter"",""1"",""11514""
","
","
","""event"",""trial"",""time""
""fullscreenenter"",""1"",""11514""
","
","","","","","","null","<div style=""font-size:60px;"">+</div>","null","","fixation","","","","","","","","","","","","","",""
"learning-trial","205","752103","0.0-9.0-2.0-1.59","1525","1","2","""event"",""trial"",""time""
""fullscreenenter"",""1"",""11514""
","
","
","""event"",""trial"",""time""
""fullscreenenter"",""1"",""11514""
","
","","","","","","1211","images/horse2.png","","","learning","images/animals_choice3.png","images/animals_choice2.png","images/animals_choice1.png","[2,1,0]","2","0","1","images/animals_choice3.png","1","animals","","horse","1","0"
"html-keyboard-response","206","752604","0.0-9.0-2.0-0.60","1525","1","2","""event"",""trial"",""time""
""fullscreenenter"",""1"",""11514""
","
","
","""event"",""trial"",""time""
""fullscreenenter"",""1"",""11514""
","
","","","","","","null","<div style=""font-size:60px;"">+</div>","null","","fixation","","","","","","","","","","","","","",""
"learning-trial","207","756606","0.0-9.0-2.0-1.60","1525","1","2","""event"",""trial"",""time""
""fullscreenenter"",""1"",""11514""
","
","
","""event"",""trial"",""time""
""fullscreenenter"",""1"",""11514""
","
","","","","","","811","images/horse2.png","","","learning","images/animals_choice3.png","images/animals_choice2.png","images/animals_choice1.png","[2,1,0]","2","0","1","images/animals_choice3.png","1","animals","","horse","1","0"
"html-keyboard-response","208","757108","0.0-9.0-2.0-0.61","1525","1","2","""event"",""trial"",""time""
""fullscreenenter"",""1"",""11514""
","
","
","""event"",""trial"",""time""
""fullscreenenter"",""1"",""11514""
","
","","","","","","null","<div style=""font-size:60px;"">+</div>","null","","fixation","","","","","","","","","","","","","",""
"learning-trial","209","761111","0.0-9.0-2.0-1.61","1525","1","2","""event"",""trial"",""time""
""fullscreenenter"",""1"",""11514""
","
","
","""event"",""trial"",""time""
""fullscreenenter"",""1"",""11514""
","
","","","","","","1044.9999999998836","images/horse4.png","","","learning","images/animals_choice2.png","images/animals_choice1.png","images/animals_choice3.png","[1,0,2]","2","2","3","images/animals_choice3.png","1","animals","","horse","1","0"
"html-keyboard-response","210","761613","0.0-9.0-2.0-0.62","1525","1","2","""event"",""trial"",""time""
""fullscreenenter"",""1"",""11514""
","
","
","""event"",""trial"",""time""
""fullscreenenter"",""1"",""11514""
","
","","","","","","null","<div style=""font-size:60px;"">+</div>","null","","fixation","","","","","","","","","","","","","",""
"learning-trial","211","765615","0.0-9.0-2.0-1.62","1525","1","2","""event"",""trial"",""time""
""fullscreenenter"",""1"",""11514""
","
","
","""event"",""trial"",""time""
""fullscreenenter"",""1"",""11514""
","
","","","","","","1506.0000000001164","images/goat5.png","","","learning","images/animals_choice1.png","images/animals_choice3.png","images/animals_choice2.png","[0,2,1]","0","0","3","images/animals_choice2.png","-1","animals","","goat","1","0"
"html-keyboard-response","212","766117","0.0-9.0-2.0-0.63","1525","1","2","""event"",""trial"",""time""
""fullscreenenter"",""1"",""11514""
","
","
","""event"",""trial"",""time""
""fullscreenenter"",""1"",""11514""
","
","","","","","","null","<div style=""font-size:60px;"">+</div>","null","","fixation","","","","","","","","","","","","","",""
"learning-trial","213","770118","0.0-9.0-2.0-1.63","1525","1","2","""event"",""trial"",""time""
""fullscreenenter"",""1"",""11514""
","
","
","""event"",""trial"",""time""
""fullscreenenter"",""1"",""11514""
","
","","","","","","1106","images/horse2.png","","","learning","images/animals_choice2.png","images/animals_choice3.png","images/animals_choice1.png","[1,2,0]","2","1","2","images/animals_choice3.png","1","animals","","horse","1","0"
"html-keyboard-response","214","770618","0.0-9.0-2.0-0.64","1525","1","2","""event"",""trial"",""time""
""fullscreenenter"",""1"",""11514""
","
","
","""event"",""trial"",""time""
""fullscreenenter"",""1"",""11514""
","
","","","","","","null","<div style=""font-size:60px;"">+</div>","null","","fixation","","","","","","","","","","","","","",""
"learning-trial","215","774621","0.0-9.0-2.0-1.64","1525","1","2","""event"",""trial"",""time""
""fullscreenenter"",""1"",""11514""
","
","
","""event"",""trial"",""time""
""fullscreenenter"",""1"",""11514""
","
","","","","","","1334","images/cow5.png","","","learning","images/animals_choice2.png","images/animals_choice1.png","images/animals_choice3.png","[1,0,2]","1","0","1","images/animals_choice2.png","1","animals","","cow","1","0"
"html-keyboard-response","216","775121","0.0-9.0-2.0-0.65","1525","1","2","""event"",""trial"",""time""
""fullscreenenter"",""1"",""11514""
","
","
","""event"",""trial"",""time""
""fullscreenenter"",""1"",""11514""
","
","","","","","","null","<div style=""font-size:60px;"">+</div>","null","","fixation","","","","","","","","","","","","","",""
"learning-trial","217","779124","0.0-9.0-2.0-1.65","1525","1","2","""event"",""trial"",""time""
""fullscreenenter"",""1"",""11514""
","
","
","""event"",""trial"",""time""
""fullscreenenter"",""1"",""11514""
","
","","","","","","1233.0000000001164","images/cow3.png","","","learning","images/animals_choice1.png","images/animals_choice3.png","images/animals_choice2.png","[0,2,1]","1","2","3","images/animals_choice2.png","-1","animals","","cow","1","0"
"html-keyboard-response","218","779625","0.0-9.0-2.0-0.66","1525","1","2","""event"",""trial"",""time""
""fullscreenenter"",""1"",""11514""
","
","
","""event"",""trial"",""time""
""fullscreenenter"",""1"",""11514""
","
","","","","","","null","<div style=""font-size:60px;"">+</div>","null","","fixation","","","","","","","","","","","","","",""
"learning-trial","219","783628","0.0-9.0-2.0-1.66","1525","1","2","""event"",""trial"",""time""
""fullscreenenter"",""1"",""11514""
","
","
","""event"",""trial"",""time""
""fullscreenenter"",""1"",""11514""
","
","","","","","","3078","images/goat1.png","","","learning","images/animals_choice1.png","images/animals_choice2.png","images/animals_choice3.png","[0,1,2]","0","0","2","images/animals_choice2.png","-1","animals","","goat","1","0"
"html-keyboard-response","220","784128","0.0-9.0-2.0-0.67","1525","1","2","""event"",""trial"",""time""
""fullscreenenter"",""1"",""11514""
","
","
","""event"",""trial"",""time""
""fullscreenenter"",""1"",""11514""
","
","","","","","","null","<div style=""font-size:60px;"">+</div>","null","","fixation","","","","","","","","","","","","","",""
"learning-trial","221","788131","0.0-9.0-2.0-1.67","1525","1","2","""event"",""trial"",""time""
""fullscreenenter"",""1"",""11514""
","
","
","""event"",""trial"",""time""
""fullscreenenter"",""1"",""11514""
","
","","","","","","2464","images/cow3.png","","","learning","images/animals_choice2.png","images/animals_choice3.png","images/animals_choice1.png","[1,2,0]","1","0","1","images/animals_choice2.png","1","animals","","cow","1","0"
"html-keyboard-response","222","788632","0.0-9.0-2.0-0.68","1525","1","2","""event"",""trial"",""time""
""fullscreenenter"",""1"",""11514""
","
","
","""event"",""trial"",""time""
""fullscreenenter"",""1"",""11514""
","
","","","","","","null","<div style=""font-size:60px;"">+</div>","null","","fixation","","","","","","","","","","","","","",""
"learning-trial","223","792635","0.0-9.0-2.0-1.68","1525","1","2","""event"",""trial"",""time""
""fullscreenenter"",""1"",""11514""
","
","
","""event"",""trial"",""time""
""fullscreenenter"",""1"",""11514""
","
","","","","","","2363","images/horse3.png","","","learning","images/animals_choice3.png","images/animals_choice1.png","images/animals_choice2.png","[2,0,1]","2","0","1","images/animals_choice3.png","1","animals","","horse","1","0"
"html-keyboard-response","224","793136","0.0-9.0-2.0-0.69","1525","1","2","""event"",""trial"",""time""
""fullscreenenter"",""1"",""11514""
","
","
","""event"",""trial"",""time""
""fullscreenenter"",""1"",""11514""
","
","","","","","","null","<div style=""font-size:60px;"">+</div>","null","","fixation","","","","","","","","","","","","","",""
"learning-trial","225","797138","0.0-9.0-2.0-1.69","1525","1","2","""event"",""trial"",""time""
""fullscreenenter"",""1"",""11514""
","
","
","""event"",""trial"",""time""
""fullscreenenter"",""1"",""11514""
","
","","","","","","854","images/horse4.png","","","learning","images/animals_choice3.png","images/animals_choice1.png","images/animals_choice2.png","[2,0,1]","2","0","1","images/animals_choice3.png","1","animals","","horse","1","0"
"html-keyboard-response","226","797640","0.0-9.0-2.0-0.70","1525","1","2","""event"",""trial"",""time""
""fullscreenenter"",""1"",""11514""
","
","
","""event"",""trial"",""time""
""fullscreenenter"",""1"",""11514""
","
","","","","","","null","<div style=""font-size:60px;"">+</div>","null","","fixation","","","","","","","","","","","","","",""
"learning-trial","227","801642","0.0-9.0-2.0-1.70","1525","1","2","""event"",""trial"",""time""
""fullscreenenter"",""1"",""11514""
","
","
","""event"",""trial"",""time""
""fullscreenenter"",""1"",""11514""
","
","","","","","","1341","images/goat4.png","","","learning","images/animals_choice3.png","images/animals_choice1.png","images/animals_choice2.png","[2,0,1]","0","1","2","images/animals_choice1.png","-1","animals","","goat","1","0"
"html-keyboard-response","228","802144","0.0-9.0-2.0-0.71","1525","1","2","""event"",""trial"",""time""
""fullscreenenter"",""1"",""11514""
","
","
","""event"",""trial"",""time""
""fullscreenenter"",""1"",""11514""
","
","","","","","","null","<div style=""font-size:60px;"">+</div>","null","","fixation","","","","","","","","","","","","","",""
"learning-trial","229","806146","0.0-9.0-2.0-1.71","1525","1","2","""event"",""trial"",""time""
""fullscreenenter"",""1"",""11514""
","
","
","""event"",""trial"",""time""
""fullscreenenter"",""1"",""11514""
","
","","","","","","1262","images/horse2.png","","","learning","images/animals_choice2.png","images/animals_choice3.png","images/animals_choice1.png","[1,2,0]","2","1","1","images/animals_choice2.png","-1","animals","","horse","1","0"
"html-button-response","230","811164","0.0-9.0-3.0","1525","1","2","""event"",""trial"",""time""
""fullscreenenter"",""1"",""11514""
","
","
","""event"",""trial"",""time""
""fullscreenenter"",""1"",""11514""
","
","","","","","","5016.000000000116","<p> You have completed the round! <p> In this round, you earned 2 points! </p>","0","","break","","","","","","","","","","","","","",""
"html-button-response","231","813033","0.0-10.0","1525","1","2","""event"",""trial"",""time""
""fullscreenenter"",""1"",""11514""
","
","
","""event"",""trial"",""time""
""fullscreenenter"",""1"",""11514""
","
","","","","","","1868.0000000001164","<p> Now it's time to play another round. </p>","0","","transition_screen","","","","","","","","","","","","","",""
"preload","232","814758","0.0-11.0-0.0","1525","1","2","""event"",""trial"",""time""
""fullscreenenter"",""1"",""11514""
","
","
","""event"",""trial"",""time""
""fullscreenenter"",""1"",""11514""
","
","true","false","[]","[]","[]","","","","","","","","","","","","","","","","","","",""
"learning-instructions","233","825142","0.0-11.0-1.0-0.0","1525","1","2","""event"",""trial"",""time""
""fullscreenenter"",""1"",""11514""
","
","
","""event"",""trial"",""time""
""fullscreenenter"",""1"",""11514""
","
","","","","","","2598.9999999998836","<p> Your goal in this round is to deliver furniture to three different buildings. </p><p> You will need to deliver many pieces of furniture. </p></div>","","0","instructions","","","","","","","","","","","","","",""
"learning-instructions","234","834366","0.0-11.0-1.0-0.1","1525","1","2","""event"",""trial"",""time""
""fullscreenenter"",""1"",""11514""
","
","
","""event"",""trial"",""time""
""fullscreenenter"",""1"",""11514""
","
","","","","","","1794.0000000001164","<p> On each turn, you will see a picture of a furniture item and three different buildings.  </p><p> You need to select the building that you want to deliver the furniture to.  </p>","","0","instructions","","","","","","","","","","","","","",""
"learning-instructions","235","844357","0.0-11.0-1.0-0.2","1525","1","2","""event"",""trial"",""time""
""fullscreenenter"",""1"",""11514""
","
","
","""event"",""trial"",""time""
""fullscreenenter"",""1"",""11514""
","
","","","","","","1704","<p> You can select the building on the left by pressing 1, the building in the middle by pressing 2, and the building on the right by pressing 3.  </p><br><div class=""choice-instructions-grid""> <div class=""choice-option""><img src=""images/furniture_choice1.png"" class=""choice-option-img"" stage=""instructions"" position=""0"" ><div class=""choice-option-text""> Press ""1."" </div></div><div class=""choice-option""><img src=""images/furniture_choice2.png"" class=""choice-option-img"" stage=""instructions"" position=""1"" ><div class=""choice-option-text""> Press ""2."" </div></div><div class=""choice-option""><img src=""images/furniture_choice3.png"" class=""choice-option-img"" stage=""instructions"" position=""2"" ><div class=""choice-option-text""> Press ""3."" </div></div></div>","","0","instructions","","","","","","","","","","","","","",""
"learning-instructions","236","852584","0.0-11.0-1.0-0.3","1525","1","2","""event"",""trial"",""time""
""fullscreenenter"",""1"",""11514""
","
","
","""event"",""trial"",""time""
""fullscreenenter"",""1"",""11514""
","
","","","","","","2207","<p> If the furniture belongs in the building you chose, the building owner will likely be very happy! </p><div style='float: center;'><img src='images/check.png' width = '200' height = '200'></img>","","0","instructions","","","","","","","","","","","","","",""
"learning-instructions","237","860116","0.0-11.0-1.0-0.4","1525","1","2","""event"",""trial"",""time""
""fullscreenenter"",""1"",""11514""
","
","
","""event"",""trial"",""time""
