"trial_type","trial_index","time_elapsed","internal_node_id","subject_id","condition","task_version","interactions","blur_events","focus_events","fullscreenenter_events","fullscreenexit_events","success","timeout","failed_images","failed_audio","failed_video","rt","stimulus","response","button_pressed","task_part","left_choice","middle_choice","right_choice","choice_positions","correct_response","correct_position","key_press","option_selected","points","task_block","correct","stim_cat","block_condition","block_number"
"pavlovia","0","5","0.0-0.0","1512","2","2","""event"",""trial"",""time""
""fullscreenenter"",""1"",""3499""
","
","
","""event"",""trial"",""time""
""fullscreenenter"",""1"",""3499""
","
","","","","","","","","","","","","","","","","","","","","","","","",""
"fullscreen","1","4482","0.0-1.0","1512","2","2","""event"",""trial"",""time""
""fullscreenenter"",""1"",""3499""
","
","
","""event"",""trial"",""time""
""fullscreenenter"",""1"",""3499""
","
","true","","","","","","","","","","","","","","","","","","","","","","",""
"preload","2","26924","0.0-2.0","1512","2","2","""event"",""trial"",""time""
""fullscreenenter"",""1"",""3499""
","
","
","""event"",""trial"",""time""
""fullscreenenter"",""1"",""3499""
","
","true","false","[]","[]","[]","","","","","","","","","","","","","","","","","","",""
"audio-keyboard-response","3","31317","0.0-3.0","1512","2","2","""event"",""trial"",""time""
""fullscreenenter"",""1"",""3499""
","
","
","""event"",""trial"",""time""
""fullscreenenter"",""1"",""3499""
","
","","","","","","4381.333333333334","audio/beep_loop.wav"," ","","","","","","","","","","","","","","","",""
"audio-button-response","4","34299","0.0-4.0","1512","2","2","""event"",""trial"",""time""
""fullscreenenter"",""1"",""3499""
","
","
","""event"",""trial"",""time""
""fullscreenenter"",""1"",""3499""
","
","","","","","","2979","audio/shark.wav","4","","","","","","","","","","","","","","","",""
"audio-button-response","5","36737","0.0-5.0","1512","2","2","""event"",""trial"",""time""
""fullscreenenter"",""1"",""3499""
","
","
","""event"",""trial"",""time""
""fullscreenenter"",""1"",""3499""
","
","","","","","","1408","audio/turtle.wav","1","","","","","","","","","","","","","","","",""
"preload","6","51732","0.0-6.0","1512","2","2","""event"",""trial"",""time""
""fullscreenenter"",""1"",""3499""
","
","
","""event"",""trial"",""time""
""fullscreenenter"",""1"",""3499""
","
","true","false","[]","[]","[]","","","","","","","","","","","","","","","","","","",""
"html-keyboard-response","7","57641","0.0-7.0","1512","2","2","""event"",""trial"",""time""
""fullscreenenter"",""1"",""3499""
","
","
","""event"",""trial"",""time""
""fullscreenenter"",""1"",""3499""
","
","","","","","","5905.699999988079","Welcome to the experiment. Press any key to begin and to advance the instructions.","b","","","","","","","","","","","","","","","",""
"learning-instructions","8","67135","0.0-8.0-0.0-0.0","1512","2","2","""event"",""trial"",""time""
""fullscreenenter"",""1"",""3499""
","
","
","""event"",""trial"",""time""
""fullscreenenter"",""1"",""3499""
","
","","","","","","1744","<p> Welcome! Today you are going to play 6 different rounds of a decision-making game. </p><p> Use the mouse to click next to continue. </p>","","0","instructions","","","","","","","","","","","","","",""
"learning-instructions","9","70780","0.0-8.0-0.0-0.1","1512","2","2","""event"",""trial"",""time""
""fullscreenenter"",""1"",""3499""
","
","
","""event"",""trial"",""time""
""fullscreenenter"",""1"",""3499""
","
","","","","","","639","<p> You will start with a practice round to learn the rules. </p>","","0","instructions","","","","","","","","","","","","","",""
"learning-instructions","10","79052","0.0-8.0-0.0-0.2","1512","2","2","""event"",""trial"",""time""
""fullscreenenter"",""1"",""3499""
","
","
","""event"",""trial"",""time""
""fullscreenenter"",""1"",""3499""
","
","","","","","","521.6999999880791","<p> Your goal in this round is to deliver sports equipment to three different parks. </p><p> You will need to deliver many types of equipment. </p></div>","","0","instructions","","","","","","","","","","","","","",""
"learning-instructions","11","88105","0.0-8.0-0.0-0.3","1512","2","2","""event"",""trial"",""time""
""fullscreenenter"",""1"",""3499""
","
","
","""event"",""trial"",""time""
""fullscreenenter"",""1"",""3499""
","
","","","","","","553.9000000059605","<p> On each turn, you will see one piece of sports equipment and three different parks.  </p><p> You need to select which park to deliver the equipment to.  </p>","","0","instructions","","","","","","","","","","","","","",""
"learning-instructions","12","102385","0.0-8.0-0.0-0.4","1512","2","2","""event"",""trial"",""time""
""fullscreenenter"",""1"",""3499""
","
","
","""event"",""trial"",""time""
""fullscreenenter"",""1"",""3499""
","
","","","","","","982.6999999880791","<p> You can select the park on the left by pressing the '1' key on your keyboard. <br>You can select the park in the middle by pressing the '2' key on your keyboard. <br>You can select the park on the right by pressing the '3' key on your keyboard.  </p><br><div class=""choice-instructions-grid""> <div class=""choice-option""><img src=""images/park1.png"" class=""choice-option-img"" stage=""instructions"" position=""0"" ><div class=""choice-option-text""> Press ""1."" </div></div><div class=""choice-option""><img src=""images/park2.png"" class=""choice-option-img"" stage=""instructions"" position=""1"" ><div class=""choice-option-text""> Press ""2."" </div></div><div class=""choice-option""><img src=""images/park3.png"" class=""choice-option-img"" stage=""instructions"" position=""2"" ><div class=""choice-option-text""> Press ""3."" </div></div></div>","","0","instructions","","","","","","","","","","","","","",""
"learning-instructions","13","108685","0.0-8.0-0.0-0.5","1512","2","2","""event"",""trial"",""time""
""fullscreenenter"",""1"",""3499""
","
","
","""event"",""trial"",""time""
""fullscreenenter"",""1"",""3499""
","
","","","","","","903.0999999940395","<p> If the kids in the park you chose like the equipment, they will be very happy! </p><div style='float: center;'><img src='images/check.png' width = '200' height = '200'></img>","","0","instructions","","","","","","","","","","","","","",""
"learning-instructions","14","114767","0.0-8.0-0.0-0.6","1512","2","2","""event"",""trial"",""time""
""fullscreenenter"",""1"",""3499""
","
","
","""event"",""trial"",""time""
""fullscreenenter"",""1"",""3499""
","
","","","","","","476.09999999403954","<p> But, if the kids in the park you chose do not like the equipment, they will be sad. </p><div style='float: center;'><img src='images/x.png' width = '200' height = '200'></img>","","0","instructions","","","","","","","","","","","","","",""
"learning-instructions","15","121667","0.0-8.0-0.0-0.7","1512","2","2","""event"",""trial"",""time""
""fullscreenenter"",""1"",""3499""
","
","
","""event"",""trial"",""time""
""fullscreenenter"",""1"",""3499""
","
","","","","","","456.20000000298023","<p> Importantly, the kids in each park like some pieces of sports equipment more than others. </p>","","0","instructions","","","","","","","","","","","","","",""
"learning-instructions","16","128192","0.0-8.0-0.0-0.8","1512","2","2","""event"",""trial"",""time""
""fullscreenenter"",""1"",""3499""
","
","
","""event"",""trial"",""time""
""fullscreenenter"",""1"",""3499""
","
","","","","","","460.09999999403954","<p> If you choose the best park for each piece of equipment, the kids there will usually be happy. </p>","","0","instructions","","","","","","","","","","","","","",""
"learning-instructions","17","135332","0.0-8.0-0.0-0.9","1512","2","2","""event"",""trial"",""time""
""fullscreenenter"",""1"",""3499""
","
","
","""event"",""trial"",""time""
""fullscreenenter"",""1"",""3499""
","
","","","","","","491","<p> However, even if you choose the best park for the equipment, the kids may sometimes be sad. </p>","","0","instructions","","","","","","","","","","","","","",""
"learning-instructions","18","143027","0.0-8.0-0.0-0.10","1512","2","2","""event"",""trial"",""time""
""fullscreenenter"",""1"",""3499""
","
","
","""event"",""trial"",""time""
""fullscreenenter"",""1"",""3499""
","
","","","","","","445.90000000596046","<p> Similarly, even if you choose the <i>wrong</i> park for the equipment, the kids may still be happy sometimes.","","0","instructions","","","","","","","","","","","","","",""
"learning-instructions","19","148967","0.0-8.0-0.0-0.11","1512","2","2","""event"",""trial"",""time""
""fullscreenenter"",""1"",""3499""
","
","
","""event"",""trial"",""time""
""fullscreenenter"",""1"",""3499""
","
","","","","","","886.4000000059605","<p> For example, the best park for this soccer ball is this one.<div style='float: center;'><img src='images/i1.png' width = '500' height = '268'></img>","","0","instructions","","","","","","","","","","","","","",""
"learning-instructions","20","154719","0.0-8.0-0.0-0.12","1512","2","2","""event"",""trial"",""time""
""fullscreenenter"",""1"",""3499""
","
","
","""event"",""trial"",""time""
""fullscreenenter"",""1"",""3499""
","
","","","","","","448.59999999403954","<p> Let's see what happens if you choose this park for the soccer ball five times.","","0","instructions","","","","","","","","","","","","","",""
"learning-instructions","21","157374","0.0-8.0-0.0-0.13","1512","2","2","""event"",""trial"",""time""
""fullscreenenter"",""1"",""3499""
","
","
","""event"",""trial"",""time""
""fullscreenenter"",""1"",""3499""
","
","","","","","","492.09999999403954","<p> The kids are happy.<div style='float: left;'><img src='images/i2.png' width = '640' height = '360'></img>","","0","instructions","","","","","","","","","","","","","",""
"learning-instructions","22","159805","0.0-8.0-0.0-0.14","1512","2","2","""event"",""trial"",""time""
""fullscreenenter"",""1"",""3499""
","
","
","""event"",""trial"",""time""
""fullscreenenter"",""1"",""3499""
","
","","","","","","253.09999999403954","<p> The kids are happy.<div style='float: left;'><img src='images/i3.png' width = '640' height = '360'></img>","","0","instructions","","","","","","","","","","","","","",""
"learning-instructions","23","162459","0.0-8.0-0.0-0.15","1512","2","2","""event"",""trial"",""time""
""fullscreenenter"",""1"",""3499""
","
","
","""event"",""trial"",""time""
""fullscreenenter"",""1"",""3499""
","
","","","","","","466.40000000596046","<p> The kids are happy.<div style='float: left;'><img src='images/i4.png' width = '640' height = '360'></img>","","0","instructions","","","","","","","","","","","","","",""
"learning-instructions","24","165121","0.0-8.0-0.0-0.16","1512","2","2","""event"",""trial"",""time""
""fullscreenenter"",""1"",""3499""
","
","
","""event"",""trial"",""time""
""fullscreenenter"",""1"",""3499""
","
","","","","","","438.90000000596046","<p> The kids are sad.<div style='float: left;'><img src='images/i5.png' width = '640' height = '360'></img>","","0","instructions","","","","","","","","","","","","","",""
"learning-instructions","25","167979","0.0-8.0-0.0-0.17","1512","2","2","""event"",""trial"",""time""
""fullscreenenter"",""1"",""3499""
","
","
","""event"",""trial"",""time""
""fullscreenenter"",""1"",""3499""
","
","","","","","","676.2999999970198","<p> The kids are happy.<div style='float: left;'><img src='images/i6.png' width = '640' height = '360'></img>","","0","instructions","","","","","","","","","","","","","",""
"learning-instructions","26","175734","0.0-8.0-0.0-0.18","1512","2","2","""event"",""trial"",""time""
""fullscreenenter"",""1"",""3499""
","
","
","""event"",""trial"",""time""
""fullscreenenter"",""1"",""3499""
","
","","","","","","483.5","<p> As you can see, selecting that park for the soccer ball made the kids happy most of the time, but not all the time.","","0","instructions","","","","","","","","","","","","","",""
"learning-instructions","27","182461","0.0-8.0-0.0-0.19","1512","2","2","""event"",""trial"",""time""
""fullscreenenter"",""1"",""3499""
","
","
","""event"",""trial"",""time""
""fullscreenenter"",""1"",""3499""
","
","","","","","","721","<p> Now let's see what happens if you choose a DIFFERENT park for the soccer ball 5 times.","","0","instructions","","","","","","","","","","","","","",""
"learning-instructions","28","185619","0.0-8.0-0.0-0.20","1512","2","2","""event"",""trial"",""time""
""fullscreenenter"",""1"",""3499""
","
","
","""event"",""trial"",""time""
""fullscreenenter"",""1"",""3499""
","
","","","","","","947.4000000059605","<p> The kids are sad.<div style='float: left;'><img src='images/i7.png' width = '640' height = '360'></img>","","0","instructions","","","","","","","","","","","","","",""
"learning-instructions","29","188627","0.0-8.0-0.0-0.21","1512","2","2","""event"",""trial"",""time""
""fullscreenenter"",""1"",""3499""
","
","
","""event"",""trial"",""time""
""fullscreenenter"",""1"",""3499""
","
","","","","","","786.2000000029802","<p> The kids are sad.<div style='float: left;'><img src='images/i8.png' width = '640' height = '360'></img>","","0","instructions","","","","","","","","","","","","","",""
"learning-instructions","30","191402","0.0-8.0-0.0-0.22","1512","2","2","""event"",""trial"",""time""
""fullscreenenter"",""1"",""3499""
","
","
","""event"",""trial"",""time""
""fullscreenenter"",""1"",""3499""
","
","","","","","","600.5","<p> The kids are happy.<div style='float: left;'><img src='images/i9.png' width = '640' height = '360'></img>","","0","instructions","","","","","","","","","","","","","",""
"learning-instructions","31","194139","0.0-8.0-0.0-0.23","1512","2","2","""event"",""trial"",""time""
""fullscreenenter"",""1"",""3499""
","
","
","""event"",""trial"",""time""
""fullscreenenter"",""1"",""3499""
","
","","","","","","507.90000000596046","<p> The kids are sad.<div style='float: left;'><img src='images/i10.png' width = '640' height = '360'></img>","","0","instructions","","","","","","","","","","","","","",""
"learning-instructions","32","197026","0.0-8.0-0.0-0.24","1512","2","2","""event"",""trial"",""time""
""fullscreenenter"",""1"",""3499""
","
","
","""event"",""trial"",""time""
""fullscreenenter"",""1"",""3499""
","
","","","","","","665.7999999970198","<p> The kids are sad.<div style='float: left;'><img src='images/i11.png' width = '640' height = '360'></img>","","0","instructions","","","","","","","","","","","","","",""
"learning-instructions","33","205794","0.0-8.0-0.0-0.25","1512","2","2","""event"",""trial"",""time""
""fullscreenenter"",""1"",""3499""
","
","
","""event"",""trial"",""time""
""fullscreenenter"",""1"",""3499""
","
","","","","","","643.5","<p> As you can see, selecting the wrong park for the soccer ball made the kids sad most of the time, but not all the time.","","0","instructions","","","","","","","","","","","","","",""
"learning-instructions","34","214940","0.0-8.0-0.0-0.26","1512","2","2","""event"",""trial"",""time""
""fullscreenenter"",""1"",""3499""
","
","
","""event"",""trial"",""time""
""fullscreenenter"",""1"",""3499""
","
","","","","","","30.200000002980232","<p> The different pieces of equipment belong in different parks. You need to try to learn which is the best park for each piece of equipment.","","0","instructions","","","","","","","","","","","","","",""
"learning-instructions","35","231759","0.0-8.0-0.0-0.27","1512","2","2","""event"",""trial"",""time""
""fullscreenenter"",""1"",""3499""
","
","
","""event"",""trial"",""time""
""fullscreenenter"",""1"",""3499""
","
","","","","","","428.29999999701977","<p> Try to choose the best park for each piece of equipment, because you will <b> WIN </b> 1 point for each time you make the kids happy and <b>LOSE</b> 1 point for each time you make them sad. </p><p> Remember, if you make the best choice, you will win 1 point most of the time, but not all the time. </p>","","0","instructions","","","","","","","","","","","","","",""
"learning-instructions","36","237706","0.0-8.0-0.0-0.28","1512","2","2","""event"",""trial"",""time""
""fullscreenenter"",""1"",""3499""
","
","
","""event"",""trial"",""time""
""fullscreenenter"",""1"",""3499""
","
","","","","","","455.59999999403954","<p> This is just a practice round, but in the real game, your bonus payment will depend on your total number of points.","","0","instructions","","","","","","","","","","","","","",""
"learning-instructions","37","248476","0.0-8.0-0.0-0.29","1512","2","2","""event"",""trial"",""time""
""fullscreenenter"",""1"",""3499""
","
","
","""event"",""trial"",""time""
""fullscreenenter"",""1"",""3499""
","
","","","","","","445.5","<p> The position where each park appears will change throughout the game. </p><p> The position where the park appears <i> does not </i> influence how likely the kids are to be happy or sad. </p>","","0","instructions","","","","","","","","","","","","","",""
"learning-instructions","38","259658","0.0-8.0-0.0-0.30","1512","2","2","""event"",""trial"",""time""
""fullscreenenter"",""1"",""3499""
","
","
","""event"",""trial"",""time""
""fullscreenenter"",""1"",""3499""
","
","","","","","","278.59999999403954","<p> You will have 4 seconds to make each choice. Try to respond before time runs out! </p><p> You will lose 1 point each time you do not make a response. </p>","","0","instructions","","","","","","","","","","","","","",""
"learning-instructions","39","267653","0.0-8.0-0.0-0.31","1512","2","2","""event"",""trial"",""time""
""fullscreenenter"",""1"",""3499""
","
","
","""event"",""trial"",""time""
""fullscreenenter"",""1"",""3499""
","
","","","","","","1181.5","<p> Remember, you should use the 1, 2, and 3 keys to select the park for each piece of equipment. </p><br><div class=""choice-instructions-grid""> <div class=""choice-option""><img src=""images/park1.png"" class=""choice-option-img"" stage=""instructions"" position=""0"" ><div class=""choice-option-text""> Press ""1."" </div></div><div class=""choice-option""><img src=""images/park2.png"" class=""choice-option-img"" stage=""instructions"" position=""1"" ><div class=""choice-option-text""> Press ""2."" </div></div><div class=""choice-option""><img src=""images/park3.png"" class=""choice-option-img"" stage=""instructions"" position=""2"" ><div class=""choice-option-text""> Press ""3."" </div></div></div>","","0","instructions","","","","","","","","","","","","","",""
"html-button-response","40","271427","0.0-8.0-1.0","1512","2","2","""event"",""trial"",""time""
""fullscreenenter"",""1"",""3499""
","
","
","""event"",""trial"",""time""
""fullscreenenter"",""1"",""3499""
","
","","","","","","3664.5999999940395","<p> Ready to practice? </p>","0","","","","","","","","","","","","","","","",""
"html-keyboard-response","41","272038","0.0-8.0-2.0-0.0","1512","2","2","""event"",""trial"",""time""
""fullscreenenter"",""1"",""3499""
","
","
","""event"",""trial"",""time""
""fullscreenenter"",""1"",""3499""
","
","","","","","","null","<div style=""font-size:60px;"">+</div>","null","","fixation","","","","","","","","","","","","","",""
"learning-trial","42","276060","0.0-8.0-2.0-1.0","1512","2","2","""event"",""trial"",""time""
""fullscreenenter"",""1"",""3499""
","
","
","""event"",""trial"",""time""
""fullscreenenter"",""1"",""3499""
","
","","","","","","1861.0999999940395","images/ball2.png","","","practice","images/park3.png","images/park1.png","images/park2.png","[2,0,1]","2","0","2","images/park1.png","-1","practice","","","",""
"html-keyboard-response","43","276578","0.0-8.0-2.0-0.1","1512","2","2","""event"",""trial"",""time""
""fullscreenenter"",""1"",""3499""
","
","
","""event"",""trial"",""time""
""fullscreenenter"",""1"",""3499""
","
","","","","","","null","<div style=""font-size:60px;"">+</div>","null","","fixation","","","","","","","","","","","","","",""
"learning-trial","44","280590","0.0-8.0-2.0-1.1","1512","2","2","""event"",""trial"",""time""
""fullscreenenter"",""1"",""3499""
","
","
","""event"",""trial"",""time""
""fullscreenenter"",""1"",""3499""
","
","","","","","","645.7000000029802","images/ball4.png","","","practice","images/park3.png","images/park2.png","images/park1.png","[2,1,0]","0","2","2","images/park2.png","-1","practice","","","",""
"html-keyboard-response","45","281108","0.0-8.0-2.0-0.2","1512","2","2","""event"",""trial"",""time""
""fullscreenenter"",""1"",""3499""
","
","
","""event"",""trial"",""time""
""fullscreenenter"",""1"",""3499""
","
","","","","","","null","<div style=""font-size:60px;"">+</div>","null","","fixation","","","","","","","","","","","","","",""
"learning-trial","46","285130","0.0-8.0-2.0-1.2","1512","2","2","""event"",""trial"",""time""
""fullscreenenter"",""1"",""3499""
","
","
","""event"",""trial"",""time""
""fullscreenenter"",""1"",""3499""
","
","","","","","","805.7999999970198","images/racket2.png","","","practice","images/park1.png","images/park2.png","images/park3.png","[0,1,2]","1","1","3","images/park3.png","-1","practice","","","",""
"html-keyboard-response","47","285639","0.0-8.0-2.0-0.3","1512","2","2","""event"",""trial"",""time""
""fullscreenenter"",""1"",""3499""
","
","
","""event"",""trial"",""time""
""fullscreenenter"",""1"",""3499""
","
","","","","","","null","<div style=""font-size:60px;"">+</div>","null","","fixation","","","","","","","","","","","","","",""
"learning-trial","48","289660","0.0-8.0-2.0-1.3","1512","2","2","""event"",""trial"",""time""
""fullscreenenter"",""1"",""3499""
","
","
","""event"",""trial"",""time""
""fullscreenenter"",""1"",""3499""
","
","","","","","","400.09999999403954","images/ball1.png","","","practice","images/park2.png","images/park1.png","images/park3.png","[1,0,2]","1","0","1","images/park2.png","-1","practice","","","",""
"html-keyboard-response","49","290171","0.0-8.0-2.0-0.4","1512","2","2","""event"",""trial"",""time""
""fullscreenenter"",""1"",""3499""
","
","
","""event"",""trial"",""time""
""fullscreenenter"",""1"",""3499""
","
","","","","","","null","<div style=""font-size:60px;"">+</div>","null","","fixation","","","","","","","","","","","","","",""
"learning-trial","50","294190","0.0-8.0-2.0-1.4","1512","2","2","""event"",""trial"",""time""
""fullscreenenter"",""1"",""3499""
","
","
","""event"",""trial"",""time""
""fullscreenenter"",""1"",""3499""
","
","","","","","","595.0999999940395","images/racket3.png","","","practice","images/park2.png","images/park3.png","images/park1.png","[1,2,0]","2","1","2","images/park3.png","1","practice","","","",""
"html-keyboard-response","51","294699","0.0-8.0-2.0-0.5","1512","2","2","""event"",""trial"",""time""
""fullscreenenter"",""1"",""3499""
","
","
","""event"",""trial"",""time""
""fullscreenenter"",""1"",""3499""
","
","","","","","","null","<div style=""font-size:60px;"">+</div>","null","","fixation","","","","","","","","","","","","","",""
"learning-trial","52","298708","0.0-8.0-2.0-1.5","1512","2","2","""event"",""trial"",""time""
""fullscreenenter"",""1"",""3499""
","
","
","""event"",""trial"",""time""
""fullscreenenter"",""1"",""3499""
","
","","","","","","1324.2000000029802","images/racket3.png","","","practice","images/park1.png","images/park3.png","images/park2.png","[0,2,1]","2","1","2","images/park3.png","1","practice","","","",""
"html-keyboard-response","53","299209","0.0-8.0-2.0-0.6","1512","2","2","""event"",""trial"",""time""
""fullscreenenter"",""1"",""3499""
","
","
","""event"",""trial"",""time""
""fullscreenenter"",""1"",""3499""
","
","","","","","","null","<div style=""font-size:60px;"">+</div>","null","","fixation","","","","","","","","","","","","","",""
"learning-trial","54","303213","0.0-8.0-2.0-1.6","1512","2","2","""event"",""trial"",""time""
""fullscreenenter"",""1"",""3499""
","
","
","""event"",""trial"",""time""
""fullscreenenter"",""1"",""3499""
","
","","","","","","2108.4000000059605","images/racket4.png","","","practice","images/park1.png","images/park2.png","images/park3.png","[0,1,2]","0","0","3","images/park3.png","-1","practice","","","",""
"html-keyboard-response","55","303715","0.0-8.0-2.0-0.7","1512","2","2","""event"",""trial"",""time""
""fullscreenenter"",""1"",""3499""
","
","
","""event"",""trial"",""time""
""fullscreenenter"",""1"",""3499""
","
","","","","","","null","<div style=""font-size:60px;"">+</div>","null","","fixation","","","","","","","","","","","","","",""
"learning-trial","56","307721","0.0-8.0-2.0-1.7","1512","2","2","""event"",""trial"",""time""
""fullscreenenter"",""1"",""3499""
","
","
","""event"",""trial"",""time""
""fullscreenenter"",""1"",""3499""
","
","","","","","","1569.5","images/racket2.png","","","practice","images/park1.png","images/park3.png","images/park2.png","[0,2,1]","1","2","2","images/park3.png","-1","practice","","","",""
"html-keyboard-response","57","308224","0.0-8.0-2.0-0.8","1512","2","2","""event"",""trial"",""time""
""fullscreenenter"",""1"",""3499""
","
","
","""event"",""trial"",""time""
""fullscreenenter"",""1"",""3499""
","
","","","","","","null","<div style=""font-size:60px;"">+</div>","null","","fixation","","","","","","","","","","","","","",""
"learning-trial","58","312231","0.0-8.0-2.0-1.8","1512","2","2","""event"",""trial"",""time""
""fullscreenenter"",""1"",""3499""
","
","
","""event"",""trial"",""time""
""fullscreenenter"",""1"",""3499""
","
","","","","","","1261.2999999970198","images/ball4.png","","","practice","images/park1.png","images/park2.png","images/park3.png","[0,1,2]","0","0","1","images/park1.png","1","practice","","","",""
"html-keyboard-response","59","312735","0.0-8.0-2.0-0.9","1512","2","2","""event"",""trial"",""time""
""fullscreenenter"",""1"",""3499""
","
","
","""event"",""trial"",""time""
""fullscreenenter"",""1"",""3499""
","
","","","","","","null","<div style=""font-size:60px;"">+</div>","null","","fixation","","","","","","","","","","","","","",""
"learning-trial","60","316741","0.0-8.0-2.0-1.9","1512","2","2","""event"",""trial"",""time""
""fullscreenenter"",""1"",""3499""
","
","
","""event"",""trial"",""time""
""fullscreenenter"",""1"",""3499""
","
","","","","","","1380.2999999970198","images/racket4.png","","","practice","images/park3.png","images/park1.png","images/park2.png","[2,0,1]","0","1","2","images/park1.png","1","practice","","","",""
"html-keyboard-response","61","317243","0.0-8.0-2.0-0.10","1512","2","2","""event"",""trial"",""time""
""fullscreenenter"",""1"",""3499""
","
","
","""event"",""trial"",""time""
""fullscreenenter"",""1"",""3499""
","
","","","","","","null","<div style=""font-size:60px;"">+</div>","null","","fixation","","","","","","","","","","","","","",""
"learning-trial","62","321250","0.0-8.0-2.0-1.10","1512","2","2","""event"",""trial"",""time""
""fullscreenenter"",""1"",""3499""
","
","
","""event"",""trial"",""time""
""fullscreenenter"",""1"",""3499""
","
","","","","","","1821.5","images/ball2.png","","","practice","images/park3.png","images/park2.png","images/park1.png","[2,1,0]","2","0","3","images/park1.png","-1","practice","","","",""
"html-keyboard-response","63","321753","0.0-8.0-2.0-0.11","1512","2","2","""event"",""trial"",""time""
""fullscreenenter"",""1"",""3499""
","
","
","""event"",""trial"",""time""
""fullscreenenter"",""1"",""3499""
","
","","","","","","null","<div style=""font-size:60px;"">+</div>","null","","fixation","","","","","","","","","","","","","",""
"learning-trial","64","325760","0.0-8.0-2.0-1.11","1512","2","2","""event"",""trial"",""time""
""fullscreenenter"",""1"",""3499""
","
","
","""event"",""trial"",""time""
""fullscreenenter"",""1"",""3499""
","
","","","","","","913.2000000029802","images/ball1.png","","","practice","images/park1.png","images/park2.png","images/park3.png","[0,1,2]","1","1","1","images/park1.png","-1","practice","","","",""
"html-button-response","65","328374","0.0-8.0-3.0","1512","2","2","""event"",""trial"",""time""
""fullscreenenter"",""1"",""3499""
","
","
","""event"",""trial"",""time""
""fullscreenenter"",""1"",""3499""
","
","","","","","","2609.5","<p> You earned -4 points in the practice round! </p>","0","","break","","","","","","","","","","","","","",""
"learning-instructions","66","337742","0.0-8.0-4.0-0.0","1512","2","2","""event"",""trial"",""time""
""fullscreenenter"",""1"",""3499""
","
","
","""event"",""trial"",""time""
""fullscreenenter"",""1"",""3499""
","
","","","","","","1060.9000000059605","<p> It's almost time to start the real game. </p><p> Before you start, we're going to ask you a few questions about how the game works. </p>","","0","instructions","","","","","","","","","","","","","",""
"preload","67","350394","0.0-8.0-5.0","1512","2","2","""event"",""trial"",""time""
""fullscreenenter"",""1"",""3499""
","
","
","""event"",""trial"",""time""
""fullscreenenter"",""1"",""3499""
","
","true","false","[]","[]","[]","","","","","","","","","","","","","","","","","","",""
"comp-q","68","357586","0.0-8.0-6.0-0.0","1512","2","2","""event"",""trial"",""time""
""fullscreenenter"",""1"",""3499""
","
","
","""event"",""trial"",""time""
""fullscreenenter"",""1"",""3499""
","
","","","","","","1734.7999999970198","<p> <b> True or False? </b> </p><p> If you choose the best option, you will always earn 1 point. </p>","","1","comp_question","","","","","","","","","","","true","","",""
"comp-q","69","365183","0.0-8.0-6.0-1.0","1512","2","2","""event"",""trial"",""time""
""fullscreenenter"",""1"",""3499""
","
","
","""event"",""trial"",""time""
""fullscreenenter"",""1"",""3499""
","
","","","","","","1922.2000000029802","<p><b> That's right! </b> Sometimes you will lose 1 point, even if you choose the best option. </p>","","0","comp_answer","","","","","","","","","","","","","",""
"comp-q","70","370298","0.0-8.0-6.0-0.1","1512","2","2","""event"",""trial"",""time""
""fullscreenenter"",""1"",""3499""
","
","
","""event"",""trial"",""time""
""fullscreenenter"",""1"",""3499""
","
","","","","","","467.1000000089407","<p> <b> True or False? </b> </p><p> You will have as much time as you want to make each choice. </p>","","1","comp_question","","","","","","","","","","","true","","",""
"comp-q","71","376418","0.0-8.0-6.0-1.1","1512","2","2","""event"",""trial"",""time""
""fullscreenenter"",""1"",""3499""
","
","
","""event"",""trial"",""time""
""fullscreenenter"",""1"",""3499""
","
","","","","","","1287.5","<p> <b> That's right! </b> You will only have 4 seconds to make each choice. </p>","","0","comp_answer","","","","","","","","","","","","","",""
"comp-q","72","383092","0.0-8.0-6.0-0.2","1512","2","2","""event"",""trial"",""time""
""fullscreenenter"",""1"",""3499""
","
","
","""event"",""trial"",""time""
""fullscreenenter"",""1"",""3499""
","
","","","","","","510.90000000596046","<p> <b> True or False? </b> </p><p> You should use the '1', '2', and '3' keys to make your choices. </p>","","0","comp_question","","","","","","","","","","","true","","",""
"comp-q","73","389108","0.0-8.0-6.0-1.2","1512","2","2","""event"",""trial"",""time""
""fullscreenenter"",""1"",""3499""
","
","
","""event"",""trial"",""time""
""fullscreenenter"",""1"",""3499""
","
","","","","","","1167.0999999940395","<p> <b> That's right! </b> You should use the '1', '2', and '3' keys to make each choice. </p>","","0","comp_answer","","","","","","","","","","","","","",""
"learning-instructions","74","400584","0.0-8.0-7.0-0.0","1512","2","2","""event"",""trial"",""time""
""fullscreenenter"",""1"",""3499""
","
","
","""event"",""trial"",""time""
""fullscreenenter"",""1"",""3499""
","
","","","","","","2962.9000000059605","<p> It's now time to start the real game. </p>Do your best, because the points you earn in the next rounds will influence your bonus payment. </p>","","0","instructions","","","","","","","","","","","","","",""
"preload","75","406467","0.0-9.0-0.0","1512","2","2","""event"",""trial"",""time""
""fullscreenenter"",""1"",""3499""
","
","
","""event"",""trial"",""time""
""fullscreenenter"",""1"",""3499""
","
","true","false","[]","[]","[]","","","","","","","","","","","","","","","","","","",""
"learning-instructions","76","415269","0.0-9.0-1.0-0.0","1512","2","2","""event"",""trial"",""time""
""fullscreenenter"",""1"",""3499""
","
","
","""event"",""trial"",""time""
""fullscreenenter"",""1"",""3499""
","
","","","","","","1968.199999988079","<p> Your goal in this round is to grow a beautiful garden by watering plants. </p><p> You will need to water many different plants. </p></div>","","0","instructions","","","","","","","","","","","","","",""
"learning-instructions","77","428978","0.0-9.0-1.0-0.1","1512","2","2","""event"",""trial"",""time""
""fullscreenenter"",""1"",""3499""
","
","
","""event"",""trial"",""time""
""fullscreenenter"",""1"",""3499""
","
","","","","","","407.30000001192093","<p> On each turn, you will see a picture of one of your plants and three different watering cans.  </p><p> Each watering can has a different mixture of water and fertilizer.  </p><p> You need to select which watering can to use for each plant. </p>","","0","instructions","","","","","","","","","","","","","",""
"learning-instructions","78","441032","0.0-9.0-1.0-0.2","1512","2","2","""event"",""trial"",""time""
""fullscreenenter"",""1"",""3499""
","
","
","""event"",""trial"",""time""
""fullscreenenter"",""1"",""3499""
","
","","","","","","4299.70000000298","<p> You can select the watering can on the left by pressing 1, the watering can in the middle by pressing 2, and the watering can on the right by pressing 3. </p><br><div class=""choice-instructions-grid""> <div class=""choice-option""><img src=""images/plants_choice1.png"" class=""choice-option-img"" stage=""instructions"" position=""0"" ><div class=""choice-option-text""> Press ""1."" </div></div><div class=""choice-option""><img src=""images/plants_choice2.png"" class=""choice-option-img"" stage=""instructions"" position=""1"" ><div class=""choice-option-text""> Press ""2."" </div></div><div class=""choice-option""><img src=""images/plants_choice3.png"" class=""choice-option-img"" stage=""instructions"" position=""2"" ><div class=""choice-option-text""> Press ""3."" </div></div></div>","","0","instructions","","","","","","","","","","","","","",""
"learning-instructions","79","446955","0.0-9.0-1.0-0.3","1512","2","2","""event"",""trial"",""time""
""fullscreenenter"",""1"",""3499""
","
","
","""event"",""trial"",""time""
""fullscreenenter"",""1"",""3499""
","
","","","","","","1744.7999999970198","<p> If the watering can you chose works for the plant, it will grow! </p><div style='float: center;'><img src='images/check.png' width = '200' height = '200'></img>","","0","instructions","","","","","","","","","","","","","",""
"learning-instructions","80","454531","0.0-9.0-1.0-0.4","1512","2","2","""event"",""trial"",""time""
""fullscreenenter"",""1"",""3499""
","
","
","""event"",""trial"",""time""
""fullscreenenter"",""1"",""3499""
","
","","","","","","2768.7999999970198","<p> But, if the watering can you chose does not work, your plant will droop. </p><div style='float: center;'><img src='images/x.png' width = '200' height = '200'></img>","","0","instructions","","","","","","","","","","","","","",""
"learning-instructions","81","465151","0.0-9.0-1.0-0.5","1512","2","2","""event"",""trial"",""time""
""fullscreenenter"",""1"",""3499""
","
","
","""event"",""trial"",""time""
""fullscreenenter"",""1"",""3499""
","
","","","","","","539.7999999970198","<p> Importantly, each plant has one fertilizer mixture that works best for it. </p><p> If you choose the watering can with the right fertilizer, the plant will be more likely to grow. </p>","","0","instructions","","","","","","","","","","","","","",""
"learning-instructions","82","475957","0.0-9.0-1.0-0.6","1512","2","2","""event"",""trial"",""time""
""fullscreenenter"",""1"",""3499""
","
","
","""event"",""trial"",""time""
""fullscreenenter"",""1"",""3499""
","
","","","","","","456.80000001192093","<p> However, even if you choose the best watering can for the plant, the plant may still droop. </p><p> Similarly, even if you choose the <i>wrong</i> watering can, the plant may still grow.","","0","instructions","","","","","","","","","","","","","",""
"learning-instructions","83","488287","0.0-9.0-1.0-0.7","1512","2","2","""event"",""trial"",""time""
""fullscreenenter"",""1"",""3499""
","
","
","""event"",""trial"",""time""
""fullscreenenter"",""1"",""3499""
","
","","","","","","457.90000000596046","<p> Try to choose the best watering can for each plant, because you will <b> WIN </b> 1 point each time a plant grows and <b>LOSE</b>  1 point each time a plant droops. </p><p> Your bonus payment will depend on your total number of points.","","0","instructions","","","","","","","","","","","","","",""
"learning-instructions","84","496875","0.0-9.0-1.0-0.8","1512","2","2","""event"",""trial"",""time""
""fullscreenenter"",""1"",""3499""
","
","
","""event"",""trial"",""time""
""fullscreenenter"",""1"",""3499""
","
","","","","","","574.5","<p> The position of each watering can will change throughout the round. </p><p> The watering can's position <i> does not </i> influence how likely each plant is to droop or grow. </p>","","0","instructions","","","","","","","","","","","","","",""
"learning-instructions","85","506685","0.0-9.0-1.0-0.9","1512","2","2","""event"",""trial"",""time""
""fullscreenenter"",""1"",""3499""
","
","
","""event"",""trial"",""time""
""fullscreenenter"",""1"",""3499""
","
","","","","","","514.7999999970198","<p> You will have 4 seconds to make each choice. Try to respond before time runs out! </p><p> You will lose 1 point each time you do not make a response. </p>","","0","instructions","","","","","","","","","","","","","",""
"html-keyboard-response","86","507309","0.0-9.0-2.0-0.0","1512","2","2","""event"",""trial"",""time""
""fullscreenenter"",""1"",""3499""
","
","
","""event"",""trial"",""time""
""fullscreenenter"",""1"",""3499""
","
","","","","","","null","<div style=""font-size:60px;"">+</div>","null","","fixation","","","","","","","","","","","","","",""
"learning-trial","87","511314","0.0-9.0-2.0-1.0","1512","2","2","""event"",""trial"",""time""
""fullscreenenter"",""1"",""3499""
","
","
","""event"",""trial"",""time""
""fullscreenenter"",""1"",""3499""
","
","","","","","","null","images/bush2.png","","","learning","images/plants_choice1.png","images/plants_choice2.png","images/plants_choice3.png","[0,1,2]","2","2","null","null","-1","plants","","bush","2","0"
"html-keyboard-response","88","511818","0.0-9.0-2.0-0.1","1512","2","2","""event"",""trial"",""time""
""fullscreenenter"",""1"",""3499""
","
","
","""event"",""trial"",""time""
""fullscreenenter"",""1"",""3499""
","
","","","","","","null","<div style=""font-size:60px;"">+</div>","null","","fixation","","","","","","","","","","","","","",""
"learning-trial","89","515823","0.0-9.0-2.0-1.1","1512","2","2","""event"",""trial"",""time""
""fullscreenenter"",""1"",""3499""
","
","
","""event"",""trial"",""time""
""fullscreenenter"",""1"",""3499""
","
","","","","","","null","images/tree3.png","","","learning","images/plants_choice3.png","images/plants_choice2.png","images/plants_choice1.png","[2,1,0]","2","0","null","null","-1","plants","","tree","2","0"
"html-keyboard-response","90","516338","0.0-9.0-2.0-0.2","1512","2","2","""event"",""trial"",""time""
""fullscreenenter"",""1"",""3499""
","
","
","""event"",""trial"",""time""
""fullscreenenter"",""1"",""3499""
","
","","","","","","null","<div style=""font-size:60px;"">+</div>","null","","fixation","","","","","","","","","","","","","",""
"learning-trial","91","520354","0.0-9.0-2.0-1.2","1512","2","2","""event"",""trial"",""time""
""fullscreenenter"",""1"",""3499""
","
","
","""event"",""trial"",""time""
""fullscreenenter"",""1"",""3499""
","
","","","","","","627.6000000089407","images/flower1.png","","","learning","images/plants_choice3.png","images/plants_choice1.png","images/plants_choice2.png","[2,0,1]","1","2","1","images/plants_choice3.png","-1","plants","","flower","2","0"
"html-keyboard-response","92","520856","0.0-9.0-2.0-0.3","1512","2","2","""event"",""trial"",""time""
""fullscreenenter"",""1"",""3499""
","
","
","""event"",""trial"",""time""
""fullscreenenter"",""1"",""3499""
","
","","","","","","null","<div style=""font-size:60px;"">+</div>","null","","fixation","","","","","","","","","","","","","",""
"learning-trial","93","524879","0.0-9.0-2.0-1.3","1512","2","2","""event"",""trial"",""time""
""fullscreenenter"",""1"",""3499""
","
","
","""event"",""trial"",""time""
""fullscreenenter"",""1"",""3499""
","
","","","","","","366","images/flower4.png","","","learning","images/plants_choice2.png","images/plants_choice1.png","images/plants_choice3.png","[1,0,2]","0","1","3","images/plants_choice3.png","-1","plants","","flower","2","0"
"html-keyboard-response","94","525398","0.0-9.0-2.0-0.4","1512","2","2","""event"",""trial"",""time""
""fullscreenenter"",""1"",""3499""
","
","
","""event"",""trial"",""time""
""fullscreenenter"",""1"",""3499""
","
","","","","","","null","<div style=""font-size:60px;"">+</div>","null","","fixation","","","","","","","","","","","","","",""
"learning-trial","95","529419","0.0-9.0-2.0-1.4","1512","2","2","""event"",""trial"",""time""
""fullscreenenter"",""1"",""3499""
","
","
","""event"",""trial"",""time""
""fullscreenenter"",""1"",""3499""
","
","","","","","","305.20000000298023","images/flower1.png","","","learning","images/plants_choice3.png","images/plants_choice1.png","images/plants_choice2.png","[2,0,1]","1","2","2","images/plants_choice1.png","-1","plants","","flower","2","0"
"html-keyboard-response","96","529929","0.0-9.0-2.0-0.5","1512","2","2","""event"",""trial"",""time""
""fullscreenenter"",""1"",""3499""
","
","
","""event"",""trial"",""time""
""fullscreenenter"",""1"",""3499""
","
","","","","","","null","<div style=""font-size:60px;"">+</div>","null","","fixation","","","","","","","","","","","","","",""
"learning-trial","97","533939","0.0-9.0-2.0-1.5","1512","2","2","""event"",""trial"",""time""
""fullscreenenter"",""1"",""3499""
","
","
","""event"",""trial"",""time""
""fullscreenenter"",""1"",""3499""
","
","","","","","","365.70000000298023","images/bush4.png","","","learning","images/plants_choice1.png","images/plants_choice2.png","images/plants_choice3.png","[0,1,2]","1","1","2","images/plants_choice2.png","1","plants","","bush","2","0"
"html-keyboard-response","98","534459","0.0-9.0-2.0-0.6","1512","2","2","""event"",""trial"",""time""
""fullscreenenter"",""1"",""3499""
","
","
","""event"",""trial"",""time""
""fullscreenenter"",""1"",""3499""
","
","","","","","","null","<div style=""font-size:60px;"">+</div>","null","","fixation","","","","","","","","","","","","","",""
"learning-trial","99","538463","0.0-9.0-2.0-1.6","1512","2","2","""event"",""trial"",""time""
""fullscreenenter"",""1"",""3499""
","
","
","""event"",""trial"",""time""
""fullscreenenter"",""1"",""3499""
","
","","","","","","1045.5999999940395","images/bush4.png","","","learning","images/plants_choice3.png","images/plants_choice2.png","images/plants_choice1.png","[2,1,0]","1","1","2","images/plants_choice2.png","1","plants","","bush","2","0"
"html-keyboard-response","100","538965","0.0-9.0-2.0-0.7","1512","2","2","""event"",""trial"",""time""
""fullscreenenter"",""1"",""3499""
","
","
","""event"",""trial"",""time""
""fullscreenenter"",""1"",""3499""
","
","","","","","","null","<div style=""font-size:60px;"">+</div>","null","","fixation","","","","","","","","","","","","","",""
"learning-trial","101","542970","0.0-9.0-2.0-1.7","1512","2","2","""event"",""trial"",""time""
""fullscreenenter"",""1"",""3499""
","
","
","""event"",""trial"",""time""
""fullscreenenter"",""1"",""3499""
","
","","","","","","1749","images/flower1.png","","","learning","images/plants_choice1.png","images/plants_choice2.png","images/plants_choice3.png","[0,1,2]","1","1","3","images/plants_choice3.png","-1","plants","","flower","2","0"
"html-keyboard-response","102","543473","0.0-9.0-2.0-0.8","1512","2","2","""event"",""trial"",""time""
""fullscreenenter"",""1"",""3499""
","
","
","""event"",""trial"",""time""
""fullscreenenter"",""1"",""3499""
","
","","","","","","null","<div style=""font-size:60px;"">+</div>","null","","fixation","","","","","","","","","","","","","",""
"learning-trial","103","547480","0.0-9.0-2.0-1.8","1512","2","2","""event"",""trial"",""time""
""fullscreenenter"",""1"",""3499""
","
","
","""event"",""trial"",""time""
""fullscreenenter"",""1"",""3499""
","
","","","","","","2087.2999999970198","images/flower2.png","","","learning","images/plants_choice2.png","images/plants_choice1.png","images/plants_choice3.png","[1,0,2]","2","2","2","images/plants_choice1.png","-1","plants","","flower","2","0"
"html-keyboard-response","104","547983","0.0-9.0-2.0-0.9","1512","2","2","""event"",""trial"",""time""
""fullscreenenter"",""1"",""3499""
","
","
","""event"",""trial"",""time""
""fullscreenenter"",""1"",""3499""
","
","","","","","","null","<div style=""font-size:60px;"">+</div>","null","","fixation","","","","","","","","","","","","","",""
"learning-trial","105","551986","0.0-9.0-2.0-1.9","1512","2","2","""event"",""trial"",""time""
""fullscreenenter"",""1"",""3499""
","
","
","""event"",""trial"",""time""
""fullscreenenter"",""1"",""3499""
","
","","","","","","1829.5","images/tree5.png","","","learning","images/plants_choice2.png","images/plants_choice3.png","images/plants_choice1.png","[1,2,0]","1","0","1","images/plants_choice2.png","-1","plants","","tree","2","0"
"html-keyboard-response","106","552488","0.0-9.0-2.0-0.10","1512","2","2","""event"",""trial"",""time""
""fullscreenenter"",""1"",""3499""
","
","
","""event"",""trial"",""time""
""fullscreenenter"",""1"",""3499""
","
","","","","","","null","<div style=""font-size:60px;"">+</div>","null","","fixation","","","","","","","","","","","","","",""
"learning-trial","107","556493","0.0-9.0-2.0-1.10","1512","2","2","""event"",""trial"",""time""
""fullscreenenter"",""1"",""3499""
","
","
","""event"",""trial"",""time""
""fullscreenenter"",""1"",""3499""
","
","","","","","","1776.3999999910593","images/bush3.png","","","learning","images/plants_choice2.png","images/plants_choice3.png","images/plants_choice1.png","[1,2,0]","0","2","1","images/plants_choice2.png","-1","plants","","bush","2","0"
"html-keyboard-response","108","556996","0.0-9.0-2.0-0.11","1512","2","2","""event"",""trial"",""time""
""fullscreenenter"",""1"",""3499""
","
","
","""event"",""trial"",""time""
""fullscreenenter"",""1"",""3499""
","
","","","","","","null","<div style=""font-size:60px;"">+</div>","null","","fixation","","","","","","","","","","","","","",""
"learning-trial","109","561008","0.0-9.0-2.0-1.11","1512","2","2","""event"",""trial"",""time""
""fullscreenenter"",""1"",""3499""
","
","
","""event"",""trial"",""time""
""fullscreenenter"",""1"",""3499""
","
","","","","","","1708.5999999940395","images/flower2.png","","","learning","images/plants_choice1.png","images/plants_choice2.png","images/plants_choice3.png","[0,1,2]","2","2","2","images/plants_choice2.png","-1","plants","","flower","2","0"
"html-keyboard-response","110","561510","0.0-9.0-2.0-0.12","1512","2","2","""event"",""trial"",""time""
""fullscreenenter"",""1"",""3499""
","
","
","""event"",""trial"",""time""
""fullscreenenter"",""1"",""3499""
","
","","","","","","null","<div style=""font-size:60px;"">+</div>","null","","fixation","","","","","","","","","","","","","",""
"learning-trial","111","565513","0.0-9.0-2.0-1.12","1512","2","2","""event"",""trial"",""time""
""fullscreenenter"",""1"",""3499""
","
","
","""event"",""trial"",""time""
""fullscreenenter"",""1"",""3499""
","
","","","","","","1054.5","images/bush2.png","","","learning","images/plants_choice3.png","images/plants_choice2.png","images/plants_choice1.png","[2,1,0]","2","0","2","images/plants_choice2.png","-1","plants","","bush","2","0"
"html-keyboard-response","112","566016","0.0-9.0-2.0-0.13","1512","2","2","""event"",""trial"",""time""
""fullscreenenter"",""1"",""3499""
","
","
","""event"",""trial"",""time""
""fullscreenenter"",""1"",""3499""
","
","","","","","","null","<div style=""font-size:60px;"">+</div>","null","","fixation","","","","","","","","","","","","","",""
"learning-trial","113","570019","0.0-9.0-2.0-1.13","1512","2","2","""event"",""trial"",""time""
""fullscreenenter"",""1"",""3499""
","
","
","""event"",""trial"",""time""
""fullscreenenter"",""1"",""3499""
","
","","","","","","1366.7000000029802","images/bush3.png","","","learning","images/plants_choice3.png","images/plants_choice1.png","images/plants_choice2.png","[2,0,1]","0","1","3","images/plants_choice2.png","-1","plants","","bush","2","0"
"html-keyboard-response","114","570521","0.0-9.0-2.0-0.14","1512","2","2","""event"",""trial"",""time""
""fullscreenenter"",""1"",""3499""
","
","
","""event"",""trial"",""time""
""fullscreenenter"",""1"",""3499""
","
","","","","","","null","<div style=""font-size:60px;"">+</div>","null","","fixation","","","","","","","","","","","","","",""
"learning-trial","115","574524","0.0-9.0-2.0-1.14","1512","2","2","""event"",""trial"",""time""
""fullscreenenter"",""1"",""3499""
","
","
","""event"",""trial"",""time""
""fullscreenenter"",""1"",""3499""
","
","","","","","","411.90000000596046","images/tree5.png","","","learning","images/plants_choice1.png","images/plants_choice2.png","images/plants_choice3.png","[0,1,2]","1","1","2","images/plants_choice2.png","1","plants","","tree","2","0"
"html-keyboard-response","116","575026","0.0-9.0-2.0-0.15","1512","2","2","""event"",""trial"",""time""
""fullscreenenter"",""1"",""3499""
","
","
","""event"",""trial"",""time""
""fullscreenenter"",""1"",""3499""
","
","","","","","","null","<div style=""font-size:60px;"">+</div>","null","","fixation","","","","","","","","","","","","","",""
"learning-trial","117","579030","0.0-9.0-2.0-1.15","1512","2","2","""event"",""trial"",""time""
""fullscreenenter"",""1"",""3499""
","
","
","""event"",""trial"",""time""
""fullscreenenter"",""1"",""3499""
","
","","","","","","986.4000000059605","images/bush3.png","","","learning","images/plants_choice2.png","images/plants_choice3.png","images/plants_choice1.png","[1,2,0]","0","2","1","images/plants_choice2.png","-1","plants","","bush","2","0"
"html-keyboard-response","118","579532","0.0-9.0-2.0-0.16","1512","2","2","""event"",""trial"",""time""
""fullscreenenter"",""1"",""3499""
","
","
","""event"",""trial"",""time""
""fullscreenenter"",""1"",""3499""
","
","","","","","","null","<div style=""font-size:60px;"">+</div>","null","","fixation","","","","","","","","","","","","","",""
"learning-trial","119","583537","0.0-9.0-2.0-1.16","1512","2","2","""event"",""trial"",""time""
""fullscreenenter"",""1"",""3499""
","
","
","""event"",""trial"",""time""
""fullscreenenter"",""1"",""3499""
","
","","","","","","782","images/flower4.png","","","learning","images/plants_choice1.png","images/plants_choice2.png","images/plants_choice3.png","[0,1,2]","0","0","1","images/plants_choice1.png","1","plants","","flower","2","0"
"html-keyboard-response","120","584040","0.0-9.0-2.0-0.17","1512","2","2","""event"",""trial"",""time""
""fullscreenenter"",""1"",""3499""
","
","
","""event"",""trial"",""time""
""fullscreenenter"",""1"",""3499""
","
","","","","","","null","<div style=""font-size:60px;"">+</div>","null","","fixation","","","","","","","","","","","","","",""
"learning-trial","121","588048","0.0-9.0-2.0-1.17","1512","2","2","""event"",""trial"",""time""
""fullscreenenter"",""1"",""3499""
","
","
","""event"",""trial"",""time""
""fullscreenenter"",""1"",""3499""
","
","","","","","","2208.4000000059605","images/bush3.png","","","learning","images/plants_choice3.png","images/plants_choice1.png","images/plants_choice2.png","[2,0,1]","0","1","3","images/plants_choice2.png","-1","plants","","bush","2","0"
"html-keyboard-response","122","588550","0.0-9.0-2.0-0.18","1512","2","2","""event"",""trial"",""time""
""fullscreenenter"",""1"",""3499""
","
","
","""event"",""trial"",""time""
""fullscreenenter"",""1"",""3499""
","
","","","","","","null","<div style=""font-size:60px;"">+</div>","null","","fixation","","","","","","","","","","","","","",""
"learning-trial","123","592558","0.0-9.0-2.0-1.18","1512","2","2","""event"",""trial"",""time""
""fullscreenenter"",""1"",""3499""
","
","
","""event"",""trial"",""time""
""fullscreenenter"",""1"",""3499""
","
","","","","","","1780.300000011921","images/tree4.png","","","learning","images/plants_choice3.png","images/plants_choice1.png","images/plants_choice2.png","[2,0,1]","0","1","3","images/plants_choice2.png","-1","plants","","tree","2","0"
"html-keyboard-response","124","593061","0.0-9.0-2.0-0.19","1512","2","2","""event"",""trial"",""time""
""fullscreenenter"",""1"",""3499""
","
","
","""event"",""trial"",""time""
""fullscreenenter"",""1"",""3499""
","
","","","","","","null","<div style=""font-size:60px;"">+</div>","null","","fixation","","","","","","","","","","","","","",""
"learning-trial","125","597068","0.0-9.0-2.0-1.19","1512","2","2","""event"",""trial"",""time""
""fullscreenenter"",""1"",""3499""
","
","
","""event"",""trial"",""time""
""fullscreenenter"",""1"",""3499""
","
","","","","","","1589.2000000029802","images/bush4.png","","","learning","images/plants_choice2.png","images/plants_choice3.png","images/plants_choice1.png","[1,2,0]","1","0","1","images/plants_choice2.png","1","plants","","bush","2","0"
"html-keyboard-response","126","597570","0.0-9.0-2.0-0.20","1512","2","2","""event"",""trial"",""time""
""fullscreenenter"",""1"",""3499""
","
","
","""event"",""trial"",""time""
""fullscreenenter"",""1"",""3499""
","
","","","","","","null","<div style=""font-size:60px;"">+</div>","null","","fixation","","","","","","","","","","","","","",""
"learning-trial","127","601576","0.0-9.0-2.0-1.20","1512","2","2","""event"",""trial"",""time""
""fullscreenenter"",""1"",""3499""
","
","
","""event"",""trial"",""time""
""fullscreenenter"",""1"",""3499""
","
","","","","","","1691.1000000089407","images/flower1.png","","","learning","images/plants_choice1.png","images/plants_choice2.png","images/plants_choice3.png","[0,1,2]","1","1","2","images/plants_choice2.png","1","plants","","flower","2","0"
"html-keyboard-response","128","602078","0.0-9.0-2.0-0.21","1512","2","2","""event"",""trial"",""time""
""fullscreenenter"",""1"",""3499""
","
","
","""event"",""trial"",""time""
""fullscreenenter"",""1"",""3499""
","
","","","","","","null","<div style=""font-size:60px;"">+</div>","null","","fixation","","","","","","","","","","","","","",""
"learning-trial","129","606083","0.0-9.0-2.0-1.21","1512","2","2","""event"",""trial"",""time""
""fullscreenenter"",""1"",""3499""
","
","
","""event"",""trial"",""time""
""fullscreenenter"",""1"",""3499""
","
","","","","","","1945.7999999970198","images/flower2.png","","","learning","images/plants_choice2.png","images/plants_choice3.png","images/plants_choice1.png","[1,2,0]","2","1","3","images/plants_choice1.png","-1","plants","","flower","2","0"
"html-keyboard-response","130","606586","0.0-9.0-2.0-0.22","1512","2","2","""event"",""trial"",""time""
""fullscreenenter"",""1"",""3499""
","
","
","""event"",""trial"",""time""
""fullscreenenter"",""1"",""3499""
","
","","","","","","null","<div style=""font-size:60px;"">+</div>","null","","fixation","","","","","","","","","","","","","",""
"learning-trial","131","610593","0.0-9.0-2.0-1.22","1512","2","2","""event"",""trial"",""time""
""fullscreenenter"",""1"",""3499""
","
","
","""event"",""trial"",""time""
""fullscreenenter"",""1"",""3499""
","
","","","","","","2613.3999999910593","images/flower2.png","","","learning","images/plants_choice1.png","images/plants_choice2.png","images/plants_choice3.png","[0,1,2]","2","2","3","images/plants_choice3.png","1","plants","","flower","2","0"
"html-keyboard-response","132","611096","0.0-9.0-2.0-0.23","1512","2","2","""event"",""trial"",""time""
""fullscreenenter"",""1"",""3499""
","
","
","""event"",""trial"",""time""
""fullscreenenter"",""1"",""3499""
","
","","","","","","null","<div style=""font-size:60px;"">+</div>","null","","fixation","","","","","","","","","","","","","",""
"learning-trial","133","615103","0.0-9.0-2.0-1.23","1512","2","2","""event"",""trial"",""time""
""fullscreenenter"",""1"",""3499""
","
","
","""event"",""trial"",""time""
""fullscreenenter"",""1"",""3499""
","
","","","","","","2864.5","images/flower2.png","","","learning","images/plants_choice2.png","images/plants_choice1.png","images/plants_choice3.png","[1,0,2]","2","2","3","images/plants_choice3.png","1","plants","","flower","2","0"
"html-keyboard-response","134","615605","0.0-9.0-2.0-0.24","1512","2","2","""event"",""trial"",""time""
""fullscreenenter"",""1"",""3499""
","
","
","""event"",""trial"",""time""
""fullscreenenter"",""1"",""3499""
","
","","","","","","null","<div style=""font-size:60px;"">+</div>","null","","fixation","","","","","","","","","","","","","",""
"learning-trial","135","619610","0.0-9.0-2.0-1.24","1512","2","2","""event"",""trial"",""time""
""fullscreenenter"",""1"",""3499""
","
","
","""event"",""trial"",""time""
""fullscreenenter"",""1"",""3499""
","
","","","","","","2166","images/bush4.png","","","learning","images/plants_choice3.png","images/plants_choice2.png","images/plants_choice1.png","[2,1,0]","1","1","2","images/plants_choice2.png","1","plants","","bush","2","0"
"html-keyboard-response","136","620112","0.0-9.0-2.0-0.25","1512","2","2","""event"",""trial"",""time""
""fullscreenenter"",""1"",""3499""
","
","
","""event"",""trial"",""time""
""fullscreenenter"",""1"",""3499""
","
","","","","","","null","<div style=""font-size:60px;"">+</div>","null","","fixation","","","","","","","","","","","","","",""
"learning-trial","137","624116","0.0-9.0-2.0-1.25","1512","2","2","""event"",""trial"",""time""
""fullscreenenter"",""1"",""3499""
","
","
","""event"",""trial"",""time""
""fullscreenenter"",""1"",""3499""
","
","","","","","","1772.7000000029802","images/bush2.png","","","learning","images/plants_choice1.png","images/plants_choice2.png","images/plants_choice3.png","[0,1,2]","2","2","2","images/plants_choice2.png","1","plants","","bush","2","0"
"html-keyboard-response","138","624618","0.0-9.0-2.0-0.26","1512","2","2","""event"",""trial"",""time""
""fullscreenenter"",""1"",""3499""
","
","
","""event"",""trial"",""time""
""fullscreenenter"",""1"",""3499""
","
","","","","","","null","<div style=""font-size:60px;"">+</div>","null","","fixation","","","","","","","","","","","","","",""
"learning-trial","139","628623","0.0-9.0-2.0-1.26","1512","2","2","""event"",""trial"",""time""
""fullscreenenter"",""1"",""3499""
","
","
","""event"",""trial"",""time""
""fullscreenenter"",""1"",""3499""
","
","","","","","","1962.699999988079","images/tree4.png","","","learning","images/plants_choice2.png","images/plants_choice1.png","images/plants_choice3.png","[1,0,2]","0","1","1","images/plants_choice2.png","-1","plants","","tree","2","0"
"html-keyboard-response","140","629125","0.0-9.0-2.0-0.27","1512","2","2","""event"",""trial"",""time""
""fullscreenenter"",""1"",""3499""
","
","
","""event"",""trial"",""time""
""fullscreenenter"",""1"",""3499""
","
","","","","","","null","<div style=""font-size:60px;"">+</div>","null","","fixation","","","","","","","","","","","","","",""
"learning-trial","141","633129","0.0-9.0-2.0-1.27","1512","2","2","""event"",""trial"",""time""
""fullscreenenter"",""1"",""3499""
","
","
","""event"",""trial"",""time""
""fullscreenenter"",""1"",""3499""
","
","","","","","","699.2999999970198","images/tree4.png","","","learning","images/plants_choice3.png","images/plants_choice1.png","images/plants_choice2.png","[2,0,1]","0","1","1","images/plants_choice3.png","-1","plants","","tree","2","0"
"html-keyboard-response","142","633631","0.0-9.0-2.0-0.28","1512","2","2","""event"",""trial"",""time""
""fullscreenenter"",""1"",""3499""
","
","
","""event"",""trial"",""time""
""fullscreenenter"",""1"",""3499""
","
","","","","","","null","<div style=""font-size:60px;"">+</div>","null","","fixation","","","","","","","","","","","","","",""
"learning-trial","143","637640","0.0-9.0-2.0-1.28","1512","2","2","""event"",""trial"",""time""
""fullscreenenter"",""1"",""3499""
","
","
","""event"",""trial"",""time""
""fullscreenenter"",""1"",""3499""
","
","","","","","","1895.9000000059605","images/bush3.png","","","learning","images/plants_choice1.png","images/plants_choice2.png","images/plants_choice3.png","[0,1,2]","0","0","1","images/plants_choice1.png","1","plants","","bush","2","0"
"html-keyboard-response","144","638143","0.0-9.0-2.0-0.29","1512","2","2","""event"",""trial"",""time""
""fullscreenenter"",""1"",""3499""
","
","
","""event"",""trial"",""time""
""fullscreenenter"",""1"",""3499""
","
","","","","","","null","<div style=""font-size:60px;"">+</div>","null","","fixation","","","","","","","","","","","","","",""
"learning-trial","145","642149","0.0-9.0-2.0-1.29","1512","2","2","""event"",""trial"",""time""
""fullscreenenter"",""1"",""3499""
","
","
","""event"",""trial"",""time""
""fullscreenenter"",""1"",""3499""
","
","","","","","","1076.7000000029802","images/tree4.png","","","learning","images/plants_choice3.png","images/plants_choice2.png","images/plants_choice1.png","[2,1,0]","0","2","1","images/plants_choice3.png","-1","plants","","tree","2","0"
"html-keyboard-response","146","642652","0.0-9.0-2.0-0.30","1512","2","2","""event"",""trial"",""time""
""fullscreenenter"",""1"",""3499""
","
","
","""event"",""trial"",""time""
""fullscreenenter"",""1"",""3499""
","
","","","","","","null","<div style=""font-size:60px;"">+</div>","null","","fixation","","","","","","","","","","","","","",""
"learning-trial","147","646655","0.0-9.0-2.0-1.30","1512","2","2","""event"",""trial"",""time""
""fullscreenenter"",""1"",""3499""
","
","
","""event"",""trial"",""time""
""fullscreenenter"",""1"",""3499""
","
","","","","","","562.2999999970198","images/bush4.png","","","learning","images/plants_choice3.png","images/plants_choice2.png","images/plants_choice1.png","[2,1,0]","1","1","3","images/plants_choice1.png","-1","plants","","bush","2","0"
"html-keyboard-response","148","647158","0.0-9.0-2.0-0.31","1512","2","2","""event"",""trial"",""time""
""fullscreenenter"",""1"",""3499""
","
","
","""event"",""trial"",""time""
""fullscreenenter"",""1"",""3499""
","
","","","","","","null","<div style=""font-size:60px;"">+</div>","null","","fixation","","","","","","","","","","","","","",""
"learning-trial","149","651165","0.0-9.0-2.0-1.31","1512","2","2","""event"",""trial"",""time""
""fullscreenenter"",""1"",""3499""
","
","
","""event"",""trial"",""time""
""fullscreenenter"",""1"",""3499""
","
","","","","","","672.8999999910593","images/tree3.png","","","learning","images/plants_choice1.png","images/plants_choice2.png","images/plants_choice3.png","[0,1,2]","2","2","2","images/plants_choice2.png","-1","plants","","tree","2","0"
"html-keyboard-response","150","651667","0.0-9.0-2.0-0.32","1512","2","2","""event"",""trial"",""time""
""fullscreenenter"",""1"",""3499""
","
","
","""event"",""trial"",""time""
""fullscreenenter"",""1"",""3499""
","
","","","","","","null","<div style=""font-size:60px;"">+</div>","null","","fixation","","","","","","","","","","","","","",""
"learning-trial","151","655675","0.0-9.0-2.0-1.32","1512","2","2","""event"",""trial"",""time""
""fullscreenenter"",""1"",""3499""
","
","
","""event"",""trial"",""time""
""fullscreenenter"",""1"",""3499""
","
","","","","","","801.7999999970198","images/tree3.png","","","learning","images/plants_choice1.png","images/plants_choice3.png","images/plants_choice2.png","[0,2,1]","2","1","1","images/plants_choice1.png","-1","plants","","tree","2","0"
"html-keyboard-response","152","656177","0.0-9.0-2.0-0.33","1512","2","2","""event"",""trial"",""time""
""fullscreenenter"",""1"",""3499""
","
","
","""event"",""trial"",""time""
""fullscreenenter"",""1"",""3499""
","
","","","","","","null","<div style=""font-size:60px;"">+</div>","null","","fixation","","","","","","","","","","","","","",""
"learning-trial","153","660182","0.0-9.0-2.0-1.33","1512","2","2","""event"",""trial"",""time""
""fullscreenenter"",""1"",""3499""
","
","
","""event"",""trial"",""time""
""fullscreenenter"",""1"",""3499""
","
","","","","","","1514.7999999970198","images/flower1.png","","","learning","images/plants_choice1.png","images/plants_choice2.png","images/plants_choice3.png","[0,1,2]","1","1","2","images/plants_choice2.png","-1","plants","","flower","2","0"
"html-keyboard-response","154","660685","0.0-9.0-2.0-0.34","1512","2","2","""event"",""trial"",""time""
""fullscreenenter"",""1"",""3499""
","
","
","""event"",""trial"",""time""
""fullscreenenter"",""1"",""3499""
","
","","","","","","null","<div style=""font-size:60px;"">+</div>","null","","fixation","","","","","","","","","","","","","",""
"learning-trial","155","664689","0.0-9.0-2.0-1.34","1512","2","2","""event"",""trial"",""time""
""fullscreenenter"",""1"",""3499""
","
","
","""event"",""trial"",""time""
""fullscreenenter"",""1"",""3499""
","
","","","","","","1937.5","images/tree5.png","","","learning","images/plants_choice2.png","images/plants_choice3.png","images/plants_choice1.png","[1,2,0]","1","0","1","images/plants_choice2.png","1","plants","","tree","2","0"
"html-keyboard-response","156","665191","0.0-9.0-2.0-0.35","1512","2","2","""event"",""trial"",""time""
""fullscreenenter"",""1"",""3499""
","
","
","""event"",""trial"",""time""
""fullscreenenter"",""1"",""3499""
","
","","","","","","null","<div style=""font-size:60px;"">+</div>","null","","fixation","","","","","","","","","","","","","",""
"learning-trial","157","669197","0.0-9.0-2.0-1.35","1512","2","2","""event"",""trial"",""time""
""fullscreenenter"",""1"",""3499""
","
","
","""event"",""trial"",""time""
""fullscreenenter"",""1"",""3499""
","
","","","","","","1752.5999999940395","images/bush3.png","","","learning","images/plants_choice2.png","images/plants_choice3.png","images/plants_choice1.png","[1,2,0]","0","2","3","images/plants_choice1.png","1","plants","","bush","2","0"
"html-keyboard-response","158","669701","0.0-9.0-2.0-0.36","1512","2","2","""event"",""trial"",""time""
""fullscreenenter"",""1"",""3499""
","
","
","""event"",""trial"",""time""
""fullscreenenter"",""1"",""3499""
","
","","","","","","null","<div style=""font-size:60px;"">+</div>","null","","fixation","","","","","","","","","","","","","",""
"learning-trial","159","673704","0.0-9.0-2.0-1.36","1512","2","2","""event"",""trial"",""time""
""fullscreenenter"",""1"",""3499""
","
","
","""event"",""trial"",""time""
""fullscreenenter"",""1"",""3499""
","
","","","","","","682","images/bush3.png","","","learning","images/plants_choice3.png","images/plants_choice2.png","images/plants_choice1.png","[2,1,0]","0","2","3","images/plants_choice1.png","1","plants","","bush","2","0"
"html-keyboard-response","160","674206","0.0-9.0-2.0-0.37","1512","2","2","""event"",""trial"",""time""
""fullscreenenter"",""1"",""3499""
","
","
","""event"",""trial"",""time""
""fullscreenenter"",""1"",""3499""
","
","","","","","","null","<div style=""font-size:60px;"">+</div>","null","","fixation","","","","","","","","","","","","","",""
"learning-trial","161","678211","0.0-9.0-2.0-1.37","1512","2","2","""event"",""trial"",""time""
""fullscreenenter"",""1"",""3499""
","
","
","""event"",""trial"",""time""
""fullscreenenter"",""1"",""3499""
","
","","","","","","1013.9000000059605","images/bush2.png","","","learning","images/plants_choice3.png","images/plants_choice1.png","images/plants_choice2.png","[2,0,1]","2","0","2","images/plants_choice1.png","-1","plants","","bush","2","0"
"html-keyboard-response","162","678713","0.0-9.0-2.0-0.38","1512","2","2","""event"",""trial"",""time""
""fullscreenenter"",""1"",""3499""
","
","
","""event"",""trial"",""time""
""fullscreenenter"",""1"",""3499""
","
","","","","","","null","<div style=""font-size:60px;"">+</div>","null","","fixation","","","","","","","","","","","","","",""
"learning-trial","163","682719","0.0-9.0-2.0-1.38","1512","2","2","""event"",""trial"",""time""
""fullscreenenter"",""1"",""3499""
","
","
","""event"",""trial"",""time""
""fullscreenenter"",""1"",""3499""
","
","","","","","","1265.2999999970198","images/flower4.png","","","learning","images/plants_choice3.png","images/plants_choice1.png","images/plants_choice2.png","[2,0,1]","0","1","2","images/plants_choice1.png","1","plants","","flower","2","0"
"html-keyboard-response","164","683221","0.0-9.0-2.0-0.39","1512","2","2","""event"",""trial"",""time""
""fullscreenenter"",""1"",""3499""
","
","
","""event"",""trial"",""time""
""fullscreenenter"",""1"",""3499""
","
","","","","","","null","<div style=""font-size:60px;"">+</div>","null","","fixation","","","","","","","","","","","","","",""
"learning-trial","165","687223","0.0-9.0-2.0-1.39","1512","2","2","""event"",""trial"",""time""
""fullscreenenter"",""1"",""3499""
","
","
","""event"",""trial"",""time""
""fullscreenenter"",""1"",""3499""
","
","","","","","","1751.5","images/tree4.png","","","learning","images/plants_choice2.png","images/plants_choice1.png","images/plants_choice3.png","[1,0,2]","0","1","3","images/plants_choice3.png","-1","plants","","tree","2","0"
"html-keyboard-response","166","687727","0.0-9.0-2.0-0.40","1512","2","2","""event"",""trial"",""time""
""fullscreenenter"",""1"",""3499""
","
","
","""event"",""trial"",""time""
""fullscreenenter"",""1"",""3499""
","
","","","","","","null","<div style=""font-size:60px;"">+</div>","null","","fixation","","","","","","","","","","","","","",""
"learning-trial","167","691730","0.0-9.0-2.0-1.40","1512","2","2","""event"",""trial"",""time""
""fullscreenenter"",""1"",""3499""
","
","
","""event"",""trial"",""time""
""fullscreenenter"",""1"",""3499""
","
","","","","","","925.0999999940395","images/tree4.png","","","learning","images/plants_choice3.png","images/plants_choice1.png","images/plants_choice2.png","[2,0,1]","0","1","2","images/plants_choice1.png","-1","plants","","tree","2","0"
"html-keyboard-response","168","692232","0.0-9.0-2.0-0.41","1512","2","2","""event"",""trial"",""time""
""fullscreenenter"",""1"",""3499""
","
","
","""event"",""trial"",""time""
""fullscreenenter"",""1"",""3499""
","
","","","","","","null","<div style=""font-size:60px;"">+</div>","null","","fixation","","","","","","","","","","","","","",""
"learning-trial","169","696237","0.0-9.0-2.0-1.41","1512","2","2","""event"",""trial"",""time""
""fullscreenenter"",""1"",""3499""
","
","
","""event"",""trial"",""time""
""fullscreenenter"",""1"",""3499""
","
","","","","","","1719.199999988079","images/bush4.png","","","learning","images/plants_choice3.png","images/plants_choice1.png","images/plants_choice2.png","[2,0,1]","1","2","3","images/plants_choice2.png","1","plants","","bush","2","0"
"html-keyboard-response","170","696739","0.0-9.0-2.0-0.42","1512","2","2","""event"",""trial"",""time""
""fullscreenenter"",""1"",""3499""
","
","
","""event"",""trial"",""time""
""fullscreenenter"",""1"",""3499""
","
","","","","","","null","<div style=""font-size:60px;"">+</div>","null","","fixation","","","","","","","","","","","","","",""
"learning-trial","171","700745","0.0-9.0-2.0-1.42","1512","2","2","""event"",""trial"",""time""
""fullscreenenter"",""1"",""3499""
","
","
","""event"",""trial"",""time""
""fullscreenenter"",""1"",""3499""
","
","","","","","","1301.800000011921","images/tree3.png","","","learning","images/plants_choice1.png","images/plants_choice2.png","images/plants_choice3.png","[0,1,2]","2","2","2","images/plants_choice2.png","-1","plants","","tree","2","0"
"html-keyboard-response","172","701248","0.0-9.0-2.0-0.43","1512","2","2","""event"",""trial"",""time""
""fullscreenenter"",""1"",""3499""
","
","
","""event"",""trial"",""time""
""fullscreenenter"",""1"",""3499""
","
","","","","","","null","<div style=""font-size:60px;"">+</div>","null","","fixation","","","","","","","","","","","","","",""
"learning-trial","173","705254","0.0-9.0-2.0-1.43","1512","2","2","""event"",""trial"",""time""
""fullscreenenter"",""1"",""3499""
","
","
","""event"",""trial"",""time""
""fullscreenenter"",""1"",""3499""
","
","","","","","","1182.2000000029802","images/flower4.png","","","learning","images/plants_choice2.png","images/plants_choice1.png","images/plants_choice3.png","[1,0,2]","0","1","2","images/plants_choice1.png","1","plants","","flower","2","0"
"html-keyboard-response","174","705757","0.0-9.0-2.0-0.44","1512","2","2","""event"",""trial"",""time""
""fullscreenenter"",""1"",""3499""
","
","
","""event"",""trial"",""time""
""fullscreenenter"",""1"",""3499""
","
","","","","","","null","<div style=""font-size:60px;"">+</div>","null","","fixation","","","","","","","","","","","","","",""
"learning-trial","175","709763","0.0-9.0-2.0-1.44","1512","2","2","""event"",""trial"",""time""
""fullscreenenter"",""1"",""3499""
","
","
","""event"",""trial"",""time""
""fullscreenenter"",""1"",""3499""
","
","","","","","","1083.5","images/flower4.png","","","learning","images/plants_choice1.png","images/plants_choice3.png","images/plants_choice2.png","[0,2,1]","0","0","1","images/plants_choice1.png","1","plants","","flower","2","0"
"html-keyboard-response","176","710265","0.0-9.0-2.0-0.45","1512","2","2","""event"",""trial"",""time""
""fullscreenenter"",""1"",""3499""
","
","
","""event"",""trial"",""time""
""fullscreenenter"",""1"",""3499""
","
","","","","","","null","<div style=""font-size:60px;"">+</div>","null","","fixation","","","","","","","","","","","","","",""
"learning-trial","177","714270","0.0-9.0-2.0-1.45","1512","2","2","""event"",""trial"",""time""
""fullscreenenter"",""1"",""3499""
","
","
","""event"",""trial"",""time""
""fullscreenenter"",""1"",""3499""
","
","","","","","","1534.8999999910593","images/flower4.png","","","learning","images/plants_choice2.png","images/plants_choice1.png","images/plants_choice3.png","[1,0,2]","0","1","2","images/plants_choice1.png","1","plants","","flower","2","0"
"html-keyboard-response","178","714773","0.0-9.0-2.0-0.46","1512","2","2","""event"",""trial"",""time""
""fullscreenenter"",""1"",""3499""
","
","
","""event"",""trial"",""time""
""fullscreenenter"",""1"",""3499""
","
","","","","","","null","<div style=""font-size:60px;"">+</div>","null","","fixation","","","","","","","","","","","","","",""
"learning-trial","179","718778","0.0-9.0-2.0-1.46","1512","2","2","""event"",""trial"",""time""
""fullscreenenter"",""1"",""3499""
","
","
","""event"",""trial"",""time""
""fullscreenenter"",""1"",""3499""
","
","","","","","","1377.9000000059605","images/tree5.png","","","learning","images/plants_choice1.png","images/plants_choice2.png","images/plants_choice3.png","[0,1,2]","1","1","3","images/plants_choice3.png","-1","plants","","tree","2","0"
"html-keyboard-response","180","719280","0.0-9.0-2.0-0.47","1512","2","2","""event"",""trial"",""time""
""fullscreenenter"",""1"",""3499""
","
","
","""event"",""trial"",""time""
""fullscreenenter"",""1"",""3499""
","
","","","","","","null","<div style=""font-size:60px;"">+</div>","null","","fixation","","","","","","","","","","","","","",""
"learning-trial","181","723284","0.0-9.0-2.0-1.47","1512","2","2","""event"",""trial"",""time""
""fullscreenenter"",""1"",""3499""
","
","
","""event"",""trial"",""time""
""fullscreenenter"",""1"",""3499""
","
","","","","","","1521.5999999940395","images/tree3.png","","","learning","images/plants_choice1.png","images/plants_choice2.png","images/plants_choice3.png","[0,1,2]","2","2","2","images/plants_choice2.png","-1","plants","","tree","2","0"
"html-keyboard-response","182","723786","0.0-9.0-2.0-0.48","1512","2","2","""event"",""trial"",""time""
""fullscreenenter"",""1"",""3499""
","
","
","""event"",""trial"",""time""
""fullscreenenter"",""1"",""3499""
","
","","","","","","null","<div style=""font-size:60px;"">+</div>","null","","fixation","","","","","","","","","","","","","",""
"learning-trial","183","727802","0.0-9.0-2.0-1.48","1512","2","2","""event"",""trial"",""time""
""fullscreenenter"",""1"",""3499""
","
","
","""event"",""trial"",""time""
""fullscreenenter"",""1"",""3499""
","
","","","","","","1536.2999999970198","images/bush2.png","","","learning","images/plants_choice3.png","images/plants_choice1.png","images/plants_choice2.png","[2,0,1]","2","0","3","images/plants_choice2.png","1","plants","","bush","2","0"
"html-keyboard-response","184","728305","0.0-9.0-2.0-0.49","1512","2","2","""event"",""trial"",""time""
""fullscreenenter"",""1"",""3499""
","
","
","""event"",""trial"",""time""
""fullscreenenter"",""1"",""3499""
","
","","","","","","null","<div style=""font-size:60px;"">+</div>","null","","fixation","","","","","","","","","","","","","",""
"learning-trial","185","732309","0.0-9.0-2.0-1.49","1512","2","2","""event"",""trial"",""time""
""fullscreenenter"",""1"",""3499""
","
","
","""event"",""trial"",""time""
""fullscreenenter"",""1"",""3499""
","
","","","","","","1047.300000011921","images/tree5.png","","","learning","images/plants_choice1.png","images/plants_choice2.png","images/plants_choice3.png","[0,1,2]","1","1","2","images/plants_choice2.png","1","plants","","tree","2","0"
"html-keyboard-response","186","732812","0.0-9.0-2.0-0.50","1512","2","2","""event"",""trial"",""time""
""fullscreenenter"",""1"",""3499""
","
","
","""event"",""trial"",""time""
""fullscreenenter"",""1"",""3499""
","
","","","","","","null","<div style=""font-size:60px;"">+</div>","null","","fixation","","","","","","","","","","","","","",""
"learning-trial","187","736818","0.0-9.0-2.0-1.50","1512","2","2","""event"",""trial"",""time""
""fullscreenenter"",""1"",""3499""
","
","
","""event"",""trial"",""time""
""fullscreenenter"",""1"",""3499""
","
","","","","","","648.5","images/tree5.png","","","learning","images/plants_choice2.png","images/plants_choice1.png","images/plants_choice3.png","[1,0,2]","1","0","2","images/plants_choice1.png","-1","plants","","tree","2","0"
"html-keyboard-response","188","737321","0.0-9.0-2.0-0.51","1512","2","2","""event"",""trial"",""time""
""fullscreenenter"",""1"",""3499""
","
","
","""event"",""trial"",""time""
""fullscreenenter"",""1"",""3499""
","
","","","","","","null","<div style=""font-size:60px;"">+</div>","null","","fixation","","","","","","","","","","","","","",""
"learning-trial","189","741324","0.0-9.0-2.0-1.51","1512","2","2","""event"",""trial"",""time""
""fullscreenenter"",""1"",""3499""
","
","
","""event"",""trial"",""time""
""fullscreenenter"",""1"",""3499""
","
","","","","","","1551.7999999970198","images/tree3.png","","","learning","images/plants_choice2.png","images/plants_choice3.png","images/plants_choice1.png","[1,2,0]","2","1","3","images/plants_choice1.png","-1","plants","","tree","2","0"
"html-keyboard-response","190","741826","0.0-9.0-2.0-0.52","1512","2","2","""event"",""trial"",""time""
""fullscreenenter"",""1"",""3499""
","
","
","""event"",""trial"",""time""
""fullscreenenter"",""1"",""3499""
","
","","","","","","null","<div style=""font-size:60px;"">+</div>","null","","fixation","","","","","","","","","","","","","",""
"learning-trial","191","745830","0.0-9.0-2.0-1.52","1512","2","2","""event"",""trial"",""time""
""fullscreenenter"",""1"",""3499""
","
","
","""event"",""trial"",""time""
""fullscreenenter"",""1"",""3499""
","
","","","","","","1585.9000000059605","images/bush4.png","","","learning","images/plants_choice1.png","images/plants_choice3.png","images/plants_choice2.png","[0,2,1]","1","2","3","images/plants_choice2.png","1","plants","","bush","2","0"
"html-keyboard-response","192","746332","0.0-9.0-2.0-0.53","1512","2","2","""event"",""trial"",""time""
""fullscreenenter"",""1"",""3499""
","
","
","""event"",""trial"",""time""
""fullscreenenter"",""1"",""3499""
","
","","","","","","null","<div style=""font-size:60px;"">+</div>","null","","fixation","","","","","","","","","","","","","",""
"learning-trial","193","750339","0.0-9.0-2.0-1.53","1512","2","2","""event"",""trial"",""time""
""fullscreenenter"",""1"",""3499""
","
","
","""event"",""trial"",""time""
""fullscreenenter"",""1"",""3499""
","
","","","","","","1217","images/flower4.png","","","learning","images/plants_choice1.png","images/plants_choice3.png","images/plants_choice2.png","[0,2,1]","0","0","1","images/plants_choice1.png","1","plants","","flower","2","0"
"html-keyboard-response","194","750841","0.0-9.0-2.0-0.54","1512","2","2","""event"",""trial"",""time""
""fullscreenenter"",""1"",""3499""
","
","
","""event"",""trial"",""time""
""fullscreenenter"",""1"",""3499""
","
","","","","","","null","<div style=""font-size:60px;"">+</div>","null","","fixation","","","","","","","","","","","","","",""
"learning-trial","195","754847","0.0-9.0-2.0-1.54","1512","2","2","""event"",""trial"",""time""
""fullscreenenter"",""1"",""3499""
","
","
","""event"",""trial"",""time""
""fullscreenenter"",""1"",""3499""
","
","","","","","","1198.1000000089407","images/flower1.png","","","learning","images/plants_choice2.png","images/plants_choice3.png","images/plants_choice1.png","[1,2,0]","1","0","2","images/plants_choice3.png","-1","plants","","flower","2","0"
"html-keyboard-response","196","755349","0.0-9.0-2.0-0.55","1512","2","2","""event"",""trial"",""time""
""fullscreenenter"",""1"",""3499""
","
","
","""event"",""trial"",""time""
""fullscreenenter"",""1"",""3499""
","
","","","","","","null","<div style=""font-size:60px;"">+</div>","null","","fixation","","","","","","","","","","","","","",""
"learning-trial","197","759355","0.0-9.0-2.0-1.55","1512","2","2","""event"",""trial"",""time""
""fullscreenenter"",""1"",""3499""
","
","
","""event"",""trial"",""time""
""fullscreenenter"",""1"",""3499""
","
","","","","","","1150.8999999910593","images/tree4.png","","","learning","images/plants_choice1.png","images/plants_choice2.png","images/plants_choice3.png","[0,1,2]","0","0","2","images/plants_choice2.png","-1","plants","","tree","2","0"
"html-keyboard-response","198","759857","0.0-9.0-2.0-0.56","1512","2","2","""event"",""trial"",""time""
""fullscreenenter"",""1"",""3499""
","
","
","""event"",""trial"",""time""
""fullscreenenter"",""1"",""3499""
","
","","","","","","null","<div style=""font-size:60px;"">+</div>","null","","fixation","","","","","","","","","","","","","",""
"learning-trial","199","763863","0.0-9.0-2.0-1.56","1512","2","2","""event"",""trial"",""time""
""fullscreenenter"",""1"",""3499""
","
","
","""event"",""trial"",""time""
""fullscreenenter"",""1"",""3499""
","
","","","","","","1152.7000000029802","images/tree5.png","","","learning","images/plants_choice2.png","images/plants_choice1.png","images/plants_choice3.png","[1,0,2]","1","0","1","images/plants_choice2.png","1","plants","","tree","2","0"
"html-keyboard-response","200","764365","0.0-9.0-2.0-0.57","1512","2","2","""event"",""trial"",""time""
""fullscreenenter"",""1"",""3499""
","
","
","""event"",""trial"",""time""
""fullscreenenter"",""1"",""3499""
","
","","","","","","null","<div style=""font-size:60px;"">+</div>","null","","fixation","","","","","","","","","","","","","",""
"learning-trial","201","768373","0.0-9.0-2.0-1.57","1512","2","2","""event"",""trial"",""time""
""fullscreenenter"",""1"",""3499""
","
","
","""event"",""trial"",""time""
""fullscreenenter"",""1"",""3499""
","
","","","","","","1965.5","images/tree4.png","","","learning","images/plants_choice3.png","images/plants_choice1.png","images/plants_choice2.png","[2,0,1]","0","1","2","images/plants_choice1.png","1","plants","","tree","2","0"
"html-keyboard-response","202","768876","0.0-9.0-2.0-0.58","1512","2","2","""event"",""trial"",""time""
""fullscreenenter"",""1"",""3499""
","
","
","""event"",""trial"",""time""
""fullscreenenter"",""1"",""3499""
","
","","","","","","null","<div style=""font-size:60px;"">+</div>","null","","fixation","","","","","","","","","","","","","",""
"learning-trial","203","772881","0.0-9.0-2.0-1.58","1512","2","2","""event"",""trial"",""time""
""fullscreenenter"",""1"",""3499""
","
","
","""event"",""trial"",""time""
""fullscreenenter"",""1"",""3499""
","
","","","","","","1284.7000000029802","images/flower1.png","","","learning","images/plants_choice2.png","images/plants_choice3.png","images/plants_choice1.png","[1,2,0]","1","0","3","images/plants_choice1.png","-1","plants","","flower","2","0"
"html-keyboard-response","204","773383","0.0-9.0-2.0-0.59","1512","2","2","""event"",""trial"",""time""
""fullscreenenter"",""1"",""3499""
","
","
","""event"",""trial"",""time""
""fullscreenenter"",""1"",""3499""
","
","","","","","","null","<div style=""font-size:60px;"">+</div>","null","","fixation","","","","","","","","","","","","","",""
"learning-trial","205","777388","0.0-9.0-2.0-1.59","1512","2","2","""event"",""trial"",""time""
""fullscreenenter"",""1"",""3499""
","
","
","""event"",""trial"",""time""
""fullscreenenter"",""1"",""3499""
","
","","","","","","1176.9000000059605","images/flower2.png","","","learning","images/plants_choice3.png","images/plants_choice1.png","images/plants_choice2.png","[2,0,1]","2","0","2","images/plants_choice1.png","-1","plants","","flower","2","0"
"html-keyboard-response","206","777891","0.0-9.0-2.0-0.60","1512","2","2","""event"",""trial"",""time""
""fullscreenenter"",""1"",""3499""
","
","
","""event"",""trial"",""time""
""fullscreenenter"",""1"",""3499""
","
","","","","","","null","<div style=""font-size:60px;"">+</div>","null","","fixation","","","","","","","","","","","","","",""
"learning-trial","207","781897","0.0-9.0-2.0-1.60","1512","2","2","""event"",""trial"",""time""
""fullscreenenter"",""1"",""3499""
","
","
","""event"",""trial"",""time""
""fullscreenenter"",""1"",""3499""
","
","","","","","","899.5","images/bush2.png","","","learning","images/plants_choice1.png","images/plants_choice2.png","images/plants_choice3.png","[0,1,2]","2","2","3","images/plants_choice3.png","1","plants","","bush","2","0"
"html-keyboard-response","208","782399","0.0-9.0-2.0-0.61","1512","2","2","""event"",""trial"",""time""
""fullscreenenter"",""1"",""3499""
","
","
","""event"",""trial"",""time""
""fullscreenenter"",""1"",""3499""
","
","","","","","","null","<div style=""font-size:60px;"">+</div>","null","","fixation","","","","","","","","","","","","","",""
"learning-trial","209","786404","0.0-9.0-2.0-1.61","1512","2","2","""event"",""trial"",""time""
""fullscreenenter"",""1"",""3499""
","
","
","""event"",""trial"",""time""
""fullscreenenter"",""1"",""3499""
","
","","","","","","1450.7000000029802","images/bush3.png","","","learning","images/plants_choice3.png","images/plants_choice2.png","images/plants_choice1.png","[2,1,0]","0","2","2","images/plants_choice2.png","-1","plants","","bush","2","0"
"html-keyboard-response","210","786906","0.0-9.0-2.0-0.62","1512","2","2","""event"",""trial"",""time""
""fullscreenenter"",""1"",""3499""
","
","
","""event"",""trial"",""time""
""fullscreenenter"",""1"",""3499""
","
","","","","","","null","<div style=""font-size:60px;"">+</div>","null","","fixation","","","","","","","","","","","","","",""
"learning-trial","211","790911","0.0-9.0-2.0-1.62","1512","2","2","""event"",""trial"",""time""
""fullscreenenter"",""1"",""3499""
","
","
","""event"",""trial"",""time""
""fullscreenenter"",""1"",""3499""
","
","","","","","","1472.7999999970198","images/flower2.png","","","learning","images/plants_choice3.png","images/plants_choice1.png","images/plants_choice2.png","[2,0,1]","2","0","3","images/plants_choice2.png","-1","plants","","flower","2","0"
"html-keyboard-response","212","791413","0.0-9.0-2.0-0.63","1512","2","2","""event"",""trial"",""time""
""fullscreenenter"",""1"",""3499""
","
","
","""event"",""trial"",""time""
""fullscreenenter"",""1"",""3499""
","
","","","","","","null","<div style=""font-size:60px;"">+</div>","null","","fixation","","","","","","","","","","","","","",""
"learning-trial","213","795419","0.0-9.0-2.0-1.63","1512","2","2","""event"",""trial"",""time""
""fullscreenenter"",""1"",""3499""
","
","
","""event"",""trial"",""time""
""fullscreenenter"",""1"",""3499""
","
","","","","","","1987.0999999940395","images/bush2.png","","","learning","images/plants_choice2.png","images/plants_choice1.png","images/plants_choice3.png","[1,0,2]","2","2","1","images/plants_choice2.png","-1","plants","","bush","2","0"
"html-keyboard-response","214","795922","0.0-9.0-2.0-0.64","1512","2","2","""event"",""trial"",""time""
""fullscreenenter"",""1"",""3499""
","
","
","""event"",""trial"",""time""
""fullscreenenter"",""1"",""3499""
","
","","","","","","null","<div style=""font-size:60px;"">+</div>","null","","fixation","","","","","","","","","","","","","",""
"learning-trial","215","799927","0.0-9.0-2.0-1.64","1512","2","2","""event"",""trial"",""time""
""fullscreenenter"",""1"",""3499""
","
","
","""event"",""trial"",""time""
""fullscreenenter"",""1"",""3499""
","
","","","","","","1418.2999999970198","images/tree3.png","","","learning","images/plants_choice1.png","images/plants_choice3.png","images/plants_choice2.png","[0,2,1]","2","1","2","images/plants_choice3.png","1","plants","","tree","2","0"
"html-keyboard-response","216","800430","0.0-9.0-2.0-0.65","1512","2","2","""event"",""trial"",""time""
""fullscreenenter"",""1"",""3499""
","
","
","""event"",""trial"",""time""
""fullscreenenter"",""1"",""3499""
","
","","","","","","null","<div style=""font-size:60px;"">+</div>","null","","fixation","","","","","","","","","","","","","",""
"learning-trial","217","804436","0.0-9.0-2.0-1.65","1512","2","2","""event"",""trial"",""time""
""fullscreenenter"",""1"",""3499""
","
","
","""event"",""trial"",""time""
""fullscreenenter"",""1"",""3499""
","
","","","","","","1169.5","images/bush4.png","","","learning","images/plants_choice1.png","images/plants_choice2.png","images/plants_choice3.png","[0,1,2]","1","1","2","images/plants_choice2.png","1","plants","","bush","2","0"
"html-keyboard-response","218","804939","0.0-9.0-2.0-0.66","1512","2","2","""event"",""trial"",""time""
""fullscreenenter"",""1"",""3499""
","
","
","""event"",""trial"",""time""
""fullscreenenter"",""1"",""3499""
","
","","","","","","null","<div style=""font-size:60px;"">+</div>","null","","fixation","","","","","","","","","","","","","",""
"learning-trial","219","808945","0.0-9.0-2.0-1.66","1512","2","2","""event"",""trial"",""time""
""fullscreenenter"",""1"",""3499""
","
","
","""event"",""trial"",""time""
""fullscreenenter"",""1"",""3499""
","
","","","","","","811.7999999970198","images/flower2.png","","","learning","images/plants_choice3.png","images/plants_choice1.png","images/plants_choice2.png","[2,0,1]","2","0","3","images/plants_choice2.png","-1","plants","","flower","2","0"
"html-keyboard-response","220","809448","0.0-9.0-2.0-0.67","1512","2","2","""event"",""trial"",""time""
""fullscreenenter"",""1"",""3499""
","
","
","""event"",""trial"",""time""
""fullscreenenter"",""1"",""3499""
","
","","","","","","null","<div style=""font-size:60px;"">+</div>","null","","fixation","","","","","","","","","","","","","",""
"learning-trial","221","813454","0.0-9.0-2.0-1.67","1512","2","2","""event"",""trial"",""time""
""fullscreenenter"",""1"",""3499""
","
","
","""event"",""trial"",""time""
""fullscreenenter"",""1"",""3499""
","
","","","","","","1392.4000000059605","images/bush2.png","","","learning","images/plants_choice2.png","images/plants_choice1.png","images/plants_choice3.png","[1,0,2]","2","2","1","images/plants_choice2.png","-1","plants","","bush","2","0"
"html-keyboard-response","222","813957","0.0-9.0-2.0-0.68","1512","2","2","""event"",""trial"",""time""
""fullscreenenter"",""1"",""3499""
","
","
","""event"",""trial"",""time""
""fullscreenenter"",""1"",""3499""
","
","","","","","","null","<div style=""font-size:60px;"">+</div>","null","","fixation","","","","","","","","","","","","","",""
"learning-trial","223","817963","0.0-9.0-2.0-1.68","1512","2","2","""event"",""trial"",""time""
""fullscreenenter"",""1"",""3499""
","
","
","""event"",""trial"",""time""
""fullscreenenter"",""1"",""3499""
","
","","","","","","1022.5","images/tree3.png","","","learning","images/plants_choice1.png","images/plants_choice2.png","images/plants_choice3.png","[0,1,2]","2","2","3","images/plants_choice3.png","1","plants","","tree","2","0"
"html-keyboard-response","224","818465","0.0-9.0-2.0-0.69","1512","2","2","""event"",""trial"",""time""
""fullscreenenter"",""1"",""3499""
","
","
","""event"",""trial"",""time""
""fullscreenenter"",""1"",""3499""
","
","","","","","","null","<div style=""font-size:60px;"">+</div>","null","","fixation","","","","","","","","","","","","","",""
"learning-trial","225","822469","0.0-9.0-2.0-1.69","1512","2","2","""event"",""trial"",""time""
""fullscreenenter"",""1"",""3499""
","
","
","""event"",""trial"",""time""
""fullscreenenter"",""1"",""3499""
","
","","","","","","1238.4000000059605","images/flower1.png","","","learning","images/plants_choice3.png","images/plants_choice1.png","images/plants_choice2.png","[2,0,1]","1","2","3","images/plants_choice2.png","1","plants","","flower","2","0"
"html-keyboard-response","226","822972","0.0-9.0-2.0-0.70","1512","2","2","""event"",""trial"",""time""
""fullscreenenter"",""1"",""3499""
","
","
","""event"",""trial"",""time""
""fullscreenenter"",""1"",""3499""
","
","","","","","","null","<div style=""font-size:60px;"">+</div>","null","","fixation","","","","","","","","","","","","","",""
"learning-trial","227","826979","0.0-9.0-2.0-1.70","1512","2","2","""event"",""trial"",""time""
""fullscreenenter"",""1"",""3499""
","
","
","""event"",""trial"",""time""
""fullscreenenter"",""1"",""3499""
","
","","","","","","1487","images/tree5.png","","","learning","images/plants_choice1.png","images/plants_choice3.png","images/plants_choice2.png","[0,2,1]","1","2","3","images/plants_choice2.png","-1","plants","","tree","2","0"
"html-keyboard-response","228","827481","0.0-9.0-2.0-0.71","1512","2","2","""event"",""trial"",""time""
""fullscreenenter"",""1"",""3499""
","
","
","""event"",""trial"",""time""
""fullscreenenter"",""1"",""3499""
","
","","","","","","null","<div style=""font-size:60px;"">+</div>","null","","fixation","","","","","","","","","","","","","",""
"learning-trial","229","831487","0.0-9.0-2.0-1.71","1512","2","2","""event"",""trial"",""time""
""fullscreenenter"",""1"",""3499""
","
","
","""event"",""trial"",""time""
""fullscreenenter"",""1"",""3499""
","
","","","","","","2047.5","images/flower4.png","","","learning","images/plants_choice3.png","images/plants_choice2.png","images/plants_choice1.png","[2,1,0]","0","2","3","images/plants_choice1.png","1","plants","","flower","2","0"
"html-button-response","230","846586","0.0-9.0-3.0","1512","2","2","""event"",""trial"",""time""
""fullscreenenter"",""1"",""3499""
","
","
","""event"",""trial"",""time""
""fullscreenenter"",""1"",""3499""
","
","","","","","","15095.40000000596","<p> You have completed the round! <p> In this round, you earned -10 points! </p>","0","","break","","","","","","","","","","","","","",""
"html-button-response","231","850773","0.0-10.0","1512","2","2","""event"",""trial"",""time""
""fullscreenenter"",""1"",""3499""
","
","
","""event"",""trial"",""time""
""fullscreenenter"",""1"",""3499""
","
","","","","","","4183.600000008941","<p> Now it's time to play another round. </p>","0","","transition_screen","","","","","","","","","","","","","",""
"preload","232","862361","0.0-11.0-0.0","1512","2","2","""event"",""trial"",""time""
""fullscreenenter"",""1"",""3499""
","
","
","""event"",""trial"",""time""
""fullscreenenter"",""1"",""3499""
","
","true","false","[]","[]","[]","","","","","","","","","","","","","","","","","","",""
"learning-instructions","233","874671","0.0-11.0-1.0-0.0","1512","2","2","""event"",""trial"",""time""
""fullscreenenter"",""1"",""3499""
","
","
","""event"",""trial"",""time""
""fullscreenenter"",""1"",""3499""
","
","","","","","","3838.7000000029802","<p> Your goal in this round is to deliver furniture to three different buildings. </p><p> You will need to deliver many pieces of furniture. </p></div>","","0","instructions","","","","","","","","","","","","","",""
"learning-instructions","234","882906","0.0-11.0-1.0-0.1","1512","2","2","""event"",""trial"",""time""
""fullscreenenter"",""1"",""3499""
","
","
","""event"",""trial"",""time""
""fullscreenenter"",""1"",""3499""
","
","","","","","","783.7999999970198","<p> On each turn, you will see a picture of a furniture item and three different buildings.  </p><p> You need to select the building that you want to deliver the furniture to.  </p>","","0","instructions","","","","","","","","","","","","","",""
"learning-instructions","235","893437","0.0-11.0-1.0-0.2","1512","2","2","""event"",""trial"",""time""
""fullscreenenter"",""1"",""3499""
","
","
","""event"",""trial"",""time""
""fullscreenenter"",""1"",""3499""
","
","","","","","","2232.5999999940395","<p> You can select the building on the left by pressing 1, the building in the middle by pressing 2, and the building on the right by pressing 3.  </p><br><div class=""choice-instructions-grid""> <div class=""choice-option""><img src=""images/furniture_choice1.png"" class=""choice-option-img"" stage=""instructions"" position=""0"" ><div class=""choice-option-text""> Press ""1."" </div></div><div class=""choice-option""><img src=""images/furniture_choice2.png"" class=""choice-option-img"" stage=""instructions"" position=""1"" ><div class=""choice-option-text""> Press ""2."" </div></div><div class=""choice-option""><img src=""images/furniture_choice3.png"" class=""choice-option-img"" stage=""instructions"" position=""2"" ><div class=""choice-option-text""> Press ""3."" </div></div></div>","","0","instructions","","","","","","","","","","","","","",""
"learning-instructions","236","900253","0.0-11.0-1.0-0.3","1512","2","2","""event"",""trial"",""time""
""fullscreenenter"",""1"",""3499""
","
","
","""event"",""trial"",""time""
""fullscreenenter"",""1"",""3499""
","
