"trial_type","trial_index","time_elapsed","internal_node_id","subject_id","condition","task_version","interactions","blur_events","focus_events","fullscreenenter_events","fullscreenexit_events","success","timeout","failed_images","failed_audio","failed_video","rt","stimulus","response","button_pressed","task_part","left_choice","middle_choice","right_choice","choice_positions","correct_response","correct_position","key_press","option_selected","points","task_block","correct","stim_cat","block_condition","block_number"
"pavlovia","0","1","0.0-0.0","1622","1","2","""event"",""trial"",""time""
""fullscreenenter"",""1"",""1825""
","
","
","""event"",""trial"",""time""
""fullscreenenter"",""1"",""1825""
","
","","","","","","","","","","","","","","","","","","","","","","","",""
"fullscreen","1","2779","0.0-1.0","1622","1","2","""event"",""trial"",""time""
""fullscreenenter"",""1"",""1825""
","
","
","""event"",""trial"",""time""
""fullscreenenter"",""1"",""1825""
","
","true","","","","","","","","","","","","","","","","","","","","","","",""
"preload","2","6249","0.0-2.0","1622","1","2","""event"",""trial"",""time""
""fullscreenenter"",""1"",""1825""
","
","
","""event"",""trial"",""time""
""fullscreenenter"",""1"",""1825""
","
","true","false","[]","[]","[]","","","","","","","","","","","","","","","","","","",""
"audio-keyboard-response","3","10267","0.0-3.0","1622","1","2","""event"",""trial"",""time""
""fullscreenenter"",""1"",""1825""
","
","
","""event"",""trial"",""time""
""fullscreenenter"",""1"",""1825""
","
","","","","","","4011.24716553288","audio/beep_loop.wav"," ","","","","","","","","","","","","","","","",""
"audio-button-response","4","12512","0.0-4.0","1622","1","2","""event"",""trial"",""time""
""fullscreenenter"",""1"",""1825""
","
","
","""event"",""trial"",""time""
""fullscreenenter"",""1"",""1825""
","
","","","","","","2241","audio/shark.wav","4","","","","","","","","","","","","","","","",""
"audio-button-response","5","15011","0.0-5.0","1622","1","2","""event"",""trial"",""time""
""fullscreenenter"",""1"",""1825""
","
","
","""event"",""trial"",""time""
""fullscreenenter"",""1"",""1825""
","
","","","","","","1498","audio/turtle.wav","1","","","","","","","","","","","","","","","",""
"preload","6","21429","0.0-6.0","1622","1","2","""event"",""trial"",""time""
""fullscreenenter"",""1"",""1825""
","
","
","""event"",""trial"",""time""
""fullscreenenter"",""1"",""1825""
","
","true","false","[]","[]","[]","","","","","","","","","","","","","","","","","","",""
"html-keyboard-response","7","22880","0.0-7.0","1622","1","2","""event"",""trial"",""time""
""fullscreenenter"",""1"",""1825""
","
","
","""event"",""trial"",""time""
""fullscreenenter"",""1"",""1825""
","
","","","","","","1447.4000000059605","Welcome to the experiment. Press any key to begin and to advance the instructions."," ","","","","","","","","","","","","","","","",""
"learning-instructions","8","33949","0.0-8.0-0.0-0.0","1622","1","2","""event"",""trial"",""time""
""fullscreenenter"",""1"",""1825""
","
","
","""event"",""trial"",""time""
""fullscreenenter"",""1"",""1825""
","
","","","","","","3316.699999988079","<p> Welcome! Today you are going to play 6 different rounds of a decision-making game. </p><p> Use the mouse to click next to continue. </p>","","0","instructions","","","","","","","","","","","","","",""
"learning-instructions","9","39916","0.0-8.0-0.0-0.1","1622","1","2","""event"",""trial"",""time""
""fullscreenenter"",""1"",""1825""
","
","
","""event"",""trial"",""time""
""fullscreenenter"",""1"",""1825""
","
","","","","","","2963.2000000029802","<p> You will start with a practice round to learn the rules. </p>","","0","instructions","","","","","","","","","","","","","",""
"learning-instructions","10","52932","0.0-8.0-0.0-0.2","1622","1","2","""event"",""trial"",""time""
""fullscreenenter"",""1"",""1825""
","
","
","""event"",""trial"",""time""
""fullscreenenter"",""1"",""1825""
","
","","","","","","5274.600000008941","<p> Your goal in this round is to deliver sports equipment to three different parks. </p><p> You will need to deliver many types of equipment. </p></div>","","0","instructions","","","","","","","","","","","","","",""
"learning-instructions","11","64236","0.0-8.0-0.0-0.3","1622","1","2","""event"",""trial"",""time""
""fullscreenenter"",""1"",""1825""
""blur"",""12"",""78014""
""focus"",""12"",""79804""
","""event"",""trial"",""time""
""blur"",""12"",""78014""
","""event"",""trial"",""time""
""focus"",""12"",""79804""
","""event"",""trial"",""time""
""fullscreenenter"",""1"",""1825""
","
","","","","","","2821.4000000059605","<p> On each turn, you will see one piece of sports equipment and three different parks.  </p><p> You need to select which park to deliver the equipment to.  </p>","","0","instructions","","","","","","","","","","","","","",""
"learning-instructions","12","80248","0.0-8.0-0.0-0.4","1622","1","2","""event"",""trial"",""time""
""fullscreenenter"",""1"",""1825""
""blur"",""12"",""78014""
""focus"",""12"",""79804""
","""event"",""trial"",""time""
""blur"",""12"",""78014""
","""event"",""trial"",""time""
""focus"",""12"",""79804""
","""event"",""trial"",""time""
""fullscreenenter"",""1"",""1825""
","
","","","","","","2730","<p> You can select the park on the left by pressing the '1' key on your keyboard. <br>You can select the park in the middle by pressing the '2' key on your keyboard. <br>You can select the park on the right by pressing the '3' key on your keyboard.  </p><br><div class=""choice-instructions-grid""> <div class=""choice-option""><img src=""images/park1.png"" class=""choice-option-img"" stage=""instructions"" position=""0"" ><div class=""choice-option-text""> Press ""1."" </div></div><div class=""choice-option""><img src=""images/park2.png"" class=""choice-option-img"" stage=""instructions"" position=""1"" ><div class=""choice-option-text""> Press ""2."" </div></div><div class=""choice-option""><img src=""images/park3.png"" class=""choice-option-img"" stage=""instructions"" position=""2"" ><div class=""choice-option-text""> Press ""3."" </div></div></div>","","0","instructions","","","","","","","","","","","","","",""
"learning-instructions","13","88253","0.0-8.0-0.0-0.5","1622","1","2","""event"",""trial"",""time""
""fullscreenenter"",""1"",""1825""
""blur"",""12"",""78014""
""focus"",""12"",""79804""
""blur"",""14"",""92867""
""focus"",""14"",""95331""
","""event"",""trial"",""time""
""blur"",""12"",""78014""
""blur"",""14"",""92867""
","""event"",""trial"",""time""
""focus"",""12"",""79804""
""focus"",""14"",""95331""
","""event"",""trial"",""time""
""fullscreenenter"",""1"",""1825""
","
","","","","","","2626.300000011921","<p> If the kids in the park you chose like the equipment, they will be very happy! </p><div style='float: center;'><img src='images/check.png' width = '200' height = '200'></img>","","0","instructions","","","","","","","","","","","","","",""
"learning-instructions","14","95818","0.0-8.0-0.0-0.6","1622","1","2","""event"",""trial"",""time""
""fullscreenenter"",""1"",""1825""
""blur"",""12"",""78014""
""focus"",""12"",""79804""
""blur"",""14"",""92867""
""focus"",""14"",""95331""
""blur"",""15"",""98375""
""focus"",""15"",""105807""
","""event"",""trial"",""time""
""blur"",""12"",""78014""
""blur"",""14"",""92867""
""blur"",""15"",""98375""
","""event"",""trial"",""time""
""focus"",""12"",""79804""
""focus"",""14"",""95331""
""focus"",""15"",""105807""
","""event"",""trial"",""time""
""fullscreenenter"",""1"",""1825""
","
","","","","","","1976.5","<p> But, if the kids in the park you chose do not like the equipment, they will be sad. </p><div style='float: center;'><img src='images/x.png' width = '200' height = '200'></img>","","0","instructions","","","","","","","","","","","","","",""
"learning-instructions","15","107203","0.0-8.0-0.0-0.7","1622","1","2","""event"",""trial"",""time""
""fullscreenenter"",""1"",""1825""
""blur"",""12"",""78014""
""focus"",""12"",""79804""
""blur"",""14"",""92867""
""focus"",""14"",""95331""
""blur"",""15"",""98375""
""focus"",""15"",""105807""
","""event"",""trial"",""time""
""blur"",""12"",""78014""
""blur"",""14"",""92867""
""blur"",""15"",""98375""
","""event"",""trial"",""time""
""focus"",""12"",""79804""
""focus"",""14"",""95331""
""focus"",""15"",""105807""
","""event"",""trial"",""time""
""fullscreenenter"",""1"",""1825""
","
","","","","","","4952.0999999940395","<p> Importantly, the kids in each park like some pieces of sports equipment more than others. </p>","","0","instructions","","","","","","","","","","","","","",""
"learning-instructions","16","115027","0.0-8.0-0.0-0.8","1622","1","2","""event"",""trial"",""time""
""fullscreenenter"",""1"",""1825""
""blur"",""12"",""78014""
""focus"",""12"",""79804""
""blur"",""14"",""92867""
""focus"",""14"",""95331""
""blur"",""15"",""98375""
""focus"",""15"",""105807""
""blur"",""17"",""118318""
""focus"",""17"",""125397""
","""event"",""trial"",""time""
""blur"",""12"",""78014""
""blur"",""14"",""92867""
""blur"",""15"",""98375""
""blur"",""17"",""118318""
","""event"",""trial"",""time""
""focus"",""12"",""79804""
""focus"",""14"",""95331""
""focus"",""15"",""105807""
""focus"",""17"",""125397""
","""event"",""trial"",""time""
""fullscreenenter"",""1"",""1825""
","
","","","","","","1774.5999999940395","<p> If you choose the best park for each piece of equipment, the kids there will usually be happy. </p>","","0","instructions","","","","","","","","","","","","","",""
"learning-instructions","17","125911","0.0-8.0-0.0-0.9","1622","1","2","""event"",""trial"",""time""
""fullscreenenter"",""1"",""1825""
""blur"",""12"",""78014""
""focus"",""12"",""79804""
""blur"",""14"",""92867""
""focus"",""14"",""95331""
""blur"",""15"",""98375""
""focus"",""15"",""105807""
""blur"",""17"",""118318""
""focus"",""17"",""125397""
""blur"",""18"",""128351""
""focus"",""18"",""135113""
","""event"",""trial"",""time""
""blur"",""12"",""78014""
""blur"",""14"",""92867""
""blur"",""15"",""98375""
""blur"",""17"",""118318""
""blur"",""18"",""128351""
","""event"",""trial"",""time""
""focus"",""12"",""79804""
""focus"",""14"",""95331""
""focus"",""15"",""105807""
""focus"",""17"",""125397""
""focus"",""18"",""135113""
","""event"",""trial"",""time""
""fullscreenenter"",""1"",""1825""
","
","","","","","","4236.79999999702","<p> However, even if you choose the best park for the equipment, the kids may sometimes be sad. </p>","","0","instructions","","","","","","","","","","","","","",""
"learning-instructions","18","135625","0.0-8.0-0.0-0.10","1622","1","2","""event"",""trial"",""time""
""fullscreenenter"",""1"",""1825""
""blur"",""12"",""78014""
""focus"",""12"",""79804""
""blur"",""14"",""92867""
""focus"",""14"",""95331""
""blur"",""15"",""98375""
""focus"",""15"",""105807""
""blur"",""17"",""118318""
""focus"",""17"",""125397""
""blur"",""18"",""128351""
""focus"",""18"",""135113""
","""event"",""trial"",""time""
""blur"",""12"",""78014""
""blur"",""14"",""92867""
""blur"",""15"",""98375""
""blur"",""17"",""118318""
""blur"",""18"",""128351""
","""event"",""trial"",""time""
""focus"",""12"",""79804""
""focus"",""14"",""95331""
""focus"",""15"",""105807""
""focus"",""17"",""125397""
""focus"",""18"",""135113""
","""event"",""trial"",""time""
""fullscreenenter"",""1"",""1825""
","
","","","","","","2486.2999999970198","<p> Similarly, even if you choose the <i>wrong</i> park for the equipment, the kids may still be happy sometimes.","","0","instructions","","","","","","","","","","","","","",""
"learning-instructions","19","142999","0.0-8.0-0.0-0.11","1622","1","2","""event"",""trial"",""time""
""fullscreenenter"",""1"",""1825""
""blur"",""12"",""78014""
""focus"",""12"",""79804""
""blur"",""14"",""92867""
""focus"",""14"",""95331""
""blur"",""15"",""98375""
""focus"",""15"",""105807""
""blur"",""17"",""118318""
""focus"",""17"",""125397""
""blur"",""18"",""128351""
""focus"",""18"",""135113""
","""event"",""trial"",""time""
""blur"",""12"",""78014""
""blur"",""14"",""92867""
""blur"",""15"",""98375""
""blur"",""17"",""118318""
""blur"",""18"",""128351""
","""event"",""trial"",""time""
""focus"",""12"",""79804""
""focus"",""14"",""95331""
""focus"",""15"",""105807""
""focus"",""17"",""125397""
""focus"",""18"",""135113""
","""event"",""trial"",""time""
""fullscreenenter"",""1"",""1825""
","
","","","","","","2318.800000011921","<p> For example, the best park for this soccer ball is this one.<div style='float: center;'><img src='images/i1.png' width = '500' height = '268'></img>","","0","instructions","","","","","","","","","","","","","",""
"learning-instructions","20","149553","0.0-8.0-0.0-0.12","1622","1","2","""event"",""trial"",""time""
""fullscreenenter"",""1"",""1825""
""blur"",""12"",""78014""
""focus"",""12"",""79804""
""blur"",""14"",""92867""
""focus"",""14"",""95331""
""blur"",""15"",""98375""
""focus"",""15"",""105807""
""blur"",""17"",""118318""
""focus"",""17"",""125397""
""blur"",""18"",""128351""
""focus"",""18"",""135113""
","""event"",""trial"",""time""
""blur"",""12"",""78014""
""blur"",""14"",""92867""
""blur"",""15"",""98375""
""blur"",""17"",""118318""
""blur"",""18"",""128351""
","""event"",""trial"",""time""
""focus"",""12"",""79804""
""focus"",""14"",""95331""
""focus"",""15"",""105807""
""focus"",""17"",""125397""
""focus"",""18"",""135113""
","""event"",""trial"",""time""
""fullscreenenter"",""1"",""1825""
","
","","","","","","1264.0999999940395","<p> Let's see what happens if you choose this park for the soccer ball five times.","","0","instructions","","","","","","","","","","","","","",""
"learning-instructions","21","152743","0.0-8.0-0.0-0.13","1622","1","2","""event"",""trial"",""time""
""fullscreenenter"",""1"",""1825""
""blur"",""12"",""78014""
""focus"",""12"",""79804""
""blur"",""14"",""92867""
""focus"",""14"",""95331""
""blur"",""15"",""98375""
""focus"",""15"",""105807""
""blur"",""17"",""118318""
""focus"",""17"",""125397""
""blur"",""18"",""128351""
""focus"",""18"",""135113""
","""event"",""trial"",""time""
""blur"",""12"",""78014""
""blur"",""14"",""92867""
""blur"",""15"",""98375""
""blur"",""17"",""118318""
""blur"",""18"",""128351""
","""event"",""trial"",""time""
""focus"",""12"",""79804""
""focus"",""14"",""95331""
""focus"",""15"",""105807""
""focus"",""17"",""125397""
""focus"",""18"",""135113""
","""event"",""trial"",""time""
""fullscreenenter"",""1"",""1825""
","
","","","","","","1027.7999999970198","<p> The kids are happy.<div style='float: left;'><img src='images/i2.png' width = '640' height = '360'></img>","","0","instructions","","","","","","","","","","","","","",""
"learning-instructions","22","156135","0.0-8.0-0.0-0.14","1622","1","2","""event"",""trial"",""time""
""fullscreenenter"",""1"",""1825""
""blur"",""12"",""78014""
""focus"",""12"",""79804""
""blur"",""14"",""92867""
""focus"",""14"",""95331""
""blur"",""15"",""98375""
""focus"",""15"",""105807""
""blur"",""17"",""118318""
""focus"",""17"",""125397""
""blur"",""18"",""128351""
""focus"",""18"",""135113""
","""event"",""trial"",""time""
""blur"",""12"",""78014""
""blur"",""14"",""92867""
""blur"",""15"",""98375""
""blur"",""17"",""118318""
""blur"",""18"",""128351""
","""event"",""trial"",""time""
""focus"",""12"",""79804""
""focus"",""14"",""95331""
""focus"",""15"",""105807""
""focus"",""17"",""125397""
""focus"",""18"",""135113""
","""event"",""trial"",""time""
""fullscreenenter"",""1"",""1825""
","
","","","","","","1227.2000000029802","<p> The kids are happy.<div style='float: left;'><img src='images/i3.png' width = '640' height = '360'></img>","","0","instructions","","","","","","","","","","","","","",""
"learning-instructions","23","160335","0.0-8.0-0.0-0.15","1622","1","2","""event"",""trial"",""time""
""fullscreenenter"",""1"",""1825""
""blur"",""12"",""78014""
""focus"",""12"",""79804""
""blur"",""14"",""92867""
""focus"",""14"",""95331""
""blur"",""15"",""98375""
""focus"",""15"",""105807""
""blur"",""17"",""118318""
""focus"",""17"",""125397""
""blur"",""18"",""128351""
""focus"",""18"",""135113""
","""event"",""trial"",""time""
""blur"",""12"",""78014""
""blur"",""14"",""92867""
""blur"",""15"",""98375""
""blur"",""17"",""118318""
""blur"",""18"",""128351""
","""event"",""trial"",""time""
""focus"",""12"",""79804""
""focus"",""14"",""95331""
""focus"",""15"",""105807""
""focus"",""17"",""125397""
""focus"",""18"",""135113""
","""event"",""trial"",""time""
""fullscreenenter"",""1"",""1825""
","
","","","","","","2037.5","<p> The kids are happy.<div style='float: left;'><img src='images/i4.png' width = '640' height = '360'></img>","","0","instructions","","","","","","","","","","","","","",""
"learning-instructions","24","162951","0.0-8.0-0.0-0.16","1622","1","2","""event"",""trial"",""time""
""fullscreenenter"",""1"",""1825""
""blur"",""12"",""78014""
""focus"",""12"",""79804""
""blur"",""14"",""92867""
""focus"",""14"",""95331""
""blur"",""15"",""98375""
""focus"",""15"",""105807""
""blur"",""17"",""118318""
""focus"",""17"",""125397""
""blur"",""18"",""128351""
""focus"",""18"",""135113""
""blur"",""25"",""164674""
""focus"",""25"",""176465""
","""event"",""trial"",""time""
""blur"",""12"",""78014""
""blur"",""14"",""92867""
""blur"",""15"",""98375""
""blur"",""17"",""118318""
""blur"",""18"",""128351""
""blur"",""25"",""164674""
","""event"",""trial"",""time""
""focus"",""12"",""79804""
""focus"",""14"",""95331""
""focus"",""15"",""105807""
""focus"",""17"",""125397""
""focus"",""18"",""135113""
""focus"",""25"",""176465""
","""event"",""trial"",""time""
""fullscreenenter"",""1"",""1825""
","
","","","","","","410.09999999403954","<p> The kids are sad.<div style='float: left;'><img src='images/i5.png' width = '640' height = '360'></img>","","0","instructions","","","","","","","","","","","","","",""
"learning-instructions","25","177050","0.0-8.0-0.0-0.17","1622","1","2","""event"",""trial"",""time""
""fullscreenenter"",""1"",""1825""
""blur"",""12"",""78014""
""focus"",""12"",""79804""
""blur"",""14"",""92867""
""focus"",""14"",""95331""
""blur"",""15"",""98375""
""focus"",""15"",""105807""
""blur"",""17"",""118318""
""focus"",""17"",""125397""
""blur"",""18"",""128351""
""focus"",""18"",""135113""
""blur"",""25"",""164674""
""focus"",""25"",""176465""
""blur"",""26"",""180121""
""focus"",""26"",""185421""
","""event"",""trial"",""time""
""blur"",""12"",""78014""
""blur"",""14"",""92867""
""blur"",""15"",""98375""
""blur"",""17"",""118318""
""blur"",""18"",""128351""
""blur"",""25"",""164674""
""blur"",""26"",""180121""
","""event"",""trial"",""time""
""focus"",""12"",""79804""
""focus"",""14"",""95331""
""focus"",""15"",""105807""
""focus"",""17"",""125397""
""focus"",""18"",""135113""
""focus"",""25"",""176465""
""focus"",""26"",""185421""
","""event"",""trial"",""time""
""fullscreenenter"",""1"",""1825""
","
","","","","","","11932.09999999404","<p> The kids are happy.<div style='float: left;'><img src='images/i6.png' width = '640' height = '360'></img>","","0","instructions","","","","","","","","","","","","","",""
"learning-instructions","26","186017","0.0-8.0-0.0-0.18","1622","1","2","""event"",""trial"",""time""
""fullscreenenter"",""1"",""1825""
""blur"",""12"",""78014""
""focus"",""12"",""79804""
""blur"",""14"",""92867""
""focus"",""14"",""95331""
""blur"",""15"",""98375""
""focus"",""15"",""105807""
""blur"",""17"",""118318""
""focus"",""17"",""125397""
""blur"",""18"",""128351""
""focus"",""18"",""135113""
""blur"",""25"",""164674""
""focus"",""25"",""176465""
""blur"",""26"",""180121""
""focus"",""26"",""185421""
","""event"",""trial"",""time""
""blur"",""12"",""78014""
""blur"",""14"",""92867""
""blur"",""15"",""98375""
""blur"",""17"",""118318""
""blur"",""18"",""128351""
""blur"",""25"",""164674""
""blur"",""26"",""180121""
","""event"",""trial"",""time""
""focus"",""12"",""79804""
""focus"",""14"",""95331""
""focus"",""15"",""105807""
""focus"",""17"",""125397""
""focus"",""18"",""135113""
""focus"",""25"",""176465""
""focus"",""26"",""185421""
","""event"",""trial"",""time""
""fullscreenenter"",""1"",""1825""
","
","","","","","","1696.7000000029802","<p> As you can see, selecting that park for the soccer ball made the kids happy most of the time, but not all the time.","","0","instructions","","","","","","","","","","","","","",""
"learning-instructions","27","192595","0.0-8.0-0.0-0.19","1622","1","2","""event"",""trial"",""time""
""fullscreenenter"",""1"",""1825""
""blur"",""12"",""78014""
""focus"",""12"",""79804""
""blur"",""14"",""92867""
""focus"",""14"",""95331""
""blur"",""15"",""98375""
""focus"",""15"",""105807""
""blur"",""17"",""118318""
""focus"",""17"",""125397""
""blur"",""18"",""128351""
""focus"",""18"",""135113""
""blur"",""25"",""164674""
""focus"",""25"",""176465""
""blur"",""26"",""180121""
""focus"",""26"",""185421""
","""event"",""trial"",""time""
""blur"",""12"",""78014""
""blur"",""14"",""92867""
""blur"",""15"",""98375""
""blur"",""17"",""118318""
""blur"",""18"",""128351""
""blur"",""25"",""164674""
""blur"",""26"",""180121""
","""event"",""trial"",""time""
""focus"",""12"",""79804""
""focus"",""14"",""95331""
""focus"",""15"",""105807""
""focus"",""17"",""125397""
""focus"",""18"",""135113""
""focus"",""25"",""176465""
""focus"",""26"",""185421""
","""event"",""trial"",""time""
""fullscreenenter"",""1"",""1825""
","
","","","","","","577.3000000119209","<p> Now let's see what happens if you choose a DIFFERENT park for the soccer ball 5 times.","","0","instructions","","","","","","","","","","","","","",""
"learning-instructions","28","195534","0.0-8.0-0.0-0.20","1622","1","2","""event"",""trial"",""time""
""fullscreenenter"",""1"",""1825""
""blur"",""12"",""78014""
""focus"",""12"",""79804""
""blur"",""14"",""92867""
""focus"",""14"",""95331""
""blur"",""15"",""98375""
""focus"",""15"",""105807""
""blur"",""17"",""118318""
""focus"",""17"",""125397""
""blur"",""18"",""128351""
""focus"",""18"",""135113""
""blur"",""25"",""164674""
""focus"",""25"",""176465""
""blur"",""26"",""180121""
""focus"",""26"",""185421""
","""event"",""trial"",""time""
""blur"",""12"",""78014""
""blur"",""14"",""92867""
""blur"",""15"",""98375""
""blur"",""17"",""118318""
""blur"",""18"",""128351""
""blur"",""25"",""164674""
""blur"",""26"",""180121""
","""event"",""trial"",""time""
""focus"",""12"",""79804""
""focus"",""14"",""95331""
""focus"",""15"",""105807""
""focus"",""17"",""125397""
""focus"",""18"",""135113""
""focus"",""25"",""176465""
""focus"",""26"",""185421""
","""event"",""trial"",""time""
""fullscreenenter"",""1"",""1825""
","
","","","","","","736.1999999880791","<p> The kids are sad.<div style='float: left;'><img src='images/i7.png' width = '640' height = '360'></img>","","0","instructions","","","","","","","","","","","","","",""
"learning-instructions","29","198266","0.0-8.0-0.0-0.21","1622","1","2","""event"",""trial"",""time""
""fullscreenenter"",""1"",""1825""
""blur"",""12"",""78014""
""focus"",""12"",""79804""
""blur"",""14"",""92867""
""focus"",""14"",""95331""
""blur"",""15"",""98375""
""focus"",""15"",""105807""
""blur"",""17"",""118318""
""focus"",""17"",""125397""
""blur"",""18"",""128351""
""focus"",""18"",""135113""
""blur"",""25"",""164674""
""focus"",""25"",""176465""
""blur"",""26"",""180121""
""focus"",""26"",""185421""
","""event"",""trial"",""time""
""blur"",""12"",""78014""
""blur"",""14"",""92867""
""blur"",""15"",""98375""
""blur"",""17"",""118318""
""blur"",""18"",""128351""
""blur"",""25"",""164674""
""blur"",""26"",""180121""
","""event"",""trial"",""time""
""focus"",""12"",""79804""
""focus"",""14"",""95331""
""focus"",""15"",""105807""
""focus"",""17"",""125397""
""focus"",""18"",""135113""
""focus"",""25"",""176465""
""focus"",""26"",""185421""
","""event"",""trial"",""time""
""fullscreenenter"",""1"",""1825""
","
","","","","","","525.7000000029802","<p> The kids are sad.<div style='float: left;'><img src='images/i8.png' width = '640' height = '360'></img>","","0","instructions","","","","","","","","","","","","","",""
"learning-instructions","30","201398","0.0-8.0-0.0-0.22","1622","1","2","""event"",""trial"",""time""
""fullscreenenter"",""1"",""1825""
""blur"",""12"",""78014""
""focus"",""12"",""79804""
""blur"",""14"",""92867""
""focus"",""14"",""95331""
""blur"",""15"",""98375""
""focus"",""15"",""105807""
""blur"",""17"",""118318""
""focus"",""17"",""125397""
""blur"",""18"",""128351""
""focus"",""18"",""135113""
""blur"",""25"",""164674""
""focus"",""25"",""176465""
""blur"",""26"",""180121""
""focus"",""26"",""185421""
","""event"",""trial"",""time""
""blur"",""12"",""78014""
""blur"",""14"",""92867""
""blur"",""15"",""98375""
""blur"",""17"",""118318""
""blur"",""18"",""128351""
""blur"",""25"",""164674""
""blur"",""26"",""180121""
","""event"",""trial"",""time""
""focus"",""12"",""79804""
""focus"",""14"",""95331""
""focus"",""15"",""105807""
""focus"",""17"",""125397""
""focus"",""18"",""135113""
""focus"",""25"",""176465""
""focus"",""26"",""185421""
","""event"",""trial"",""time""
""fullscreenenter"",""1"",""1825""
","
","","","","","","970.2000000029802","<p> The kids are happy.<div style='float: left;'><img src='images/i9.png' width = '640' height = '360'></img>","","0","instructions","","","","","","","","","","","","","",""
"learning-instructions","31","204126","0.0-8.0-0.0-0.23","1622","1","2","""event"",""trial"",""time""
""fullscreenenter"",""1"",""1825""
""blur"",""12"",""78014""
""focus"",""12"",""79804""
""blur"",""14"",""92867""
""focus"",""14"",""95331""
""blur"",""15"",""98375""
""focus"",""15"",""105807""
""blur"",""17"",""118318""
""focus"",""17"",""125397""
""blur"",""18"",""128351""
""focus"",""18"",""135113""
""blur"",""25"",""164674""
""focus"",""25"",""176465""
""blur"",""26"",""180121""
""focus"",""26"",""185421""
","""event"",""trial"",""time""
""blur"",""12"",""78014""
""blur"",""14"",""92867""
""blur"",""15"",""98375""
""blur"",""17"",""118318""
""blur"",""18"",""128351""
""blur"",""25"",""164674""
""blur"",""26"",""180121""
","""event"",""trial"",""time""
""focus"",""12"",""79804""
""focus"",""14"",""95331""
""focus"",""15"",""105807""
""focus"",""17"",""125397""
""focus"",""18"",""135113""
""focus"",""25"",""176465""
""focus"",""26"",""185421""
","""event"",""trial"",""time""
""fullscreenenter"",""1"",""1825""
","
","","","","","","522.3999999910593","<p> The kids are sad.<div style='float: left;'><img src='images/i10.png' width = '640' height = '360'></img>","","0","instructions","","","","","","","","","","","","","",""
"learning-instructions","32","206932","0.0-8.0-0.0-0.24","1622","1","2","""event"",""trial"",""time""
""fullscreenenter"",""1"",""1825""
""blur"",""12"",""78014""
""focus"",""12"",""79804""
""blur"",""14"",""92867""
""focus"",""14"",""95331""
""blur"",""15"",""98375""
""focus"",""15"",""105807""
""blur"",""17"",""118318""
""focus"",""17"",""125397""
""blur"",""18"",""128351""
""focus"",""18"",""135113""
""blur"",""25"",""164674""
""focus"",""25"",""176465""
""blur"",""26"",""180121""
""focus"",""26"",""185421""
","""event"",""trial"",""time""
""blur"",""12"",""78014""
""blur"",""14"",""92867""
""blur"",""15"",""98375""
""blur"",""17"",""118318""
""blur"",""18"",""128351""
""blur"",""25"",""164674""
""blur"",""26"",""180121""
","""event"",""trial"",""time""
""focus"",""12"",""79804""
""focus"",""14"",""95331""
""focus"",""15"",""105807""
""focus"",""17"",""125397""
""focus"",""18"",""135113""
""focus"",""25"",""176465""
""focus"",""26"",""185421""
","""event"",""trial"",""time""
""fullscreenenter"",""1"",""1825""
","
","","","","","","600.5","<p> The kids are sad.<div style='float: left;'><img src='images/i11.png' width = '640' height = '360'></img>","","0","instructions","","","","","","","","","","","","","",""
"learning-instructions","33","217549","0.0-8.0-0.0-0.25","1622","1","2","""event"",""trial"",""time""
""fullscreenenter"",""1"",""1825""
""blur"",""12"",""78014""
""focus"",""12"",""79804""
""blur"",""14"",""92867""
""focus"",""14"",""95331""
""blur"",""15"",""98375""
""focus"",""15"",""105807""
""blur"",""17"",""118318""
""focus"",""17"",""125397""
""blur"",""18"",""128351""
""focus"",""18"",""135113""
""blur"",""25"",""164674""
""focus"",""25"",""176465""
""blur"",""26"",""180121""
""focus"",""26"",""185421""
","""event"",""trial"",""time""
""blur"",""12"",""78014""
""blur"",""14"",""92867""
""blur"",""15"",""98375""
""blur"",""17"",""118318""
""blur"",""18"",""128351""
""blur"",""25"",""164674""
""blur"",""26"",""180121""
","""event"",""trial"",""time""
""focus"",""12"",""79804""
""focus"",""14"",""95331""
""focus"",""15"",""105807""
""focus"",""17"",""125397""
""focus"",""18"",""135113""
""focus"",""25"",""176465""
""focus"",""26"",""185421""
","""event"",""trial"",""time""
""fullscreenenter"",""1"",""1825""
","
","","","","","","2498.699999988079","<p> As you can see, selecting the wrong park for the soccer ball made the kids sad most of the time, but not all the time.","","0","instructions","","","","","","","","","","","","","",""
"learning-instructions","34","232246","0.0-8.0-0.0-0.26","1622","1","2","""event"",""trial"",""time""
""fullscreenenter"",""1"",""1825""
""blur"",""12"",""78014""
""focus"",""12"",""79804""
""blur"",""14"",""92867""
""focus"",""14"",""95331""
""blur"",""15"",""98375""
""focus"",""15"",""105807""
""blur"",""17"",""118318""
""focus"",""17"",""125397""
""blur"",""18"",""128351""
""focus"",""18"",""135113""
""blur"",""25"",""164674""
""focus"",""25"",""176465""
""blur"",""26"",""180121""
""focus"",""26"",""185421""
""blur"",""35"",""242780""
""focus"",""35"",""249589""
","""event"",""trial"",""time""
""blur"",""12"",""78014""
""blur"",""14"",""92867""
""blur"",""15"",""98375""
""blur"",""17"",""118318""
""blur"",""18"",""128351""
""blur"",""25"",""164674""
""blur"",""26"",""180121""
""blur"",""35"",""242780""
","""event"",""trial"",""time""
""focus"",""12"",""79804""
""focus"",""14"",""95331""
""focus"",""15"",""105807""
""focus"",""17"",""125397""
""focus"",""18"",""135113""
""focus"",""25"",""176465""
""focus"",""26"",""185421""
""focus"",""35"",""249589""
","""event"",""trial"",""time""
""fullscreenenter"",""1"",""1825""
","
","","","","","","5586","<p> The different pieces of equipment belong in different parks. You need to try to learn which is the best park for each piece of equipment.","","0","instructions","","","","","","","","","","","","","",""
"learning-instructions","35","250176","0.0-8.0-0.0-0.27","1622","1","2","""event"",""trial"",""time""
""fullscreenenter"",""1"",""1825""
""blur"",""12"",""78014""
""focus"",""12"",""79804""
""blur"",""14"",""92867""
""focus"",""14"",""95331""
""blur"",""15"",""98375""
""focus"",""15"",""105807""
""blur"",""17"",""118318""
""focus"",""17"",""125397""
""blur"",""18"",""128351""
""focus"",""18"",""135113""
""blur"",""25"",""164674""
""focus"",""25"",""176465""
""blur"",""26"",""180121""
""focus"",""26"",""185421""
""blur"",""35"",""242780""
""focus"",""35"",""249589""
","""event"",""trial"",""time""
""blur"",""12"",""78014""
""blur"",""14"",""92867""
""blur"",""15"",""98375""
""blur"",""17"",""118318""
""blur"",""18"",""128351""
""blur"",""25"",""164674""
""blur"",""26"",""180121""
""blur"",""35"",""242780""
","""event"",""trial"",""time""
""focus"",""12"",""79804""
""focus"",""14"",""95331""
""focus"",""15"",""105807""
""focus"",""17"",""125397""
""focus"",""18"",""135113""
""focus"",""25"",""176465""
""focus"",""26"",""185421""
""focus"",""35"",""249589""
","""event"",""trial"",""time""
""fullscreenenter"",""1"",""1825""
","
","","","","","","1544.5999999940395","<p> Try to choose the best park for each piece of equipment, because you will <b> WIN </b> 1 point for each time you make the kids happy and <b>LOSE</b> 1 point for each time you make them sad. </p><p> Remember, if you make the best choice, you will win 1 point most of the time, but not all the time. </p>","","0","instructions","","","","","","","","","","","","","",""
"learning-instructions","36","257274","0.0-8.0-0.0-0.28","1622","1","2","""event"",""trial"",""time""
""fullscreenenter"",""1"",""1825""
""blur"",""12"",""78014""
""focus"",""12"",""79804""
""blur"",""14"",""92867""
""focus"",""14"",""95331""
""blur"",""15"",""98375""
""focus"",""15"",""105807""
""blur"",""17"",""118318""
""focus"",""17"",""125397""
""blur"",""18"",""128351""
""focus"",""18"",""135113""
""blur"",""25"",""164674""
""focus"",""25"",""176465""
""blur"",""26"",""180121""
""focus"",""26"",""185421""
""blur"",""35"",""242780""
""focus"",""35"",""249589""
","""event"",""trial"",""time""
""blur"",""12"",""78014""
""blur"",""14"",""92867""
""blur"",""15"",""98375""
""blur"",""17"",""118318""
""blur"",""18"",""128351""
""blur"",""25"",""164674""
""blur"",""26"",""180121""
""blur"",""35"",""242780""
","""event"",""trial"",""time""
""focus"",""12"",""79804""
""focus"",""14"",""95331""
""focus"",""15"",""105807""
""focus"",""17"",""125397""
""focus"",""18"",""135113""
""focus"",""25"",""176465""
""focus"",""26"",""185421""
""focus"",""35"",""249589""
","""event"",""trial"",""time""
""fullscreenenter"",""1"",""1825""
","
","","","","","","1618.699999988079","<p> This is just a practice round, but in the real game, your bonus payment will depend on your total number of points.","","0","instructions","","","","","","","","","","","","","",""
"learning-instructions","37","268937","0.0-8.0-0.0-0.29","1622","1","2","""event"",""trial"",""time""
""fullscreenenter"",""1"",""1825""
""blur"",""12"",""78014""
""focus"",""12"",""79804""
""blur"",""14"",""92867""
""focus"",""14"",""95331""
""blur"",""15"",""98375""
""focus"",""15"",""105807""
""blur"",""17"",""118318""
""focus"",""17"",""125397""
""blur"",""18"",""128351""
""focus"",""18"",""135113""
""blur"",""25"",""164674""
""focus"",""25"",""176465""
""blur"",""26"",""180121""
""focus"",""26"",""185421""
""blur"",""35"",""242780""
""focus"",""35"",""249589""
","""event"",""trial"",""time""
""blur"",""12"",""78014""
""blur"",""14"",""92867""
""blur"",""15"",""98375""
""blur"",""17"",""118318""
""blur"",""18"",""128351""
""blur"",""25"",""164674""
""blur"",""26"",""180121""
""blur"",""35"",""242780""
","""event"",""trial"",""time""
""focus"",""12"",""79804""
""focus"",""14"",""95331""
""focus"",""15"",""105807""
""focus"",""17"",""125397""
""focus"",""18"",""135113""
""focus"",""25"",""176465""
""focus"",""26"",""185421""
""focus"",""35"",""249589""
","""event"",""trial"",""time""
""fullscreenenter"",""1"",""1825""
","
","","","","","","1335.9000000059605","<p> The position where each park appears will change throughout the game. </p><p> The position where the park appears <i> does not </i> influence how likely the kids are to be happy or sad. </p>","","0","instructions","","","","","","","","","","","","","",""
"learning-instructions","38","280137","0.0-8.0-0.0-0.30","1622","1","2","""event"",""trial"",""time""
""fullscreenenter"",""1"",""1825""
""blur"",""12"",""78014""
""focus"",""12"",""79804""
""blur"",""14"",""92867""
""focus"",""14"",""95331""
""blur"",""15"",""98375""
""focus"",""15"",""105807""
""blur"",""17"",""118318""
""focus"",""17"",""125397""
""blur"",""18"",""128351""
""focus"",""18"",""135113""
""blur"",""25"",""164674""
""focus"",""25"",""176465""
""blur"",""26"",""180121""
""focus"",""26"",""185421""
""blur"",""35"",""242780""
""focus"",""35"",""249589""
","""event"",""trial"",""time""
""blur"",""12"",""78014""
""blur"",""14"",""92867""
""blur"",""15"",""98375""
""blur"",""17"",""118318""
""blur"",""18"",""128351""
""blur"",""25"",""164674""
""blur"",""26"",""180121""
""blur"",""35"",""242780""
","""event"",""trial"",""time""
""focus"",""12"",""79804""
""focus"",""14"",""95331""
""focus"",""15"",""105807""
""focus"",""17"",""125397""
""focus"",""18"",""135113""
""focus"",""25"",""176465""
""focus"",""26"",""185421""
""focus"",""35"",""249589""
","""event"",""trial"",""time""
""fullscreenenter"",""1"",""1825""
","
","","","","","","838.8999999910593","<p> You will have 4 seconds to make each choice. Try to respond before time runs out! </p><p> You will lose 1 point each time you do not make a response. </p>","","0","instructions","","","","","","","","","","","","","",""
"learning-instructions","39","289393","0.0-8.0-0.0-0.31","1622","1","2","""event"",""trial"",""time""
""fullscreenenter"",""1"",""1825""
""blur"",""12"",""78014""
""focus"",""12"",""79804""
""blur"",""14"",""92867""
""focus"",""14"",""95331""
""blur"",""15"",""98375""
""focus"",""15"",""105807""
""blur"",""17"",""118318""
""focus"",""17"",""125397""
""blur"",""18"",""128351""
""focus"",""18"",""135113""
""blur"",""25"",""164674""
""focus"",""25"",""176465""
""blur"",""26"",""180121""
""focus"",""26"",""185421""
""blur"",""35"",""242780""
""focus"",""35"",""249589""
","""event"",""trial"",""time""
""blur"",""12"",""78014""
""blur"",""14"",""92867""
""blur"",""15"",""98375""
""blur"",""17"",""118318""
""blur"",""18"",""128351""
""blur"",""25"",""164674""
""blur"",""26"",""180121""
""blur"",""35"",""242780""
","""event"",""trial"",""time""
""focus"",""12"",""79804""
""focus"",""14"",""95331""
""focus"",""15"",""105807""
""focus"",""17"",""125397""
""focus"",""18"",""135113""
""focus"",""25"",""176465""
""focus"",""26"",""185421""
""focus"",""35"",""249589""
","""event"",""trial"",""time""
""fullscreenenter"",""1"",""1825""
","
","","","","","","2472.5999999940395","<p> Remember, you should use the 1, 2, and 3 keys to select the park for each piece of equipment. </p><br><div class=""choice-instructions-grid""> <div class=""choice-option""><img src=""images/park1.png"" class=""choice-option-img"" stage=""instructions"" position=""0"" ><div class=""choice-option-text""> Press ""1."" </div></div><div class=""choice-option""><img src=""images/park2.png"" class=""choice-option-img"" stage=""instructions"" position=""1"" ><div class=""choice-option-text""> Press ""2."" </div></div><div class=""choice-option""><img src=""images/park3.png"" class=""choice-option-img"" stage=""instructions"" position=""2"" ><div class=""choice-option-text""> Press ""3."" </div></div></div>","","0","instructions","","","","","","","","","","","","","",""
"html-button-response","40","290381","0.0-8.0-1.0","1622","1","2","""event"",""trial"",""time""
""fullscreenenter"",""1"",""1825""
""blur"",""12"",""78014""
""focus"",""12"",""79804""
""blur"",""14"",""92867""
""focus"",""14"",""95331""
""blur"",""15"",""98375""
""focus"",""15"",""105807""
""blur"",""17"",""118318""
""focus"",""17"",""125397""
""blur"",""18"",""128351""
""focus"",""18"",""135113""
""blur"",""25"",""164674""
""focus"",""25"",""176465""
""blur"",""26"",""180121""
""focus"",""26"",""185421""
""blur"",""35"",""242780""
""focus"",""35"",""249589""
","""event"",""trial"",""time""
""blur"",""12"",""78014""
""blur"",""14"",""92867""
""blur"",""15"",""98375""
""blur"",""17"",""118318""
""blur"",""18"",""128351""
""blur"",""25"",""164674""
""blur"",""26"",""180121""
""blur"",""35"",""242780""
","""event"",""trial"",""time""
""focus"",""12"",""79804""
""focus"",""14"",""95331""
""focus"",""15"",""105807""
""focus"",""17"",""125397""
""focus"",""18"",""135113""
""focus"",""25"",""176465""
""focus"",""26"",""185421""
""focus"",""35"",""249589""
","""event"",""trial"",""time""
""fullscreenenter"",""1"",""1825""
","
","","","","","","882.5999999940395","<p> Ready to practice? </p>","0","","","","","","","","","","","","","","","",""
"html-keyboard-response","41","290989","0.0-8.0-2.0-0.0","1622","1","2","""event"",""trial"",""time""
""fullscreenenter"",""1"",""1825""
""blur"",""12"",""78014""
""focus"",""12"",""79804""
""blur"",""14"",""92867""
""focus"",""14"",""95331""
""blur"",""15"",""98375""
""focus"",""15"",""105807""
""blur"",""17"",""118318""
""focus"",""17"",""125397""
""blur"",""18"",""128351""
""focus"",""18"",""135113""
""blur"",""25"",""164674""
""focus"",""25"",""176465""
""blur"",""26"",""180121""
""focus"",""26"",""185421""
""blur"",""35"",""242780""
""focus"",""35"",""249589""
","""event"",""trial"",""time""
""blur"",""12"",""78014""
""blur"",""14"",""92867""
""blur"",""15"",""98375""
""blur"",""17"",""118318""
""blur"",""18"",""128351""
""blur"",""25"",""164674""
""blur"",""26"",""180121""
""blur"",""35"",""242780""
","""event"",""trial"",""time""
""focus"",""12"",""79804""
""focus"",""14"",""95331""
""focus"",""15"",""105807""
""focus"",""17"",""125397""
""focus"",""18"",""135113""
""focus"",""25"",""176465""
""focus"",""26"",""185421""
""focus"",""35"",""249589""
","""event"",""trial"",""time""
""fullscreenenter"",""1"",""1825""
","
","","","","","","null","<div style=""font-size:60px;"">+</div>","null","","fixation","","","","","","","","","","","","","",""
"learning-trial","42","294997","0.0-8.0-2.0-1.0","1622","1","2","""event"",""trial"",""time""
""fullscreenenter"",""1"",""1825""
""blur"",""12"",""78014""
""focus"",""12"",""79804""
""blur"",""14"",""92867""
""focus"",""14"",""95331""
""blur"",""15"",""98375""
""focus"",""15"",""105807""
""blur"",""17"",""118318""
""focus"",""17"",""125397""
""blur"",""18"",""128351""
""focus"",""18"",""135113""
""blur"",""25"",""164674""
""focus"",""25"",""176465""
""blur"",""26"",""180121""
""focus"",""26"",""185421""
""blur"",""35"",""242780""
""focus"",""35"",""249589""
","""event"",""trial"",""time""
""blur"",""12"",""78014""
""blur"",""14"",""92867""
""blur"",""15"",""98375""
""blur"",""17"",""118318""
""blur"",""18"",""128351""
""blur"",""25"",""164674""
""blur"",""26"",""180121""
""blur"",""35"",""242780""
","""event"",""trial"",""time""
""focus"",""12"",""79804""
""focus"",""14"",""95331""
""focus"",""15"",""105807""
""focus"",""17"",""125397""
""focus"",""18"",""135113""
""focus"",""25"",""176465""
""focus"",""26"",""185421""
""focus"",""35"",""249589""
","""event"",""trial"",""time""
""fullscreenenter"",""1"",""1825""
","
","","","","","","797.7000000029802","images/ball3.png","","","practice","images/park1.png","images/park3.png","images/park2.png","[0,2,1]","0","0","1","images/park1.png","1","practice","","","",""
"html-keyboard-response","43","295502","0.0-8.0-2.0-0.1","1622","1","2","""event"",""trial"",""time""
""fullscreenenter"",""1"",""1825""
""blur"",""12"",""78014""
""focus"",""12"",""79804""
""blur"",""14"",""92867""
""focus"",""14"",""95331""
""blur"",""15"",""98375""
""focus"",""15"",""105807""
""blur"",""17"",""118318""
""focus"",""17"",""125397""
""blur"",""18"",""128351""
""focus"",""18"",""135113""
""blur"",""25"",""164674""
""focus"",""25"",""176465""
""blur"",""26"",""180121""
""focus"",""26"",""185421""
""blur"",""35"",""242780""
""focus"",""35"",""249589""
","""event"",""trial"",""time""
""blur"",""12"",""78014""
""blur"",""14"",""92867""
""blur"",""15"",""98375""
""blur"",""17"",""118318""
""blur"",""18"",""128351""
""blur"",""25"",""164674""
""blur"",""26"",""180121""
""blur"",""35"",""242780""
","""event"",""trial"",""time""
""focus"",""12"",""79804""
""focus"",""14"",""95331""
""focus"",""15"",""105807""
""focus"",""17"",""125397""
""focus"",""18"",""135113""
""focus"",""25"",""176465""
""focus"",""26"",""185421""
""focus"",""35"",""249589""
","""event"",""trial"",""time""
""fullscreenenter"",""1"",""1825""
","
","","","","","","null","<div style=""font-size:60px;"">+</div>","null","","fixation","","","","","","","","","","","","","",""
"learning-trial","44","299507","0.0-8.0-2.0-1.1","1622","1","2","""event"",""trial"",""time""
""fullscreenenter"",""1"",""1825""
""blur"",""12"",""78014""
""focus"",""12"",""79804""
""blur"",""14"",""92867""
""focus"",""14"",""95331""
""blur"",""15"",""98375""
""focus"",""15"",""105807""
""blur"",""17"",""118318""
""focus"",""17"",""125397""
""blur"",""18"",""128351""
""focus"",""18"",""135113""
""blur"",""25"",""164674""
""focus"",""25"",""176465""
""blur"",""26"",""180121""
""focus"",""26"",""185421""
""blur"",""35"",""242780""
""focus"",""35"",""249589""
","""event"",""trial"",""time""
""blur"",""12"",""78014""
""blur"",""14"",""92867""
""blur"",""15"",""98375""
""blur"",""17"",""118318""
""blur"",""18"",""128351""
""blur"",""25"",""164674""
""blur"",""26"",""180121""
""blur"",""35"",""242780""
","""event"",""trial"",""time""
""focus"",""12"",""79804""
""focus"",""14"",""95331""
""focus"",""15"",""105807""
""focus"",""17"",""125397""
""focus"",""18"",""135113""
""focus"",""25"",""176465""
""focus"",""26"",""185421""
""focus"",""35"",""249589""
","""event"",""trial"",""time""
""fullscreenenter"",""1"",""1825""
","
","","","","","","1055.7999999970198","images/racket1.png","","","practice","images/park1.png","images/park2.png","images/park3.png","[0,1,2]","0","0","2","images/park2.png","-1","practice","","","",""
"html-keyboard-response","45","300010","0.0-8.0-2.0-0.2","1622","1","2","""event"",""trial"",""time""
""fullscreenenter"",""1"",""1825""
""blur"",""12"",""78014""
""focus"",""12"",""79804""
""blur"",""14"",""92867""
""focus"",""14"",""95331""
""blur"",""15"",""98375""
""focus"",""15"",""105807""
""blur"",""17"",""118318""
""focus"",""17"",""125397""
""blur"",""18"",""128351""
""focus"",""18"",""135113""
""blur"",""25"",""164674""
""focus"",""25"",""176465""
""blur"",""26"",""180121""
""focus"",""26"",""185421""
""blur"",""35"",""242780""
""focus"",""35"",""249589""
","""event"",""trial"",""time""
""blur"",""12"",""78014""
""blur"",""14"",""92867""
""blur"",""15"",""98375""
""blur"",""17"",""118318""
""blur"",""18"",""128351""
""blur"",""25"",""164674""
""blur"",""26"",""180121""
""blur"",""35"",""242780""
","""event"",""trial"",""time""
""focus"",""12"",""79804""
""focus"",""14"",""95331""
""focus"",""15"",""105807""
""focus"",""17"",""125397""
""focus"",""18"",""135113""
""focus"",""25"",""176465""
""focus"",""26"",""185421""
""focus"",""35"",""249589""
","""event"",""trial"",""time""
""fullscreenenter"",""1"",""1825""
","
","","","","","","null","<div style=""font-size:60px;"">+</div>","null","","fixation","","","","","","","","","","","","","",""
"learning-trial","46","304019","0.0-8.0-2.0-1.2","1622","1","2","""event"",""trial"",""time""
""fullscreenenter"",""1"",""1825""
""blur"",""12"",""78014""
""focus"",""12"",""79804""
""blur"",""14"",""92867""
""focus"",""14"",""95331""
""blur"",""15"",""98375""
""focus"",""15"",""105807""
""blur"",""17"",""118318""
""focus"",""17"",""125397""
""blur"",""18"",""128351""
""focus"",""18"",""135113""
""blur"",""25"",""164674""
""focus"",""25"",""176465""
""blur"",""26"",""180121""
""focus"",""26"",""185421""
""blur"",""35"",""242780""
""focus"",""35"",""249589""
","""event"",""trial"",""time""
""blur"",""12"",""78014""
""blur"",""14"",""92867""
""blur"",""15"",""98375""
""blur"",""17"",""118318""
""blur"",""18"",""128351""
""blur"",""25"",""164674""
""blur"",""26"",""180121""
""blur"",""35"",""242780""
","""event"",""trial"",""time""
""focus"",""12"",""79804""
""focus"",""14"",""95331""
""focus"",""15"",""105807""
""focus"",""17"",""125397""
""focus"",""18"",""135113""
""focus"",""25"",""176465""
""focus"",""26"",""185421""
""focus"",""35"",""249589""
","""event"",""trial"",""time""
""fullscreenenter"",""1"",""1825""
","
","","","","","","732.4000000059605","images/ball3.png","","","practice","images/park1.png","images/park3.png","images/park2.png","[0,2,1]","0","0","1","images/park1.png","1","practice","","","",""
"html-keyboard-response","47","304521","0.0-8.0-2.0-0.3","1622","1","2","""event"",""trial"",""time""
""fullscreenenter"",""1"",""1825""
""blur"",""12"",""78014""
""focus"",""12"",""79804""
""blur"",""14"",""92867""
""focus"",""14"",""95331""
""blur"",""15"",""98375""
""focus"",""15"",""105807""
""blur"",""17"",""118318""
""focus"",""17"",""125397""
""blur"",""18"",""128351""
""focus"",""18"",""135113""
""blur"",""25"",""164674""
""focus"",""25"",""176465""
""blur"",""26"",""180121""
""focus"",""26"",""185421""
""blur"",""35"",""242780""
""focus"",""35"",""249589""
","""event"",""trial"",""time""
""blur"",""12"",""78014""
""blur"",""14"",""92867""
""blur"",""15"",""98375""
""blur"",""17"",""118318""
""blur"",""18"",""128351""
""blur"",""25"",""164674""
""blur"",""26"",""180121""
""blur"",""35"",""242780""
","""event"",""trial"",""time""
""focus"",""12"",""79804""
""focus"",""14"",""95331""
""focus"",""15"",""105807""
""focus"",""17"",""125397""
""focus"",""18"",""135113""
""focus"",""25"",""176465""
""focus"",""26"",""185421""
""focus"",""35"",""249589""
","""event"",""trial"",""time""
""fullscreenenter"",""1"",""1825""
","
","","","","","","null","<div style=""font-size:60px;"">+</div>","null","","fixation","","","","","","","","","","","","","",""
"learning-trial","48","308527","0.0-8.0-2.0-1.3","1622","1","2","""event"",""trial"",""time""
""fullscreenenter"",""1"",""1825""
""blur"",""12"",""78014""
""focus"",""12"",""79804""
""blur"",""14"",""92867""
""focus"",""14"",""95331""
""blur"",""15"",""98375""
""focus"",""15"",""105807""
""blur"",""17"",""118318""
""focus"",""17"",""125397""
""blur"",""18"",""128351""
""focus"",""18"",""135113""
""blur"",""25"",""164674""
""focus"",""25"",""176465""
""blur"",""26"",""180121""
""focus"",""26"",""185421""
""blur"",""35"",""242780""
""focus"",""35"",""249589""
","""event"",""trial"",""time""
""blur"",""12"",""78014""
""blur"",""14"",""92867""
""blur"",""15"",""98375""
""blur"",""17"",""118318""
""blur"",""18"",""128351""
""blur"",""25"",""164674""
""blur"",""26"",""180121""
""blur"",""35"",""242780""
","""event"",""trial"",""time""
""focus"",""12"",""79804""
""focus"",""14"",""95331""
""focus"",""15"",""105807""
""focus"",""17"",""125397""
""focus"",""18"",""135113""
""focus"",""25"",""176465""
""focus"",""26"",""185421""
""focus"",""35"",""249589""
","""event"",""trial"",""time""
""fullscreenenter"",""1"",""1825""
","
","","","","","","1723.4000000059605","images/ball2.png","","","practice","images/park1.png","images/park2.png","images/park3.png","[0,1,2]","2","2","2","images/park2.png","-1","practice","","","",""
"html-keyboard-response","49","309032","0.0-8.0-2.0-0.4","1622","1","2","""event"",""trial"",""time""
""fullscreenenter"",""1"",""1825""
""blur"",""12"",""78014""
""focus"",""12"",""79804""
""blur"",""14"",""92867""
""focus"",""14"",""95331""
""blur"",""15"",""98375""
""focus"",""15"",""105807""
""blur"",""17"",""118318""
""focus"",""17"",""125397""
""blur"",""18"",""128351""
""focus"",""18"",""135113""
""blur"",""25"",""164674""
""focus"",""25"",""176465""
""blur"",""26"",""180121""
""focus"",""26"",""185421""
""blur"",""35"",""242780""
""focus"",""35"",""249589""
","""event"",""trial"",""time""
""blur"",""12"",""78014""
""blur"",""14"",""92867""
""blur"",""15"",""98375""
""blur"",""17"",""118318""
""blur"",""18"",""128351""
""blur"",""25"",""164674""
""blur"",""26"",""180121""
""blur"",""35"",""242780""
","""event"",""trial"",""time""
""focus"",""12"",""79804""
""focus"",""14"",""95331""
""focus"",""15"",""105807""
""focus"",""17"",""125397""
""focus"",""18"",""135113""
""focus"",""25"",""176465""
""focus"",""26"",""185421""
""focus"",""35"",""249589""
","""event"",""trial"",""time""
""fullscreenenter"",""1"",""1825""
","
","","","","","","null","<div style=""font-size:60px;"">+</div>","null","","fixation","","","","","","","","","","","","","",""
"learning-trial","50","313042","0.0-8.0-2.0-1.4","1622","1","2","""event"",""trial"",""time""
""fullscreenenter"",""1"",""1825""
""blur"",""12"",""78014""
""focus"",""12"",""79804""
""blur"",""14"",""92867""
""focus"",""14"",""95331""
""blur"",""15"",""98375""
""focus"",""15"",""105807""
""blur"",""17"",""118318""
""focus"",""17"",""125397""
""blur"",""18"",""128351""
""focus"",""18"",""135113""
""blur"",""25"",""164674""
""focus"",""25"",""176465""
""blur"",""26"",""180121""
""focus"",""26"",""185421""
""blur"",""35"",""242780""
""focus"",""35"",""249589""
","""event"",""trial"",""time""
""blur"",""12"",""78014""
""blur"",""14"",""92867""
""blur"",""15"",""98375""
""blur"",""17"",""118318""
""blur"",""18"",""128351""
""blur"",""25"",""164674""
""blur"",""26"",""180121""
""blur"",""35"",""242780""
","""event"",""trial"",""time""
""focus"",""12"",""79804""
""focus"",""14"",""95331""
""focus"",""15"",""105807""
""focus"",""17"",""125397""
""focus"",""18"",""135113""
""focus"",""25"",""176465""
""focus"",""26"",""185421""
""focus"",""35"",""249589""
","""event"",""trial"",""time""
""fullscreenenter"",""1"",""1825""
","
","","","","","","1060.5","images/ball4.png","","","practice","images/park2.png","images/park1.png","images/park3.png","[1,0,2]","2","2","3","images/park3.png","1","practice","","","",""
"html-keyboard-response","51","313546","0.0-8.0-2.0-0.5","1622","1","2","""event"",""trial"",""time""
""fullscreenenter"",""1"",""1825""
""blur"",""12"",""78014""
""focus"",""12"",""79804""
""blur"",""14"",""92867""
""focus"",""14"",""95331""
""blur"",""15"",""98375""
""focus"",""15"",""105807""
""blur"",""17"",""118318""
""focus"",""17"",""125397""
""blur"",""18"",""128351""
""focus"",""18"",""135113""
""blur"",""25"",""164674""
""focus"",""25"",""176465""
""blur"",""26"",""180121""
""focus"",""26"",""185421""
""blur"",""35"",""242780""
""focus"",""35"",""249589""
","""event"",""trial"",""time""
""blur"",""12"",""78014""
""blur"",""14"",""92867""
""blur"",""15"",""98375""
""blur"",""17"",""118318""
""blur"",""18"",""128351""
""blur"",""25"",""164674""
""blur"",""26"",""180121""
""blur"",""35"",""242780""
","""event"",""trial"",""time""
""focus"",""12"",""79804""
""focus"",""14"",""95331""
""focus"",""15"",""105807""
""focus"",""17"",""125397""
""focus"",""18"",""135113""
""focus"",""25"",""176465""
""focus"",""26"",""185421""
""focus"",""35"",""249589""
","""event"",""trial"",""time""
""fullscreenenter"",""1"",""1825""
","
","","","","","","null","<div style=""font-size:60px;"">+</div>","null","","fixation","","","","","","","","","","","","","",""
"learning-trial","52","317552","0.0-8.0-2.0-1.5","1622","1","2","""event"",""trial"",""time""
""fullscreenenter"",""1"",""1825""
""blur"",""12"",""78014""
""focus"",""12"",""79804""
""blur"",""14"",""92867""
""focus"",""14"",""95331""
""blur"",""15"",""98375""
""focus"",""15"",""105807""
""blur"",""17"",""118318""
""focus"",""17"",""125397""
""blur"",""18"",""128351""
""focus"",""18"",""135113""
""blur"",""25"",""164674""
""focus"",""25"",""176465""
""blur"",""26"",""180121""
""focus"",""26"",""185421""
""blur"",""35"",""242780""
""focus"",""35"",""249589""
","""event"",""trial"",""time""
""blur"",""12"",""78014""
""blur"",""14"",""92867""
""blur"",""15"",""98375""
""blur"",""17"",""118318""
""blur"",""18"",""128351""
""blur"",""25"",""164674""
""blur"",""26"",""180121""
""blur"",""35"",""242780""
","""event"",""trial"",""time""
""focus"",""12"",""79804""
""focus"",""14"",""95331""
""focus"",""15"",""105807""
""focus"",""17"",""125397""
""focus"",""18"",""135113""
""focus"",""25"",""176465""
""focus"",""26"",""185421""
""focus"",""35"",""249589""
","""event"",""trial"",""time""
""fullscreenenter"",""1"",""1825""
","
","","","","","","1723.2000000029802","images/racket2.png","","","practice","images/park3.png","images/park2.png","images/park1.png","[2,1,0]","1","1","1","images/park3.png","-1","practice","","","",""
"html-keyboard-response","53","318056","0.0-8.0-2.0-0.6","1622","1","2","""event"",""trial"",""time""
""fullscreenenter"",""1"",""1825""
""blur"",""12"",""78014""
""focus"",""12"",""79804""
""blur"",""14"",""92867""
""focus"",""14"",""95331""
""blur"",""15"",""98375""
""focus"",""15"",""105807""
""blur"",""17"",""118318""
""focus"",""17"",""125397""
""blur"",""18"",""128351""
""focus"",""18"",""135113""
""blur"",""25"",""164674""
""focus"",""25"",""176465""
""blur"",""26"",""180121""
""focus"",""26"",""185421""
""blur"",""35"",""242780""
""focus"",""35"",""249589""
","""event"",""trial"",""time""
""blur"",""12"",""78014""
""blur"",""14"",""92867""
""blur"",""15"",""98375""
""blur"",""17"",""118318""
""blur"",""18"",""128351""
""blur"",""25"",""164674""
""blur"",""26"",""180121""
""blur"",""35"",""242780""
","""event"",""trial"",""time""
""focus"",""12"",""79804""
""focus"",""14"",""95331""
""focus"",""15"",""105807""
""focus"",""17"",""125397""
""focus"",""18"",""135113""
""focus"",""25"",""176465""
""focus"",""26"",""185421""
""focus"",""35"",""249589""
","""event"",""trial"",""time""
""fullscreenenter"",""1"",""1825""
","
","","","","","","null","<div style=""font-size:60px;"">+</div>","null","","fixation","","","","","","","","","","","","","",""
"learning-trial","54","322062","0.0-8.0-2.0-1.6","1622","1","2","""event"",""trial"",""time""
""fullscreenenter"",""1"",""1825""
""blur"",""12"",""78014""
""focus"",""12"",""79804""
""blur"",""14"",""92867""
""focus"",""14"",""95331""
""blur"",""15"",""98375""
""focus"",""15"",""105807""
""blur"",""17"",""118318""
""focus"",""17"",""125397""
""blur"",""18"",""128351""
""focus"",""18"",""135113""
""blur"",""25"",""164674""
""focus"",""25"",""176465""
""blur"",""26"",""180121""
""focus"",""26"",""185421""
""blur"",""35"",""242780""
""focus"",""35"",""249589""
","""event"",""trial"",""time""
""blur"",""12"",""78014""
""blur"",""14"",""92867""
""blur"",""15"",""98375""
""blur"",""17"",""118318""
""blur"",""18"",""128351""
""blur"",""25"",""164674""
""blur"",""26"",""180121""
""blur"",""35"",""242780""
","""event"",""trial"",""time""
""focus"",""12"",""79804""
""focus"",""14"",""95331""
""focus"",""15"",""105807""
""focus"",""17"",""125397""
""focus"",""18"",""135113""
""focus"",""25"",""176465""
""focus"",""26"",""185421""
""focus"",""35"",""249589""
","""event"",""trial"",""time""
""fullscreenenter"",""1"",""1825""
","
","","","","","","845.2000000029802","images/racket4.png","","","practice","images/park1.png","images/park2.png","images/park3.png","[0,1,2]","1","1","2","images/park2.png","1","practice","","","",""
"html-keyboard-response","55","322568","0.0-8.0-2.0-0.7","1622","1","2","""event"",""trial"",""time""
""fullscreenenter"",""1"",""1825""
""blur"",""12"",""78014""
""focus"",""12"",""79804""
""blur"",""14"",""92867""
""focus"",""14"",""95331""
""blur"",""15"",""98375""
""focus"",""15"",""105807""
""blur"",""17"",""118318""
""focus"",""17"",""125397""
""blur"",""18"",""128351""
""focus"",""18"",""135113""
""blur"",""25"",""164674""
""focus"",""25"",""176465""
""blur"",""26"",""180121""
""focus"",""26"",""185421""
""blur"",""35"",""242780""
""focus"",""35"",""249589""
","""event"",""trial"",""time""
""blur"",""12"",""78014""
""blur"",""14"",""92867""
""blur"",""15"",""98375""
""blur"",""17"",""118318""
""blur"",""18"",""128351""
""blur"",""25"",""164674""
""blur"",""26"",""180121""
""blur"",""35"",""242780""
","""event"",""trial"",""time""
""focus"",""12"",""79804""
""focus"",""14"",""95331""
""focus"",""15"",""105807""
""focus"",""17"",""125397""
""focus"",""18"",""135113""
""focus"",""25"",""176465""
""focus"",""26"",""185421""
""focus"",""35"",""249589""
","""event"",""trial"",""time""
""fullscreenenter"",""1"",""1825""
","
","","","","","","null","<div style=""font-size:60px;"">+</div>","null","","fixation","","","","","","","","","","","","","",""
"learning-trial","56","326573","0.0-8.0-2.0-1.7","1622","1","2","""event"",""trial"",""time""
""fullscreenenter"",""1"",""1825""
""blur"",""12"",""78014""
""focus"",""12"",""79804""
""blur"",""14"",""92867""
""focus"",""14"",""95331""
""blur"",""15"",""98375""
""focus"",""15"",""105807""
""blur"",""17"",""118318""
""focus"",""17"",""125397""
""blur"",""18"",""128351""
""focus"",""18"",""135113""
""blur"",""25"",""164674""
""focus"",""25"",""176465""
""blur"",""26"",""180121""
""focus"",""26"",""185421""
""blur"",""35"",""242780""
""focus"",""35"",""249589""
","""event"",""trial"",""time""
""blur"",""12"",""78014""
""blur"",""14"",""92867""
""blur"",""15"",""98375""
""blur"",""17"",""118318""
""blur"",""18"",""128351""
""blur"",""25"",""164674""
""blur"",""26"",""180121""
""blur"",""35"",""242780""
","""event"",""trial"",""time""
""focus"",""12"",""79804""
""focus"",""14"",""95331""
""focus"",""15"",""105807""
""focus"",""17"",""125397""
""focus"",""18"",""135113""
""focus"",""25"",""176465""
""focus"",""26"",""185421""
""focus"",""35"",""249589""
","""event"",""trial"",""time""
""fullscreenenter"",""1"",""1825""
","
","","","","","","1173.1000000089407","images/racket1.png","","","practice","images/park3.png","images/park1.png","images/park2.png","[2,0,1]","0","1","3","images/park2.png","-1","practice","","","",""
"html-keyboard-response","57","327077","0.0-8.0-2.0-0.8","1622","1","2","""event"",""trial"",""time""
""fullscreenenter"",""1"",""1825""
""blur"",""12"",""78014""
""focus"",""12"",""79804""
""blur"",""14"",""92867""
""focus"",""14"",""95331""
""blur"",""15"",""98375""
""focus"",""15"",""105807""
""blur"",""17"",""118318""
""focus"",""17"",""125397""
""blur"",""18"",""128351""
""focus"",""18"",""135113""
""blur"",""25"",""164674""
""focus"",""25"",""176465""
""blur"",""26"",""180121""
""focus"",""26"",""185421""
""blur"",""35"",""242780""
""focus"",""35"",""249589""
","""event"",""trial"",""time""
""blur"",""12"",""78014""
""blur"",""14"",""92867""
""blur"",""15"",""98375""
""blur"",""17"",""118318""
""blur"",""18"",""128351""
""blur"",""25"",""164674""
""blur"",""26"",""180121""
""blur"",""35"",""242780""
","""event"",""trial"",""time""
""focus"",""12"",""79804""
""focus"",""14"",""95331""
""focus"",""15"",""105807""
""focus"",""17"",""125397""
""focus"",""18"",""135113""
""focus"",""25"",""176465""
""focus"",""26"",""185421""
""focus"",""35"",""249589""
","""event"",""trial"",""time""
""fullscreenenter"",""1"",""1825""
","
","","","","","","null","<div style=""font-size:60px;"">+</div>","null","","fixation","","","","","","","","","","","","","",""
"learning-trial","58","331085","0.0-8.0-2.0-1.8","1622","1","2","""event"",""trial"",""time""
""fullscreenenter"",""1"",""1825""
""blur"",""12"",""78014""
""focus"",""12"",""79804""
""blur"",""14"",""92867""
""focus"",""14"",""95331""
""blur"",""15"",""98375""
""focus"",""15"",""105807""
""blur"",""17"",""118318""
""focus"",""17"",""125397""
""blur"",""18"",""128351""
""focus"",""18"",""135113""
""blur"",""25"",""164674""
""focus"",""25"",""176465""
""blur"",""26"",""180121""
""focus"",""26"",""185421""
""blur"",""35"",""242780""
""focus"",""35"",""249589""
","""event"",""trial"",""time""
""blur"",""12"",""78014""
""blur"",""14"",""92867""
""blur"",""15"",""98375""
""blur"",""17"",""118318""
""blur"",""18"",""128351""
""blur"",""25"",""164674""
""blur"",""26"",""180121""
""blur"",""35"",""242780""
","""event"",""trial"",""time""
""focus"",""12"",""79804""
""focus"",""14"",""95331""
""focus"",""15"",""105807""
""focus"",""17"",""125397""
""focus"",""18"",""135113""
""focus"",""25"",""176465""
""focus"",""26"",""185421""
""focus"",""35"",""249589""
","""event"",""trial"",""time""
""fullscreenenter"",""1"",""1825""
","
","","","","","","1886.2000000029802","images/ball4.png","","","practice","images/park1.png","images/park2.png","images/park3.png","[0,1,2]","2","2","3","images/park3.png","1","practice","","","",""
"html-keyboard-response","59","331590","0.0-8.0-2.0-0.9","1622","1","2","""event"",""trial"",""time""
""fullscreenenter"",""1"",""1825""
""blur"",""12"",""78014""
""focus"",""12"",""79804""
""blur"",""14"",""92867""
""focus"",""14"",""95331""
""blur"",""15"",""98375""
""focus"",""15"",""105807""
""blur"",""17"",""118318""
""focus"",""17"",""125397""
""blur"",""18"",""128351""
""focus"",""18"",""135113""
""blur"",""25"",""164674""
""focus"",""25"",""176465""
""blur"",""26"",""180121""
""focus"",""26"",""185421""
""blur"",""35"",""242780""
""focus"",""35"",""249589""
","""event"",""trial"",""time""
""blur"",""12"",""78014""
""blur"",""14"",""92867""
""blur"",""15"",""98375""
""blur"",""17"",""118318""
""blur"",""18"",""128351""
""blur"",""25"",""164674""
""blur"",""26"",""180121""
""blur"",""35"",""242780""
","""event"",""trial"",""time""
""focus"",""12"",""79804""
""focus"",""14"",""95331""
""focus"",""15"",""105807""
""focus"",""17"",""125397""
""focus"",""18"",""135113""
""focus"",""25"",""176465""
""focus"",""26"",""185421""
""focus"",""35"",""249589""
","""event"",""trial"",""time""
""fullscreenenter"",""1"",""1825""
","
","","","","","","null","<div style=""font-size:60px;"">+</div>","null","","fixation","","","","","","","","","","","","","",""
"learning-trial","60","335599","0.0-8.0-2.0-1.9","1622","1","2","""event"",""trial"",""time""
""fullscreenenter"",""1"",""1825""
""blur"",""12"",""78014""
""focus"",""12"",""79804""
""blur"",""14"",""92867""
""focus"",""14"",""95331""
""blur"",""15"",""98375""
""focus"",""15"",""105807""
""blur"",""17"",""118318""
""focus"",""17"",""125397""
""blur"",""18"",""128351""
""focus"",""18"",""135113""
""blur"",""25"",""164674""
""focus"",""25"",""176465""
""blur"",""26"",""180121""
""focus"",""26"",""185421""
""blur"",""35"",""242780""
""focus"",""35"",""249589""
","""event"",""trial"",""time""
""blur"",""12"",""78014""
""blur"",""14"",""92867""
""blur"",""15"",""98375""
""blur"",""17"",""118318""
""blur"",""18"",""128351""
""blur"",""25"",""164674""
""blur"",""26"",""180121""
""blur"",""35"",""242780""
","""event"",""trial"",""time""
""focus"",""12"",""79804""
""focus"",""14"",""95331""
""focus"",""15"",""105807""
""focus"",""17"",""125397""
""focus"",""18"",""135113""
""focus"",""25"",""176465""
""focus"",""26"",""185421""
""focus"",""35"",""249589""
","""event"",""trial"",""time""
""fullscreenenter"",""1"",""1825""
","
","","","","","","670.2000000029802","images/ball2.png","","","practice","images/park2.png","images/park3.png","images/park1.png","[1,2,0]","2","1","3","images/park1.png","1","practice","","","",""
"html-keyboard-response","61","336104","0.0-8.0-2.0-0.10","1622","1","2","""event"",""trial"",""time""
""fullscreenenter"",""1"",""1825""
""blur"",""12"",""78014""
""focus"",""12"",""79804""
""blur"",""14"",""92867""
""focus"",""14"",""95331""
""blur"",""15"",""98375""
""focus"",""15"",""105807""
""blur"",""17"",""118318""
""focus"",""17"",""125397""
""blur"",""18"",""128351""
""focus"",""18"",""135113""
""blur"",""25"",""164674""
""focus"",""25"",""176465""
""blur"",""26"",""180121""
""focus"",""26"",""185421""
""blur"",""35"",""242780""
""focus"",""35"",""249589""
","""event"",""trial"",""time""
""blur"",""12"",""78014""
""blur"",""14"",""92867""
""blur"",""15"",""98375""
""blur"",""17"",""118318""
""blur"",""18"",""128351""
""blur"",""25"",""164674""
""blur"",""26"",""180121""
""blur"",""35"",""242780""
","""event"",""trial"",""time""
""focus"",""12"",""79804""
""focus"",""14"",""95331""
""focus"",""15"",""105807""
""focus"",""17"",""125397""
""focus"",""18"",""135113""
""focus"",""25"",""176465""
""focus"",""26"",""185421""
""focus"",""35"",""249589""
","""event"",""trial"",""time""
""fullscreenenter"",""1"",""1825""
","
","","","","","","null","<div style=""font-size:60px;"">+</div>","null","","fixation","","","","","","","","","","","","","",""
"learning-trial","62","340110","0.0-8.0-2.0-1.10","1622","1","2","""event"",""trial"",""time""
""fullscreenenter"",""1"",""1825""
""blur"",""12"",""78014""
""focus"",""12"",""79804""
""blur"",""14"",""92867""
""focus"",""14"",""95331""
""blur"",""15"",""98375""
""focus"",""15"",""105807""
""blur"",""17"",""118318""
""focus"",""17"",""125397""
""blur"",""18"",""128351""
""focus"",""18"",""135113""
""blur"",""25"",""164674""
""focus"",""25"",""176465""
""blur"",""26"",""180121""
""focus"",""26"",""185421""
""blur"",""35"",""242780""
""focus"",""35"",""249589""
","""event"",""trial"",""time""
""blur"",""12"",""78014""
""blur"",""14"",""92867""
""blur"",""15"",""98375""
""blur"",""17"",""118318""
""blur"",""18"",""128351""
""blur"",""25"",""164674""
""blur"",""26"",""180121""
""blur"",""35"",""242780""
","""event"",""trial"",""time""
""focus"",""12"",""79804""
""focus"",""14"",""95331""
""focus"",""15"",""105807""
""focus"",""17"",""125397""
""focus"",""18"",""135113""
""focus"",""25"",""176465""
""focus"",""26"",""185421""
""focus"",""35"",""249589""
","""event"",""trial"",""time""
""fullscreenenter"",""1"",""1825""
","
","","","","","","1868.7000000029802","images/racket4.png","","","practice","images/park2.png","images/park1.png","images/park3.png","[1,0,2]","1","0","1","images/park2.png","1","practice","","","",""
"html-keyboard-response","63","340614","0.0-8.0-2.0-0.11","1622","1","2","""event"",""trial"",""time""
""fullscreenenter"",""1"",""1825""
""blur"",""12"",""78014""
""focus"",""12"",""79804""
""blur"",""14"",""92867""
""focus"",""14"",""95331""
""blur"",""15"",""98375""
""focus"",""15"",""105807""
""blur"",""17"",""118318""
""focus"",""17"",""125397""
""blur"",""18"",""128351""
""focus"",""18"",""135113""
""blur"",""25"",""164674""
""focus"",""25"",""176465""
""blur"",""26"",""180121""
""focus"",""26"",""185421""
""blur"",""35"",""242780""
""focus"",""35"",""249589""
","""event"",""trial"",""time""
""blur"",""12"",""78014""
""blur"",""14"",""92867""
""blur"",""15"",""98375""
""blur"",""17"",""118318""
""blur"",""18"",""128351""
""blur"",""25"",""164674""
""blur"",""26"",""180121""
""blur"",""35"",""242780""
","""event"",""trial"",""time""
""focus"",""12"",""79804""
""focus"",""14"",""95331""
""focus"",""15"",""105807""
""focus"",""17"",""125397""
""focus"",""18"",""135113""
""focus"",""25"",""176465""
""focus"",""26"",""185421""
""focus"",""35"",""249589""
","""event"",""trial"",""time""
""fullscreenenter"",""1"",""1825""
","
","","","","","","null","<div style=""font-size:60px;"">+</div>","null","","fixation","","","","","","","","","","","","","",""
"learning-trial","64","344620","0.0-8.0-2.0-1.11","1622","1","2","""event"",""trial"",""time""
""fullscreenenter"",""1"",""1825""
""blur"",""12"",""78014""
""focus"",""12"",""79804""
""blur"",""14"",""92867""
""focus"",""14"",""95331""
""blur"",""15"",""98375""
""focus"",""15"",""105807""
""blur"",""17"",""118318""
""focus"",""17"",""125397""
""blur"",""18"",""128351""
""focus"",""18"",""135113""
""blur"",""25"",""164674""
""focus"",""25"",""176465""
""blur"",""26"",""180121""
""focus"",""26"",""185421""
""blur"",""35"",""242780""
""focus"",""35"",""249589""
","""event"",""trial"",""time""
""blur"",""12"",""78014""
""blur"",""14"",""92867""
""blur"",""15"",""98375""
""blur"",""17"",""118318""
""blur"",""18"",""128351""
""blur"",""25"",""164674""
""blur"",""26"",""180121""
""blur"",""35"",""242780""
","""event"",""trial"",""time""
""focus"",""12"",""79804""
""focus"",""14"",""95331""
""focus"",""15"",""105807""
""focus"",""17"",""125397""
""focus"",""18"",""135113""
""focus"",""25"",""176465""
""focus"",""26"",""185421""
""focus"",""35"",""249589""
","""event"",""trial"",""time""
""fullscreenenter"",""1"",""1825""
","
","","","","","","1470.800000011921","images/racket2.png","","","practice","images/park2.png","images/park3.png","images/park1.png","[1,2,0]","1","0","2","images/park3.png","-1","practice","","","",""
"html-button-response","65","347333","0.0-8.0-3.0","1622","1","2","""event"",""trial"",""time""
""fullscreenenter"",""1"",""1825""
""blur"",""12"",""78014""
""focus"",""12"",""79804""
""blur"",""14"",""92867""
""focus"",""14"",""95331""
""blur"",""15"",""98375""
""focus"",""15"",""105807""
""blur"",""17"",""118318""
""focus"",""17"",""125397""
""blur"",""18"",""128351""
""focus"",""18"",""135113""
""blur"",""25"",""164674""
""focus"",""25"",""176465""
""blur"",""26"",""180121""
""focus"",""26"",""185421""
""blur"",""35"",""242780""
""focus"",""35"",""249589""
","""event"",""trial"",""time""
""blur"",""12"",""78014""
""blur"",""14"",""92867""
""blur"",""15"",""98375""
""blur"",""17"",""118318""
""blur"",""18"",""128351""
""blur"",""25"",""164674""
""blur"",""26"",""180121""
""blur"",""35"",""242780""
","""event"",""trial"",""time""
""focus"",""12"",""79804""
""focus"",""14"",""95331""
""focus"",""15"",""105807""
""focus"",""17"",""125397""
""focus"",""18"",""135113""
""focus"",""25"",""176465""
""focus"",""26"",""185421""
""focus"",""35"",""249589""
","""event"",""trial"",""time""
""fullscreenenter"",""1"",""1825""
","
","","","","","","2706.1000000089407","<p> You earned 2 points in the practice round! </p>","0","","break","","","","","","","","","","","","","",""
"learning-instructions","66","356684","0.0-8.0-4.0-0.0","1622","1","2","""event"",""trial"",""time""
""fullscreenenter"",""1"",""1825""
""blur"",""12"",""78014""
""focus"",""12"",""79804""
""blur"",""14"",""92867""
""focus"",""14"",""95331""
""blur"",""15"",""98375""
""focus"",""15"",""105807""
""blur"",""17"",""118318""
""focus"",""17"",""125397""
""blur"",""18"",""128351""
""focus"",""18"",""135113""
""blur"",""25"",""164674""
""focus"",""25"",""176465""
""blur"",""26"",""180121""
""focus"",""26"",""185421""
""blur"",""35"",""242780""
""focus"",""35"",""249589""
","""event"",""trial"",""time""
""blur"",""12"",""78014""
""blur"",""14"",""92867""
""blur"",""15"",""98375""
""blur"",""17"",""118318""
""blur"",""18"",""128351""
""blur"",""25"",""164674""
""blur"",""26"",""180121""
""blur"",""35"",""242780""
","""event"",""trial"",""time""
""focus"",""12"",""79804""
""focus"",""14"",""95331""
""focus"",""15"",""105807""
""focus"",""17"",""125397""
""focus"",""18"",""135113""
""focus"",""25"",""176465""
""focus"",""26"",""185421""
""focus"",""35"",""249589""
","""event"",""trial"",""time""
""fullscreenenter"",""1"",""1825""
","
","","","","","","1570.8999999910593","<p> It's almost time to start the real game. </p><p> Before you start, we're going to ask you a few questions about how the game works. </p>","","0","instructions","","","","","","","","","","","","","",""
"preload","67","359105","0.0-8.0-5.0","1622","1","2","""event"",""trial"",""time""
""fullscreenenter"",""1"",""1825""
""blur"",""12"",""78014""
""focus"",""12"",""79804""
""blur"",""14"",""92867""
""focus"",""14"",""95331""
""blur"",""15"",""98375""
""focus"",""15"",""105807""
""blur"",""17"",""118318""
""focus"",""17"",""125397""
""blur"",""18"",""128351""
""focus"",""18"",""135113""
""blur"",""25"",""164674""
""focus"",""25"",""176465""
""blur"",""26"",""180121""
""focus"",""26"",""185421""
""blur"",""35"",""242780""
""focus"",""35"",""249589""
","""event"",""trial"",""time""
""blur"",""12"",""78014""
""blur"",""14"",""92867""
""blur"",""15"",""98375""
""blur"",""17"",""118318""
""blur"",""18"",""128351""
""blur"",""25"",""164674""
""blur"",""26"",""180121""
""blur"",""35"",""242780""
","""event"",""trial"",""time""
""focus"",""12"",""79804""
""focus"",""14"",""95331""
""focus"",""15"",""105807""
""focus"",""17"",""125397""
""focus"",""18"",""135113""
""focus"",""25"",""176465""
""focus"",""26"",""185421""
""focus"",""35"",""249589""
","""event"",""trial"",""time""
""fullscreenenter"",""1"",""1825""
","
","true","false","[]","[]","[]","","","","","","","","","","","","","","","","","","",""
"comp-q","68","365618","0.0-8.0-6.0-0.0","1622","1","2","""event"",""trial"",""time""
""fullscreenenter"",""1"",""1825""
""blur"",""12"",""78014""
""focus"",""12"",""79804""
""blur"",""14"",""92867""
""focus"",""14"",""95331""
""blur"",""15"",""98375""
""focus"",""15"",""105807""
""blur"",""17"",""118318""
""focus"",""17"",""125397""
""blur"",""18"",""128351""
""focus"",""18"",""135113""
""blur"",""25"",""164674""
""focus"",""25"",""176465""
""blur"",""26"",""180121""
""focus"",""26"",""185421""
""blur"",""35"",""242780""
""focus"",""35"",""249589""
""blur"",""69"",""370099""
""focus"",""69"",""372930""
","""event"",""trial"",""time""
""blur"",""12"",""78014""
""blur"",""14"",""92867""
""blur"",""15"",""98375""
""blur"",""17"",""118318""
""blur"",""18"",""128351""
""blur"",""25"",""164674""
""blur"",""26"",""180121""
""blur"",""35"",""242780""
""blur"",""69"",""370099""
","""event"",""trial"",""time""
""focus"",""12"",""79804""
""focus"",""14"",""95331""
""focus"",""15"",""105807""
""focus"",""17"",""125397""
""focus"",""18"",""135113""
""focus"",""25"",""176465""
""focus"",""26"",""185421""
""focus"",""35"",""249589""
""focus"",""69"",""372930""
","""event"",""trial"",""time""
""fullscreenenter"",""1"",""1825""
","
","","","","","","1061.2000000029802","<p> <b> True or False? </b> </p><p> If you choose the best option, you will always earn 1 point. </p>","","1","comp_question","","","","","","","","","","","true","","",""
"comp-q","69","373483","0.0-8.0-6.0-1.0","1622","1","2","""event"",""trial"",""time""
""fullscreenenter"",""1"",""1825""
""blur"",""12"",""78014""
""focus"",""12"",""79804""
""blur"",""14"",""92867""
""focus"",""14"",""95331""
""blur"",""15"",""98375""
""focus"",""15"",""105807""
""blur"",""17"",""118318""
""focus"",""17"",""125397""
""blur"",""18"",""128351""
""focus"",""18"",""135113""
""blur"",""25"",""164674""
""focus"",""25"",""176465""
""blur"",""26"",""180121""
""focus"",""26"",""185421""
""blur"",""35"",""242780""
""focus"",""35"",""249589""
""blur"",""69"",""370099""
""focus"",""69"",""372930""
","""event"",""trial"",""time""
""blur"",""12"",""78014""
""blur"",""14"",""92867""
""blur"",""15"",""98375""
""blur"",""17"",""118318""
""blur"",""18"",""128351""
""blur"",""25"",""164674""
""blur"",""26"",""180121""
""blur"",""35"",""242780""
""blur"",""69"",""370099""
","""event"",""trial"",""time""
""focus"",""12"",""79804""
""focus"",""14"",""95331""
""focus"",""15"",""105807""
""focus"",""17"",""125397""
""focus"",""18"",""135113""
""focus"",""25"",""176465""
""focus"",""26"",""185421""
""focus"",""35"",""249589""
""focus"",""69"",""372930""
","""event"",""trial"",""time""
""fullscreenenter"",""1"",""1825""
","
","","","","","","2209.2000000029802","<p><b> That's right! </b> Sometimes you will lose 1 point, even if you choose the best option. </p>","","0","comp_answer","","","","","","","","","","","","","",""
"comp-q","70","378972","0.0-8.0-6.0-0.1","1622","1","2","""event"",""trial"",""time""
""fullscreenenter"",""1"",""1825""
""blur"",""12"",""78014""
""focus"",""12"",""79804""
""blur"",""14"",""92867""
""focus"",""14"",""95331""
""blur"",""15"",""98375""
""focus"",""15"",""105807""
""blur"",""17"",""118318""
""focus"",""17"",""125397""
""blur"",""18"",""128351""
""focus"",""18"",""135113""
""blur"",""25"",""164674""
""focus"",""25"",""176465""
""blur"",""26"",""180121""
""focus"",""26"",""185421""
""blur"",""35"",""242780""
""focus"",""35"",""249589""
""blur"",""69"",""370099""
""focus"",""69"",""372930""
","""event"",""trial"",""time""
""blur"",""12"",""78014""
""blur"",""14"",""92867""
""blur"",""15"",""98375""
""blur"",""17"",""118318""
""blur"",""18"",""128351""
""blur"",""25"",""164674""
""blur"",""26"",""180121""
""blur"",""35"",""242780""
""blur"",""69"",""370099""
","""event"",""trial"",""time""
""focus"",""12"",""79804""
""focus"",""14"",""95331""
""focus"",""15"",""105807""
""focus"",""17"",""125397""
""focus"",""18"",""135113""
""focus"",""25"",""176465""
""focus"",""26"",""185421""
""focus"",""35"",""249589""
""focus"",""69"",""372930""
","""event"",""trial"",""time""
""fullscreenenter"",""1"",""1825""
","
","","","","","","854.7999999970198","<p> <b> True or False? </b> </p><p> You will have as much time as you want to make each choice. </p>","","1","comp_question","","","","","","","","","","","true","","",""
"comp-q","71","387252","0.0-8.0-6.0-1.1","1622","1","2","""event"",""trial"",""time""
""fullscreenenter"",""1"",""1825""
""blur"",""12"",""78014""
""focus"",""12"",""79804""
""blur"",""14"",""92867""
""focus"",""14"",""95331""
""blur"",""15"",""98375""
""focus"",""15"",""105807""
""blur"",""17"",""118318""
""focus"",""17"",""125397""
""blur"",""18"",""128351""
""focus"",""18"",""135113""
""blur"",""25"",""164674""
""focus"",""25"",""176465""
""blur"",""26"",""180121""
""focus"",""26"",""185421""
""blur"",""35"",""242780""
""focus"",""35"",""249589""
""blur"",""69"",""370099""
""focus"",""69"",""372930""
","""event"",""trial"",""time""
""blur"",""12"",""78014""
""blur"",""14"",""92867""
""blur"",""15"",""98375""
""blur"",""17"",""118318""
""blur"",""18"",""128351""
""blur"",""25"",""164674""
""blur"",""26"",""180121""
""blur"",""35"",""242780""
""blur"",""69"",""370099""
","""event"",""trial"",""time""
""focus"",""12"",""79804""
""focus"",""14"",""95331""
""focus"",""15"",""105807""
""focus"",""17"",""125397""
""focus"",""18"",""135113""
""focus"",""25"",""176465""
""focus"",""26"",""185421""
""focus"",""35"",""249589""
""focus"",""69"",""372930""
","""event"",""trial"",""time""
""fullscreenenter"",""1"",""1825""
","
","","","","","","3462.5999999940395","<p> <b> That's right! </b> You will only have 4 seconds to make each choice. </p>","","0","comp_answer","","","","","","","","","","","","","",""
"comp-q","72","397260","0.0-8.0-6.0-0.2","1622","1","2","""event"",""trial"",""time""
""fullscreenenter"",""1"",""1825""
""blur"",""12"",""78014""
""focus"",""12"",""79804""
""blur"",""14"",""92867""
""focus"",""14"",""95331""
""blur"",""15"",""98375""
""focus"",""15"",""105807""
""blur"",""17"",""118318""
""focus"",""17"",""125397""
""blur"",""18"",""128351""
""focus"",""18"",""135113""
""blur"",""25"",""164674""
""focus"",""25"",""176465""
""blur"",""26"",""180121""
""focus"",""26"",""185421""
""blur"",""35"",""242780""
""focus"",""35"",""249589""
""blur"",""69"",""370099""
""focus"",""69"",""372930""
""blur"",""73"",""399799""
""focus"",""73"",""403290""
","""event"",""trial"",""time""
""blur"",""12"",""78014""
""blur"",""14"",""92867""
""blur"",""15"",""98375""
""blur"",""17"",""118318""
""blur"",""18"",""128351""
""blur"",""25"",""164674""
""blur"",""26"",""180121""
""blur"",""35"",""242780""
""blur"",""69"",""370099""
""blur"",""73"",""399799""
","""event"",""trial"",""time""
""focus"",""12"",""79804""
""focus"",""14"",""95331""
""focus"",""15"",""105807""
""focus"",""17"",""125397""
""focus"",""18"",""135113""
""focus"",""25"",""176465""
""focus"",""26"",""185421""
""focus"",""35"",""249589""
""focus"",""69"",""372930""
""focus"",""73"",""403290""
","""event"",""trial"",""time""
""fullscreenenter"",""1"",""1825""
","
","","","","","","3858.5","<p> <b> True or False? </b> </p><p> You should use the '1', '2', and '3' keys to make your choices. </p>","","0","comp_question","","","","","","","","","","","true","","",""
"comp-q","73","403698","0.0-8.0-6.0-1.2","1622","1","2","""event"",""trial"",""time""
""fullscreenenter"",""1"",""1825""
""blur"",""12"",""78014""
""focus"",""12"",""79804""
""blur"",""14"",""92867""
""focus"",""14"",""95331""
""blur"",""15"",""98375""
""focus"",""15"",""105807""
""blur"",""17"",""118318""
""focus"",""17"",""125397""
""blur"",""18"",""128351""
""focus"",""18"",""135113""
""blur"",""25"",""164674""
""focus"",""25"",""176465""
""blur"",""26"",""180121""
""focus"",""26"",""185421""
""blur"",""35"",""242780""
""focus"",""35"",""249589""
""blur"",""69"",""370099""
""focus"",""69"",""372930""
""blur"",""73"",""399799""
""focus"",""73"",""403290""
","""event"",""trial"",""time""
""blur"",""12"",""78014""
""blur"",""14"",""92867""
""blur"",""15"",""98375""
""blur"",""17"",""118318""
""blur"",""18"",""128351""
""blur"",""25"",""164674""
""blur"",""26"",""180121""
""blur"",""35"",""242780""
""blur"",""69"",""370099""
""blur"",""73"",""399799""
","""event"",""trial"",""time""
""focus"",""12"",""79804""
""focus"",""14"",""95331""
""focus"",""15"",""105807""
""focus"",""17"",""125397""
""focus"",""18"",""135113""
""focus"",""25"",""176465""
""focus"",""26"",""185421""
""focus"",""35"",""249589""
""focus"",""69"",""372930""
""focus"",""73"",""403290""
","""event"",""trial"",""time""
""fullscreenenter"",""1"",""1825""
","
","","","","","","1595.5","<p> <b> That's right! </b> You should use the '1', '2', and '3' keys to make each choice. </p>","","0","comp_answer","","","","","","","","","","","","","",""
"learning-instructions","74","413444","0.0-8.0-7.0-0.0","1622","1","2","""event"",""trial"",""time""
""fullscreenenter"",""1"",""1825""
""blur"",""12"",""78014""
""focus"",""12"",""79804""
""blur"",""14"",""92867""
""focus"",""14"",""95331""
""blur"",""15"",""98375""
""focus"",""15"",""105807""
""blur"",""17"",""118318""
""focus"",""17"",""125397""
""blur"",""18"",""128351""
""focus"",""18"",""135113""
""blur"",""25"",""164674""
""focus"",""25"",""176465""
""blur"",""26"",""180121""
""focus"",""26"",""185421""
""blur"",""35"",""242780""
""focus"",""35"",""249589""
""blur"",""69"",""370099""
""focus"",""69"",""372930""
""blur"",""73"",""399799""
""focus"",""73"",""403290""
","""event"",""trial"",""time""
""blur"",""12"",""78014""
""blur"",""14"",""92867""
""blur"",""15"",""98375""
""blur"",""17"",""118318""
""blur"",""18"",""128351""
""blur"",""25"",""164674""
""blur"",""26"",""180121""
""blur"",""35"",""242780""
""blur"",""69"",""370099""
""blur"",""73"",""399799""
","""event"",""trial"",""time""
""focus"",""12"",""79804""
""focus"",""14"",""95331""
""focus"",""15"",""105807""
""focus"",""17"",""125397""
""focus"",""18"",""135113""
""focus"",""25"",""176465""
""focus"",""26"",""185421""
""focus"",""35"",""249589""
""focus"",""69"",""372930""
""focus"",""73"",""403290""
","""event"",""trial"",""time""
""fullscreenenter"",""1"",""1825""
","
","","","","","","1257.5999999940395","<p> It's now time to start the real game. </p>Do your best, because the points you earn in the next rounds will influence your bonus payment. </p>","","0","instructions","","","","","","","","","","","","","",""
"preload","75","417306","0.0-9.0-0.0","1622","1","2","""event"",""trial"",""time""
""fullscreenenter"",""1"",""1825""
""blur"",""12"",""78014""
""focus"",""12"",""79804""
""blur"",""14"",""92867""
""focus"",""14"",""95331""
""blur"",""15"",""98375""
""focus"",""15"",""105807""
""blur"",""17"",""118318""
""focus"",""17"",""125397""
""blur"",""18"",""128351""
""focus"",""18"",""135113""
""blur"",""25"",""164674""
""focus"",""25"",""176465""
""blur"",""26"",""180121""
""focus"",""26"",""185421""
""blur"",""35"",""242780""
""focus"",""35"",""249589""
""blur"",""69"",""370099""
""focus"",""69"",""372930""
""blur"",""73"",""399799""
""focus"",""73"",""403290""
","""event"",""trial"",""time""
""blur"",""12"",""78014""
""blur"",""14"",""92867""
""blur"",""15"",""98375""
""blur"",""17"",""118318""
""blur"",""18"",""128351""
""blur"",""25"",""164674""
""blur"",""26"",""180121""
""blur"",""35"",""242780""
""blur"",""69"",""370099""
""blur"",""73"",""399799""
","""event"",""trial"",""time""
""focus"",""12"",""79804""
""focus"",""14"",""95331""
""focus"",""15"",""105807""
""focus"",""17"",""125397""
""focus"",""18"",""135113""
""focus"",""25"",""176465""
""focus"",""26"",""185421""
""focus"",""35"",""249589""
""focus"",""69"",""372930""
""focus"",""73"",""403290""
","""event"",""trial"",""time""
""fullscreenenter"",""1"",""1825""
","
","true","false","[]","[]","[]","","","","","","","","","","","","","","","","","","",""
"learning-instructions","76","427076","0.0-9.0-1.0-0.0","1622","1","2","""event"",""trial"",""time""
""fullscreenenter"",""1"",""1825""
""blur"",""12"",""78014""
""focus"",""12"",""79804""
""blur"",""14"",""92867""
""focus"",""14"",""95331""
""blur"",""15"",""98375""
""focus"",""15"",""105807""
""blur"",""17"",""118318""
""focus"",""17"",""125397""
""blur"",""18"",""128351""
""focus"",""18"",""135113""
""blur"",""25"",""164674""
""focus"",""25"",""176465""
""blur"",""26"",""180121""
""focus"",""26"",""185421""
""blur"",""35"",""242780""
""focus"",""35"",""249589""
""blur"",""69"",""370099""
""focus"",""69"",""372930""
""blur"",""73"",""399799""
""focus"",""73"",""403290""
","""event"",""trial"",""time""
""blur"",""12"",""78014""
""blur"",""14"",""92867""
""blur"",""15"",""98375""
""blur"",""17"",""118318""
""blur"",""18"",""128351""
""blur"",""25"",""164674""
""blur"",""26"",""180121""
""blur"",""35"",""242780""
""blur"",""69"",""370099""
""blur"",""73"",""399799""
","""event"",""trial"",""time""
""focus"",""12"",""79804""
""focus"",""14"",""95331""
""focus"",""15"",""105807""
""focus"",""17"",""125397""
""focus"",""18"",""135113""
""focus"",""25"",""176465""
""focus"",""26"",""185421""
""focus"",""35"",""249589""
""focus"",""69"",""372930""
""focus"",""73"",""403290""
","""event"",""trial"",""time""
""fullscreenenter"",""1"",""1825""
","
","","","","","","1439.7999999970198","<p> Your goal in this round is to travel the world by putting fuel into different vehicles. </p><p> To travel, you will need to put fuel into many different vehicles. </p></div>","","0","instructions","","","","","","","","","","","","","",""
"learning-instructions","77","437156","0.0-9.0-1.0-0.1","1622","1","2","""event"",""trial"",""time""
""fullscreenenter"",""1"",""1825""
""blur"",""12"",""78014""
""focus"",""12"",""79804""
""blur"",""14"",""92867""
""focus"",""14"",""95331""
""blur"",""15"",""98375""
""focus"",""15"",""105807""
""blur"",""17"",""118318""
""focus"",""17"",""125397""
""blur"",""18"",""128351""
""focus"",""18"",""135113""
""blur"",""25"",""164674""
""focus"",""25"",""176465""
""blur"",""26"",""180121""
""focus"",""26"",""185421""
""blur"",""35"",""242780""
""focus"",""35"",""249589""
""blur"",""69"",""370099""
""focus"",""69"",""372930""
""blur"",""73"",""399799""
""focus"",""73"",""403290""
","""event"",""trial"",""time""
""blur"",""12"",""78014""
""blur"",""14"",""92867""
""blur"",""15"",""98375""
""blur"",""17"",""118318""
""blur"",""18"",""128351""
""blur"",""25"",""164674""
""blur"",""26"",""180121""
""blur"",""35"",""242780""
""blur"",""69"",""370099""
""blur"",""73"",""399799""
","""event"",""trial"",""time""
""focus"",""12"",""79804""
""focus"",""14"",""95331""
""focus"",""15"",""105807""
""focus"",""17"",""125397""
""focus"",""18"",""135113""
""focus"",""25"",""176465""
""focus"",""26"",""185421""
""focus"",""35"",""249589""
""focus"",""69"",""372930""
""focus"",""73"",""403290""
","""event"",""trial"",""time""
""fullscreenenter"",""1"",""1825""
","
","","","","","","1297.4000000059605","<p> On each turn, you will see a picture of one of your vehicles and three different types of fuel.  </p><p> You need to select which kind of fuel to use.  </p>","","0","instructions","","","","","","","","","","","","","",""
"learning-instructions","78","444947","0.0-9.0-1.0-0.2","1622","1","2","""event"",""trial"",""time""
""fullscreenenter"",""1"",""1825""
""blur"",""12"",""78014""
""focus"",""12"",""79804""
""blur"",""14"",""92867""
""focus"",""14"",""95331""
""blur"",""15"",""98375""
""focus"",""15"",""105807""
""blur"",""17"",""118318""
""focus"",""17"",""125397""
""blur"",""18"",""128351""
""focus"",""18"",""135113""
""blur"",""25"",""164674""
""focus"",""25"",""176465""
""blur"",""26"",""180121""
""focus"",""26"",""185421""
""blur"",""35"",""242780""
""focus"",""35"",""249589""
""blur"",""69"",""370099""
""focus"",""69"",""372930""
""blur"",""73"",""399799""
""focus"",""73"",""403290""
""blur"",""79"",""449230""
""focus"",""79"",""452244""
","""event"",""trial"",""time""
""blur"",""12"",""78014""
""blur"",""14"",""92867""
""blur"",""15"",""98375""
""blur"",""17"",""118318""
""blur"",""18"",""128351""
""blur"",""25"",""164674""
""blur"",""26"",""180121""
""blur"",""35"",""242780""
""blur"",""69"",""370099""
""blur"",""73"",""399799""
""blur"",""79"",""449230""
","""event"",""trial"",""time""
""focus"",""12"",""79804""
""focus"",""14"",""95331""
""focus"",""15"",""105807""
""focus"",""17"",""125397""
""focus"",""18"",""135113""
""focus"",""25"",""176465""
""focus"",""26"",""185421""
""focus"",""35"",""249589""
""focus"",""69"",""372930""
""focus"",""73"",""403290""
""focus"",""79"",""452244""
","""event"",""trial"",""time""
""fullscreenenter"",""1"",""1825""
","
","","","","","","920.2999999970198","<p> You can select the fuel on the left by pressing 1, the fuel in the middle by pressing 2, and the fuel on the right by pressing 3. </p><br><div class=""choice-instructions-grid""> <div class=""choice-option""><img src=""images/vehicles_choice1.png"" class=""choice-option-img"" stage=""instructions"" position=""0"" ><div class=""choice-option-text""> Press ""1."" </div></div><div class=""choice-option""><img src=""images/vehicles_choice2.png"" class=""choice-option-img"" stage=""instructions"" position=""1"" ><div class=""choice-option-text""> Press ""2."" </div></div><div class=""choice-option""><img src=""images/vehicles_choice3.png"" class=""choice-option-img"" stage=""instructions"" position=""2"" ><div class=""choice-option-text""> Press ""3."" </div></div></div>","","0","instructions","","","","","","","","","","","","","",""
"learning-instructions","79","452686","0.0-9.0-1.0-0.3","1622","1","2","""event"",""trial"",""time""
""fullscreenenter"",""1"",""1825""
""blur"",""12"",""78014""
""focus"",""12"",""79804""
""blur"",""14"",""92867""
""focus"",""14"",""95331""
""blur"",""15"",""98375""
""focus"",""15"",""105807""
""blur"",""17"",""118318""
""focus"",""17"",""125397""
""blur"",""18"",""128351""
""focus"",""18"",""135113""
""blur"",""25"",""164674""
""focus"",""25"",""176465""
""blur"",""26"",""180121""
""focus"",""26"",""185421""
""blur"",""35"",""242780""
""focus"",""35"",""249589""
""blur"",""69"",""370099""
""focus"",""69"",""372930""
""blur"",""73"",""399799""
""focus"",""73"",""403290""
""blur"",""79"",""449230""
""focus"",""79"",""452244""
""blur"",""80"",""455420""
""focus"",""80"",""458339""
","""event"",""trial"",""time""
""blur"",""12"",""78014""
""blur"",""14"",""92867""
""blur"",""15"",""98375""
""blur"",""17"",""118318""
""blur"",""18"",""128351""
""blur"",""25"",""164674""
""blur"",""26"",""180121""
""blur"",""35"",""242780""
""blur"",""69"",""370099""
""blur"",""73"",""399799""
""blur"",""79"",""449230""
""blur"",""80"",""455420""
","""event"",""trial"",""time""
""focus"",""12"",""79804""
""focus"",""14"",""95331""
""focus"",""15"",""105807""
""focus"",""17"",""125397""
""focus"",""18"",""135113""
""focus"",""25"",""176465""
""focus"",""26"",""185421""
""focus"",""35"",""249589""
""focus"",""69"",""372930""
""focus"",""73"",""403290""
""focus"",""79"",""452244""
""focus"",""80"",""458339""
","""event"",""trial"",""time""
""fullscreenenter"",""1"",""1825""
","
","","","","","","2513.5","<p> If the fuel you chose works for that vehicle, it will start, and </p><p> you will get to travel. </p><div style='float: center;'><img src='images/check.png' width = '200' height = '200'></img>","","0","instructions","","","","","","","","","","","","","",""
"learning-instructions","80","458911","0.0-9.0-1.0-0.4","1622","1","2","""event"",""trial"",""time""
""fullscreenenter"",""1"",""1825""
""blur"",""12"",""78014""
""focus"",""12"",""79804""
""blur"",""14"",""92867""
""focus"",""14"",""95331""
""blur"",""15"",""98375""
""focus"",""15"",""105807""
""blur"",""17"",""118318""
""focus"",""17"",""125397""
""blur"",""18"",""128351""
""focus"",""18"",""135113""
""blur"",""25"",""164674""
""focus"",""25"",""176465""
""blur"",""26"",""180121""
""focus"",""26"",""185421""
""blur"",""35"",""242780""
""focus"",""35"",""249589""
""blur"",""69"",""370099""
""focus"",""69"",""372930""
""blur"",""73"",""399799""
""focus"",""73"",""403290""
""blur"",""79"",""449230""
""focus"",""79"",""452244""
""blur"",""80"",""455420""
""focus"",""80"",""458339""
""blur"",""81"",""461102""
""focus"",""81"",""470589""
","""event"",""trial"",""time""
""blur"",""12"",""78014""
""blur"",""14"",""92867""
""blur"",""15"",""98375""
""blur"",""17"",""118318""
""blur"",""18"",""128351""
""blur"",""25"",""164674""
""blur"",""26"",""180121""
""blur"",""35"",""242780""
""blur"",""69"",""370099""
""blur"",""73"",""399799""
""blur"",""79"",""449230""
""blur"",""80"",""455420""
""blur"",""81"",""461102""
","""event"",""trial"",""time""
""focus"",""12"",""79804""
""focus"",""14"",""95331""
""focus"",""15"",""105807""
""focus"",""17"",""125397""
""focus"",""18"",""135113""
""focus"",""25"",""176465""
""focus"",""26"",""185421""
""focus"",""35"",""249589""
""focus"",""69"",""372930""
""focus"",""73"",""403290""
""focus"",""79"",""452244""
""focus"",""80"",""458339""
""focus"",""81"",""470589""
","""event"",""trial"",""time""
""fullscreenenter"",""1"",""1825""
","
","","","","","","1685.5","<p> But, if the fuel you chose does not work, your vehicle will not move. </p><div style='float: center;'><img src='images/x.png' width = '200' height = '200'></img>","","0","instructions","","","","","","","","","","","","","",""
"learning-instructions","81","471055","0.0-9.0-1.0-0.5","1622","1","2","""event"",""trial"",""time""
""fullscreenenter"",""1"",""1825""
""blur"",""12"",""78014""
""focus"",""12"",""79804""
""blur"",""14"",""92867""
""focus"",""14"",""95331""
""blur"",""15"",""98375""
""focus"",""15"",""105807""
""blur"",""17"",""118318""
""focus"",""17"",""125397""
""blur"",""18"",""128351""
""focus"",""18"",""135113""
""blur"",""25"",""164674""
""focus"",""25"",""176465""
""blur"",""26"",""180121""
""focus"",""26"",""185421""
""blur"",""35"",""242780""
""focus"",""35"",""249589""
""blur"",""69"",""370099""
""focus"",""69"",""372930""
""blur"",""73"",""399799""
""focus"",""73"",""403290""
""blur"",""79"",""449230""
""focus"",""79"",""452244""
""blur"",""80"",""455420""
""focus"",""80"",""458339""
""blur"",""81"",""461102""
""focus"",""81"",""470589""
""blur"",""82"",""478762""
""focus"",""82"",""483452""
","""event"",""trial"",""time""
""blur"",""12"",""78014""
""blur"",""14"",""92867""
""blur"",""15"",""98375""
""blur"",""17"",""118318""
""blur"",""18"",""128351""
""blur"",""25"",""164674""
""blur"",""26"",""180121""
""blur"",""35"",""242780""
""blur"",""69"",""370099""
""blur"",""73"",""399799""
""blur"",""79"",""449230""
""blur"",""80"",""455420""
""blur"",""81"",""461102""
""blur"",""82"",""478762""
","""event"",""trial"",""time""
""focus"",""12"",""79804""
""focus"",""14"",""95331""
