"trial_type","trial_index","time_elapsed","internal_node_id","subject_id","condition","task_version","interactions","blur_events","focus_events","fullscreenenter_events","fullscreenexit_events","success","timeout","failed_images","failed_audio","failed_video","rt","stimulus","response","button_pressed","task_part","left_choice","middle_choice","right_choice","choice_positions","correct_response","correct_position","key_press","option_selected","points","task_block","correct","stim_cat","block_condition","block_number"
"pavlovia","0","8","0.0-0.0","1719","1","2","""event"",""trial"",""time""
""fullscreenenter"",""1"",""2558""
","
","
","""event"",""trial"",""time""
""fullscreenenter"",""1"",""2558""
","
","","","","","","","","","","","","","","","","","","","","","","","",""
"fullscreen","1","3501","0.0-1.0","1719","1","2","""event"",""trial"",""time""
""fullscreenenter"",""1"",""2558""
","
","
","""event"",""trial"",""time""
""fullscreenenter"",""1"",""2558""
","
","true","","","","","","","","","","","","","","","","","","","","","","",""
"preload","2","38326","0.0-2.0","1719","1","2","""event"",""trial"",""time""
""fullscreenenter"",""1"",""2558""
","
","
","""event"",""trial"",""time""
""fullscreenenter"",""1"",""2558""
","
","true","false","[]","[]","[]","","","","","","","","","","","","","","","","","","",""
"audio-keyboard-response","3","42195","0.0-3.0","1719","1","2","""event"",""trial"",""time""
""fullscreenenter"",""1"",""2558""
","
","
","""event"",""trial"",""time""
""fullscreenenter"",""1"",""2558""
","
","","","","","","3869.333333333337","audio/beep_loop.wav"," ","","","","","","","","","","","","","","","",""
"audio-button-response","4","44392","0.0-4.0","1719","1","2","""event"",""trial"",""time""
""fullscreenenter"",""1"",""2558""
","
","
","""event"",""trial"",""time""
""fullscreenenter"",""1"",""2558""
","
","","","","","","2189","audio/shark.wav","4","","","","","","","","","","","","","","","",""
"audio-button-response","5","48488","0.0-5.0","1719","1","2","""event"",""trial"",""time""
""fullscreenenter"",""1"",""2558""
","
","
","""event"",""trial"",""time""
""fullscreenenter"",""1"",""2558""
","
","","","","","","3072","audio/turtle.wav","1","","","","","","","","","","","","","","","",""
"preload","6","62539","0.0-6.0","1719","1","2","""event"",""trial"",""time""
""fullscreenenter"",""1"",""2558""
","
","
","""event"",""trial"",""time""
""fullscreenenter"",""1"",""2558""
","
","true","false","[]","[]","[]","","","","","","","","","","","","","","","","","","",""
"html-keyboard-response","7","89535","0.0-7.0","1719","1","2","""event"",""trial"",""time""
""fullscreenenter"",""1"",""2558""
","
","
","""event"",""trial"",""time""
""fullscreenenter"",""1"",""2558""
","
","","","","","","26992.5","Welcome to the experiment. Press any key to begin and to advance the instructions."," ","","","","","","","","","","","","","","","",""
"learning-instructions","8","101049","0.0-8.0-0.0-0.0","1719","1","2","""event"",""trial"",""time""
""fullscreenenter"",""1"",""2558""
","
","
","""event"",""trial"",""time""
""fullscreenenter"",""1"",""2558""
","
","","","","","","3492.899999856949","<p> Welcome! Today you are going to play 6 different rounds of a decision-making game. </p><p> Use the mouse to click next to continue. </p>","","0","instructions","","","","","","","","","","","","","",""
"learning-instructions","9","110664","0.0-8.0-0.0-0.1","1719","1","2","""event"",""trial"",""time""
""fullscreenenter"",""1"",""2558""
","
","
","""event"",""trial"",""time""
""fullscreenenter"",""1"",""2558""
","
","","","","","","6610.300000190735","<p> You will start with a practice round to learn the rules. </p>","","0","instructions","","","","","","","","","","","","","",""
"learning-instructions","10","119542","0.0-8.0-0.0-0.2","1719","1","2","""event"",""trial"",""time""
""fullscreenenter"",""1"",""2558""
","
","
","""event"",""trial"",""time""
""fullscreenenter"",""1"",""2558""
","
","","","","","","1137.7000000476837","<p> Your goal in this round is to deliver sports equipment to three different parks. </p><p> You will need to deliver many types of equipment. </p></div>","","0","instructions","","","","","","","","","","","","","",""
"learning-instructions","11","129465","0.0-8.0-0.0-0.3","1719","1","2","""event"",""trial"",""time""
""fullscreenenter"",""1"",""2558""
","
","
","""event"",""trial"",""time""
""fullscreenenter"",""1"",""2558""
","
","","","","","","1431.6000001430511","<p> On each turn, you will see one piece of sports equipment and three different parks.  </p><p> You need to select which park to deliver the equipment to.  </p>","","0","instructions","","","","","","","","","","","","","",""
"learning-instructions","12","145895","0.0-8.0-0.0-0.4","1719","1","2","""event"",""trial"",""time""
""fullscreenenter"",""1"",""2558""
","
","
","""event"",""trial"",""time""
""fullscreenenter"",""1"",""2558""
","
","","","","","","3140.9000000953674","<p> You can select the park on the left by pressing the '1' key on your keyboard. <br>You can select the park in the middle by pressing the '2' key on your keyboard. <br>You can select the park on the right by pressing the '3' key on your keyboard.  </p><br><div class=""choice-instructions-grid""> <div class=""choice-option""><img src=""images/park1.png"" class=""choice-option-img"" stage=""instructions"" position=""0"" ><div class=""choice-option-text""> Press ""1."" </div></div><div class=""choice-option""><img src=""images/park2.png"" class=""choice-option-img"" stage=""instructions"" position=""1"" ><div class=""choice-option-text""> Press ""2."" </div></div><div class=""choice-option""><img src=""images/park3.png"" class=""choice-option-img"" stage=""instructions"" position=""2"" ><div class=""choice-option-text""> Press ""3."" </div></div></div>","","0","instructions","","","","","","","","","","","","","",""
"learning-instructions","13","155594","0.0-8.0-0.0-0.5","1719","1","2","""event"",""trial"",""time""
""fullscreenenter"",""1"",""2558""
","
","
","""event"",""trial"",""time""
""fullscreenenter"",""1"",""2558""
","
","","","","","","4309.599999904633","<p> If the kids in the park you chose like the equipment, they will be very happy! </p><div style='float: center;'><img src='images/check.png' width = '200' height = '200'></img>","","0","instructions","","","","","","","","","","","","","",""
"learning-instructions","14","162319","0.0-8.0-0.0-0.6","1719","1","2","""event"",""trial"",""time""
""fullscreenenter"",""1"",""2558""
","
","
","""event"",""trial"",""time""
""fullscreenenter"",""1"",""2558""
","
","","","","","","1124.2000000476837","<p> But, if the kids in the park you chose do not like the equipment, they will be sad. </p><div style='float: center;'><img src='images/x.png' width = '200' height = '200'></img>","","0","instructions","","","","","","","","","","","","","",""
"learning-instructions","15","170853","0.0-8.0-0.0-0.7","1719","1","2","""event"",""trial"",""time""
""fullscreenenter"",""1"",""2558""
","
","
","""event"",""trial"",""time""
""fullscreenenter"",""1"",""2558""
","
","","","","","","2099.600000143051","<p> Importantly, the kids in each park like some pieces of sports equipment more than others. </p>","","0","instructions","","","","","","","","","","","","","",""
"learning-instructions","16","177546","0.0-8.0-0.0-0.8","1719","1","2","""event"",""trial"",""time""
""fullscreenenter"",""1"",""2558""
","
","
","""event"",""trial"",""time""
""fullscreenenter"",""1"",""2558""
","
","","","","","","631.2999999523163","<p> If you choose the best park for each piece of equipment, the kids there will usually be happy. </p>","","0","instructions","","","","","","","","","","","","","",""
"learning-instructions","17","187048","0.0-8.0-0.0-0.9","1719","1","2","""event"",""trial"",""time""
""fullscreenenter"",""1"",""2558""
","
","
","""event"",""trial"",""time""
""fullscreenenter"",""1"",""2558""
","
","","","","","","2863.7999999523163","<p> However, even if you choose the best park for the equipment, the kids may sometimes be sad. </p>","","0","instructions","","","","","","","","","","","","","",""
"learning-instructions","18","195644","0.0-8.0-0.0-0.10","1719","1","2","""event"",""trial"",""time""
""fullscreenenter"",""1"",""2558""
","
","
","""event"",""trial"",""time""
""fullscreenenter"",""1"",""2558""
","
","","","","","","1361.4000000953674","<p> Similarly, even if you choose the <i>wrong</i> park for the equipment, the kids may still be happy sometimes.","","0","instructions","","","","","","","","","","","","","",""
"learning-instructions","19","201957","0.0-8.0-0.0-0.11","1719","1","2","""event"",""trial"",""time""
""fullscreenenter"",""1"",""2558""
","
","
","""event"",""trial"",""time""
""fullscreenenter"",""1"",""2558""
","
","","","","","","1254.4000000953674","<p> For example, the best park for this soccer ball is this one.<div style='float: center;'><img src='images/i1.png' width = '500' height = '268'></img>","","0","instructions","","","","","","","","","","","","","",""
"learning-instructions","20","208041","0.0-8.0-0.0-0.12","1719","1","2","""event"",""trial"",""time""
""fullscreenenter"",""1"",""2558""
","
","
","""event"",""trial"",""time""
""fullscreenenter"",""1"",""2558""
","
","","","","","","788.7999999523163","<p> Let's see what happens if you choose this park for the soccer ball five times.","","0","instructions","","","","","","","","","","","","","",""
"learning-instructions","21","211020","0.0-8.0-0.0-0.13","1719","1","2","""event"",""trial"",""time""
""fullscreenenter"",""1"",""2558""
","
","
","""event"",""trial"",""time""
""fullscreenenter"",""1"",""2558""
","
","","","","","","817","<p> The kids are happy.<div style='float: left;'><img src='images/i2.png' width = '640' height = '360'></img>","","0","instructions","","","","","","","","","","","","","",""
"learning-instructions","22","213709","0.0-8.0-0.0-0.14","1719","1","2","""event"",""trial"",""time""
""fullscreenenter"",""1"",""2558""
","
","
","""event"",""trial"",""time""
""fullscreenenter"",""1"",""2558""
","
","","","","","","515.5","<p> The kids are happy.<div style='float: left;'><img src='images/i3.png' width = '640' height = '360'></img>","","0","instructions","","","","","","","","","","","","","",""
"learning-instructions","23","216317","0.0-8.0-0.0-0.15","1719","1","2","""event"",""trial"",""time""
""fullscreenenter"",""1"",""2558""
","
","
","""event"",""trial"",""time""
""fullscreenenter"",""1"",""2558""
","
","","","","","","433.40000009536743","<p> The kids are happy.<div style='float: left;'><img src='images/i4.png' width = '640' height = '360'></img>","","0","instructions","","","","","","","","","","","","","",""
"learning-instructions","24","218859","0.0-8.0-0.0-0.16","1719","1","2","""event"",""trial"",""time""
""fullscreenenter"",""1"",""2558""
","
","
","""event"",""trial"",""time""
""fullscreenenter"",""1"",""2558""
","
","","","","","","334.2999999523163","<p> The kids are sad.<div style='float: left;'><img src='images/i5.png' width = '640' height = '360'></img>","","0","instructions","","","","","","","","","","","","","",""
"learning-instructions","25","221449","0.0-8.0-0.0-0.17","1719","1","2","""event"",""trial"",""time""
""fullscreenenter"",""1"",""2558""
","
","
","""event"",""trial"",""time""
""fullscreenenter"",""1"",""2558""
","
","","","","","","425.7000000476837","<p> The kids are happy.<div style='float: left;'><img src='images/i6.png' width = '640' height = '360'></img>","","0","instructions","","","","","","","","","","","","","",""
"learning-instructions","26","229997","0.0-8.0-0.0-0.18","1719","1","2","""event"",""trial"",""time""
""fullscreenenter"",""1"",""2558""
","
","
","""event"",""trial"",""time""
""fullscreenenter"",""1"",""2558""
","
","","","","","","1263.4000000953674","<p> As you can see, selecting that park for the soccer ball made the kids happy most of the time, but not all the time.","","0","instructions","","","","","","","","","","","","","",""
"learning-instructions","27","237404","0.0-8.0-0.0-0.19","1719","1","2","""event"",""trial"",""time""
""fullscreenenter"",""1"",""2558""
","
","
","""event"",""trial"",""time""
""fullscreenenter"",""1"",""2558""
","
","","","","","","1409.7999999523163","<p> Now let's see what happens if you choose a DIFFERENT park for the soccer ball 5 times.","","0","instructions","","","","","","","","","","","","","",""
"learning-instructions","28","240354","0.0-8.0-0.0-0.20","1719","1","2","""event"",""trial"",""time""
""fullscreenenter"",""1"",""2558""
","
","
","""event"",""trial"",""time""
""fullscreenenter"",""1"",""2558""
","
","","","","","","749.5","<p> The kids are sad.<div style='float: left;'><img src='images/i7.png' width = '640' height = '360'></img>","","0","instructions","","","","","","","","","","","","","",""
"learning-instructions","29","242807","0.0-8.0-0.0-0.21","1719","1","2","""event"",""trial"",""time""
""fullscreenenter"",""1"",""2558""
","
","
","""event"",""trial"",""time""
""fullscreenenter"",""1"",""2558""
","
","","","","","","252.09999990463257","<p> The kids are sad.<div style='float: left;'><img src='images/i8.png' width = '640' height = '360'></img>","","0","instructions","","","","","","","","","","","","","",""
"learning-instructions","30","246177","0.0-8.0-0.0-0.22","1719","1","2","""event"",""trial"",""time""
""fullscreenenter"",""1"",""2558""
","
","
","""event"",""trial"",""time""
""fullscreenenter"",""1"",""2558""
","
","","","","","","1191.5","<p> The kids are happy.<div style='float: left;'><img src='images/i9.png' width = '640' height = '360'></img>","","0","instructions","","","","","","","","","","","","","",""
"learning-instructions","31","255911","0.0-8.0-0.0-0.23","1719","1","2","""event"",""trial"",""time""
""fullscreenenter"",""1"",""2558""
","
","
","""event"",""trial"",""time""
""fullscreenenter"",""1"",""2558""
","
","","","","","","7515.700000047684","<p> The kids are sad.<div style='float: left;'><img src='images/i10.png' width = '640' height = '360'></img>","","0","instructions","","","","","","","","","","","","","",""
"learning-instructions","32","259761","0.0-8.0-0.0-0.24","1719","1","2","""event"",""trial"",""time""
""fullscreenenter"",""1"",""2558""
","
","
","""event"",""trial"",""time""
""fullscreenenter"",""1"",""2558""
","
","","","","","","1646.9000000953674","<p> The kids are sad.<div style='float: left;'><img src='images/i11.png' width = '640' height = '360'></img>","","0","instructions","","","","","","","","","","","","","",""
"learning-instructions","33","269260","0.0-8.0-0.0-0.25","1719","1","2","""event"",""trial"",""time""
""fullscreenenter"",""1"",""2558""
","
","
","""event"",""trial"",""time""
""fullscreenenter"",""1"",""2558""
","
","","","","","","1375.2999999523163","<p> As you can see, selecting the wrong park for the soccer ball made the kids sad most of the time, but not all the time.","","0","instructions","","","","","","","","","","","","","",""
"learning-instructions","34","282540","0.0-8.0-0.0-0.26","1719","1","2","""event"",""trial"",""time""
""fullscreenenter"",""1"",""2558""
","
","
","""event"",""trial"",""time""
""fullscreenenter"",""1"",""2558""
","
","","","","","","4164","<p> The different pieces of equipment belong in different parks. You need to try to learn which is the best park for each piece of equipment.","","0","instructions","","","","","","","","","","","","","",""
"learning-instructions","35","315353","0.0-8.0-0.0-0.27","1719","1","2","""event"",""trial"",""time""
""fullscreenenter"",""1"",""2558""
","
","
","""event"",""trial"",""time""
""fullscreenenter"",""1"",""2558""
","
","","","","","","16429.799999952316","<p> Try to choose the best park for each piece of equipment, because you will <b> WIN </b> 1 point for each time you make the kids happy and <b>LOSE</b> 1 point for each time you make them sad. </p><p> Remember, if you make the best choice, you will win 1 point most of the time, but not all the time. </p>","","0","instructions","","","","","","","","","","","","","",""
"learning-instructions","36","321395","0.0-8.0-0.0-0.28","1719","1","2","""event"",""trial"",""time""
""fullscreenenter"",""1"",""2558""
","
","
","""event"",""trial"",""time""
""fullscreenenter"",""1"",""2558""
","
","","","","","","550","<p> This is just a practice round, but in the real game, your bonus payment will depend on your total number of points.","","0","instructions","","","","","","","","","","","","","",""
"learning-instructions","37","332286","0.0-8.0-0.0-0.29","1719","1","2","""event"",""trial"",""time""
""fullscreenenter"",""1"",""2558""
","
","
","""event"",""trial"",""time""
""fullscreenenter"",""1"",""2558""
","
","","","","","","572","<p> The position where each park appears will change throughout the game. </p><p> The position where the park appears <i> does not </i> influence how likely the kids are to be happy or sad. </p>","","0","instructions","","","","","","","","","","","","","",""
"learning-instructions","38","343997","0.0-8.0-0.0-0.30","1719","1","2","""event"",""trial"",""time""
""fullscreenenter"",""1"",""2558""
","
","
","""event"",""trial"",""time""
""fullscreenenter"",""1"",""2558""
","
","","","","","","943","<p> You will have 4 seconds to make each choice. Try to respond before time runs out! </p><p> You will lose 1 point each time you do not make a response. </p>","","0","instructions","","","","","","","","","","","","","",""
"learning-instructions","39","351273","0.0-8.0-0.0-0.31","1719","1","2","""event"",""trial"",""time""
""fullscreenenter"",""1"",""2558""
","
","
","""event"",""trial"",""time""
""fullscreenenter"",""1"",""2558""
","
","","","","","","487.59999990463257","<p> Remember, you should use the 1, 2, and 3 keys to select the park for each piece of equipment. </p><br><div class=""choice-instructions-grid""> <div class=""choice-option""><img src=""images/park1.png"" class=""choice-option-img"" stage=""instructions"" position=""0"" ><div class=""choice-option-text""> Press ""1."" </div></div><div class=""choice-option""><img src=""images/park2.png"" class=""choice-option-img"" stage=""instructions"" position=""1"" ><div class=""choice-option-text""> Press ""2."" </div></div><div class=""choice-option""><img src=""images/park3.png"" class=""choice-option-img"" stage=""instructions"" position=""2"" ><div class=""choice-option-text""> Press ""3."" </div></div></div>","","0","instructions","","","","","","","","","","","","","",""
"html-button-response","40","352376","0.0-8.0-1.0","1719","1","2","""event"",""trial"",""time""
""fullscreenenter"",""1"",""2558""
","
","
","""event"",""trial"",""time""
""fullscreenenter"",""1"",""2558""
","
","","","","","","988.2999999523163","<p> Ready to practice? </p>","0","","","","","","","","","","","","","","","",""
"html-keyboard-response","41","352984","0.0-8.0-2.0-0.0","1719","1","2","""event"",""trial"",""time""
""fullscreenenter"",""1"",""2558""
","
","
","""event"",""trial"",""time""
""fullscreenenter"",""1"",""2558""
","
","","","","","","null","<div style=""font-size:60px;"">+</div>","null","","fixation","","","","","","","","","","","","","",""
"learning-trial","42","356997","0.0-8.0-2.0-1.0","1719","1","2","""event"",""trial"",""time""
""fullscreenenter"",""1"",""2558""
","
","
","""event"",""trial"",""time""
""fullscreenenter"",""1"",""2558""
","
","","","","","","1475.5","images/racket1.png","","","practice","images/park1.png","images/park2.png","images/park3.png","[0,1,2]","1","1","3","images/park3.png","-1","practice","","","",""
"html-keyboard-response","43","357498","0.0-8.0-2.0-0.1","1719","1","2","""event"",""trial"",""time""
""fullscreenenter"",""1"",""2558""
","
","
","""event"",""trial"",""time""
""fullscreenenter"",""1"",""2558""
","
","","","","","","null","<div style=""font-size:60px;"">+</div>","null","","fixation","","","","","","","","","","","","","",""
"learning-trial","44","361502","0.0-8.0-2.0-1.1","1719","1","2","""event"",""trial"",""time""
""fullscreenenter"",""1"",""2558""
","
","
","""event"",""trial"",""time""
""fullscreenenter"",""1"",""2558""
","
","","","","","","1969.9000000953674","images/racket2.png","","","practice","images/park2.png","images/park1.png","images/park3.png","[1,0,2]","0","1","1","images/park2.png","-1","practice","","","",""
"html-keyboard-response","45","362013","0.0-8.0-2.0-0.2","1719","1","2","""event"",""trial"",""time""
""fullscreenenter"",""1"",""2558""
","
","
","""event"",""trial"",""time""
""fullscreenenter"",""1"",""2558""
","
","","","","","","null","<div style=""font-size:60px;"">+</div>","null","","fixation","","","","","","","","","","","","","",""
"learning-trial","46","366021","0.0-8.0-2.0-1.2","1719","1","2","""event"",""trial"",""time""
""fullscreenenter"",""1"",""2558""
","
","
","""event"",""trial"",""time""
""fullscreenenter"",""1"",""2558""
","
","","","","","","1633.2999999523163","images/ball1.png","","","practice","images/park2.png","images/park3.png","images/park1.png","[1,2,0]","1","0","1","images/park2.png","1","practice","","","",""
"html-keyboard-response","47","366538","0.0-8.0-2.0-0.3","1719","1","2","""event"",""trial"",""time""
""fullscreenenter"",""1"",""2558""
","
","
","""event"",""trial"",""time""
""fullscreenenter"",""1"",""2558""
","
","","","","","","null","<div style=""font-size:60px;"">+</div>","null","","fixation","","","","","","","","","","","","","",""
"learning-trial","48","370551","0.0-8.0-2.0-1.3","1719","1","2","""event"",""trial"",""time""
""fullscreenenter"",""1"",""2558""
","
","
","""event"",""trial"",""time""
""fullscreenenter"",""1"",""2558""
","
","","","","","","1589.6999998092651","images/ball2.png","","","practice","images/park3.png","images/park2.png","images/park1.png","[2,1,0]","2","0","3","images/park1.png","1","practice","","","",""
"html-keyboard-response","49","371056","0.0-8.0-2.0-0.4","1719","1","2","""event"",""trial"",""time""
""fullscreenenter"",""1"",""2558""
","
","
","""event"",""trial"",""time""
""fullscreenenter"",""1"",""2558""
","
","","","","","","null","<div style=""font-size:60px;"">+</div>","null","","fixation","","","","","","","","","","","","","",""
"learning-trial","50","375066","0.0-8.0-2.0-1.4","1719","1","2","""event"",""trial"",""time""
""fullscreenenter"",""1"",""2558""
","
","
","""event"",""trial"",""time""
""fullscreenenter"",""1"",""2558""
","
","","","","","","1143.9000000953674","images/ball4.png","","","practice","images/park3.png","images/park1.png","images/park2.png","[2,0,1]","2","0","2","images/park1.png","-1","practice","","","",""
"html-keyboard-response","51","375583","0.0-8.0-2.0-0.5","1719","1","2","""event"",""trial"",""time""
""fullscreenenter"",""1"",""2558""
","
","
","""event"",""trial"",""time""
""fullscreenenter"",""1"",""2558""
","
","","","","","","null","<div style=""font-size:60px;"">+</div>","null","","fixation","","","","","","","","","","","","","",""
"learning-trial","52","379591","0.0-8.0-2.0-1.5","1719","1","2","""event"",""trial"",""time""
""fullscreenenter"",""1"",""2558""
","
","
","""event"",""trial"",""time""
""fullscreenenter"",""1"",""2558""
","
","","","","","","963.0999999046326","images/racket2.png","","","practice","images/park3.png","images/park2.png","images/park1.png","[2,1,0]","0","2","1","images/park3.png","-1","practice","","","",""
"html-keyboard-response","53","380117","0.0-8.0-2.0-0.6","1719","1","2","""event"",""trial"",""time""
""fullscreenenter"",""1"",""2558""
","
","
","""event"",""trial"",""time""
""fullscreenenter"",""1"",""2558""
","
","","","","","","null","<div style=""font-size:60px;"">+</div>","null","","fixation","","","","","","","","","","","","","",""
"learning-trial","54","384122","0.0-8.0-2.0-1.6","1719","1","2","""event"",""trial"",""time""
""fullscreenenter"",""1"",""2558""
","
","
","""event"",""trial"",""time""
""fullscreenenter"",""1"",""2558""
","
","","","","","","1081.0999999046326","images/racket1.png","","","practice","images/park3.png","images/park1.png","images/park2.png","[2,0,1]","1","2","1","images/park3.png","-1","practice","","","",""
"html-keyboard-response","55","384624","0.0-8.0-2.0-0.7","1719","1","2","""event"",""trial"",""time""
""fullscreenenter"",""1"",""2558""
","
","
","""event"",""trial"",""time""
""fullscreenenter"",""1"",""2558""
","
","","","","","","null","<div style=""font-size:60px;"">+</div>","null","","fixation","","","","","","","","","","","","","",""
"learning-trial","56","388631","0.0-8.0-2.0-1.7","1719","1","2","""event"",""trial"",""time""
""fullscreenenter"",""1"",""2558""
","
","
","""event"",""trial"",""time""
""fullscreenenter"",""1"",""2558""
","
","","","","","","1234","images/ball2.png","","","practice","images/park2.png","images/park3.png","images/park1.png","[1,2,0]","2","1","3","images/park1.png","-1","practice","","","",""
"html-keyboard-response","57","389134","0.0-8.0-2.0-0.8","1719","1","2","""event"",""trial"",""time""
""fullscreenenter"",""1"",""2558""
","
","
","""event"",""trial"",""time""
""fullscreenenter"",""1"",""2558""
","
","","","","","","null","<div style=""font-size:60px;"">+</div>","null","","fixation","","","","","","","","","","","","","",""
"learning-trial","58","393140","0.0-8.0-2.0-1.8","1719","1","2","""event"",""trial"",""time""
""fullscreenenter"",""1"",""2558""
","
","
","""event"",""trial"",""time""
""fullscreenenter"",""1"",""2558""
","
","","","","","","802.8999998569489","images/ball3.png","","","practice","images/park1.png","images/park2.png","images/park3.png","[0,1,2]","0","0","2","images/park2.png","-1","practice","","","",""
"html-keyboard-response","59","393642","0.0-8.0-2.0-0.9","1719","1","2","""event"",""trial"",""time""
""fullscreenenter"",""1"",""2558""
","
","
","""event"",""trial"",""time""
""fullscreenenter"",""1"",""2558""
","
","","","","","","null","<div style=""font-size:60px;"">+</div>","null","","fixation","","","","","","","","","","","","","",""
"learning-trial","60","397648","0.0-8.0-2.0-1.9","1719","1","2","""event"",""trial"",""time""
""fullscreenenter"",""1"",""2558""
","
","
","""event"",""trial"",""time""
""fullscreenenter"",""1"",""2558""
","
","","","","","","978.2000000476837","images/ball1.png","","","practice","images/park3.png","images/park1.png","images/park2.png","[2,0,1]","1","2","3","images/park2.png","1","practice","","","",""
"html-keyboard-response","61","398151","0.0-8.0-2.0-0.10","1719","1","2","""event"",""trial"",""time""
""fullscreenenter"",""1"",""2558""
","
","
","""event"",""trial"",""time""
""fullscreenenter"",""1"",""2558""
","
","","","","","","null","<div style=""font-size:60px;"">+</div>","null","","fixation","","","","","","","","","","","","","",""
"learning-trial","62","402158","0.0-8.0-2.0-1.10","1719","1","2","""event"",""trial"",""time""
""fullscreenenter"",""1"",""2558""
","
","
","""event"",""trial"",""time""
""fullscreenenter"",""1"",""2558""
","
","","","","","","874.2999999523163","images/ball3.png","","","practice","images/park1.png","images/park3.png","images/park2.png","[0,2,1]","0","0","3","images/park2.png","-1","practice","","","",""
"html-keyboard-response","63","402661","0.0-8.0-2.0-0.11","1719","1","2","""event"",""trial"",""time""
""fullscreenenter"",""1"",""2558""
","
","
","""event"",""trial"",""time""
""fullscreenenter"",""1"",""2558""
","
","","","","","","null","<div style=""font-size:60px;"">+</div>","null","","fixation","","","","","","","","","","","","","",""
"learning-trial","64","406666","0.0-8.0-2.0-1.11","1719","1","2","""event"",""trial"",""time""
""fullscreenenter"",""1"",""2558""
","
","
","""event"",""trial"",""time""
""fullscreenenter"",""1"",""2558""
","
","","","","","","885.5999999046326","images/ball4.png","","","practice","images/park3.png","images/park1.png","images/park2.png","[2,0,1]","2","0","2","images/park1.png","-1","practice","","","",""
"html-button-response","65","408536","0.0-8.0-3.0","1719","1","2","""event"",""trial"",""time""
""fullscreenenter"",""1"",""2558""
","
","
","""event"",""trial"",""time""
""fullscreenenter"",""1"",""2558""
","
","","","","","","1865.2000000476837","<p> You earned -6 points in the practice round! </p>","0","","break","","","","","","","","","","","","","",""
"learning-instructions","66","417455","0.0-8.0-4.0-0.0","1719","1","2","""event"",""trial"",""time""
""fullscreenenter"",""1"",""2558""
","
","
","""event"",""trial"",""time""
""fullscreenenter"",""1"",""2558""
","
","","","","","","1033.7000000476837","<p> It's almost time to start the real game. </p><p> Before you start, we're going to ask you a few questions about how the game works. </p>","","0","instructions","","","","","","","","","","","","","",""
"preload","67","419096","0.0-8.0-5.0","1719","1","2","""event"",""trial"",""time""
""fullscreenenter"",""1"",""2558""
","
","
","""event"",""trial"",""time""
""fullscreenenter"",""1"",""2558""
","
","true","false","[]","[]","[]","","","","","","","","","","","","","","","","","","",""
"comp-q","68","425401","0.0-8.0-6.0-0.0","1719","1","2","""event"",""trial"",""time""
""fullscreenenter"",""1"",""2558""
","
","
","""event"",""trial"",""time""
""fullscreenenter"",""1"",""2558""
","
","","","","","","849.5999999046326","<p> <b> True or False? </b> </p><p> If you choose the best option, you will always earn 1 point. </p>","","1","comp_question","","","","","","","","","","","true","","",""
"comp-q","69","431947","0.0-8.0-6.0-1.0","1719","1","2","""event"",""trial"",""time""
""fullscreenenter"",""1"",""2558""
","
","
","""event"",""trial"",""time""
""fullscreenenter"",""1"",""2558""
","
","","","","","","886.1000001430511","<p><b> That's right! </b> Sometimes you will lose 1 point, even if you choose the best option. </p>","","0","comp_answer","","","","","","","","","","","","","",""
"comp-q","70","437207","0.0-8.0-6.0-0.1","1719","1","2","""event"",""trial"",""time""
""fullscreenenter"",""1"",""2558""
","
","
","""event"",""trial"",""time""
""fullscreenenter"",""1"",""2558""
","
","","","","","","625.9000000953674","<p> <b> True or False? </b> </p><p> You will have as much time as you want to make each choice. </p>","","1","comp_question","","","","","","","","","","","true","","",""
"comp-q","71","442791","0.0-8.0-6.0-1.1","1719","1","2","""event"",""trial"",""time""
""fullscreenenter"",""1"",""2558""
","
","
","""event"",""trial"",""time""
""fullscreenenter"",""1"",""2558""
","
","","","","","","750.7999999523163","<p> <b> That's right! </b> You will only have 4 seconds to make each choice. </p>","","0","comp_answer","","","","","","","","","","","","","",""
"comp-q","72","449685","0.0-8.0-6.0-0.2","1719","1","2","""event"",""trial"",""time""
""fullscreenenter"",""1"",""2558""
","
","
","""event"",""trial"",""time""
""fullscreenenter"",""1"",""2558""
","
","","","","","","743.7000000476837","<p> <b> True or False? </b> </p><p> You should use the '1', '2', and '3' keys to make your choices. </p>","","0","comp_question","","","","","","","","","","","true","","",""
"comp-q","73","455287","0.0-8.0-6.0-1.2","1719","1","2","""event"",""trial"",""time""
""fullscreenenter"",""1"",""2558""
","
","
","""event"",""trial"",""time""
""fullscreenenter"",""1"",""2558""
","
","","","","","","756.2000000476837","<p> <b> That's right! </b> You should use the '1', '2', and '3' keys to make each choice. </p>","","0","comp_answer","","","","","","","","","","","","","",""
"learning-instructions","74","464494","0.0-8.0-7.0-0.0","1719","1","2","""event"",""trial"",""time""
""fullscreenenter"",""1"",""2558""
","
","
","""event"",""trial"",""time""
""fullscreenenter"",""1"",""2558""
","
","","","","","","713.5","<p> It's now time to start the real game. </p>Do your best, because the points you earn in the next rounds will influence your bonus payment. </p>","","0","instructions","","","","","","","","","","","","","",""
"preload","75","466455","0.0-9.0-0.0","1719","1","2","""event"",""trial"",""time""
""fullscreenenter"",""1"",""2558""
","
","
","""event"",""trial"",""time""
""fullscreenenter"",""1"",""2558""
","
","true","false","[]","[]","[]","","","","","","","","","","","","","","","","","","",""
"learning-instructions","76","473849","0.0-9.0-1.0-0.0","1719","1","2","""event"",""trial"",""time""
""fullscreenenter"",""1"",""2558""
","
","
","""event"",""trial"",""time""
""fullscreenenter"",""1"",""2558""
","
","","","","","","898.5999999046326","<p> Your goal in this round is to buy different types of fruits. </p><p> You will try to purchase many fruits from different stores. </p></div>","","0","instructions","","","","","","","","","","","","","",""
"learning-instructions","77","483179","0.0-9.0-1.0-0.1","1719","1","2","""event"",""trial"",""time""
""fullscreenenter"",""1"",""2558""
","
","
","""event"",""trial"",""time""
""fullscreenenter"",""1"",""2558""
","
","","","","","","828.5","<p> On each turn, you will see a picture of a fruit and three different stores.  </p><p> You need to select the store where you can buy that fruit.  </p>","","0","instructions","","","","","","","","","","","","","",""
"learning-instructions","78","495064","0.0-9.0-1.0-0.2","1719","1","2","""event"",""trial"",""time""
""fullscreenenter"",""1"",""2558""
","
","
","""event"",""trial"",""time""
""fullscreenenter"",""1"",""2558""
","
","","","","","","4503.200000047684","<p> You can select the store on the left by pressing 1, the store in the middle by pressing 2, and the store on the right by pressing 3. </p><br><div class=""choice-instructions-grid""> <div class=""choice-option""><img src=""images/fruit_choice1.png"" class=""choice-option-img"" stage=""instructions"" position=""0"" ><div class=""choice-option-text""> Press ""1."" </div></div><div class=""choice-option""><img src=""images/fruit_choice2.png"" class=""choice-option-img"" stage=""instructions"" position=""1"" ><div class=""choice-option-text""> Press ""2."" </div></div><div class=""choice-option""><img src=""images/fruit_choice3.png"" class=""choice-option-img"" stage=""instructions"" position=""2"" ><div class=""choice-option-text""> Press ""3."" </div></div></div>","","0","instructions","","","","","","","","","","","","","",""
"learning-instructions","79","501348","0.0-9.0-1.0-0.3","1719","1","2","""event"",""trial"",""time""
""fullscreenenter"",""1"",""2558""
","
","
","""event"",""trial"",""time""
""fullscreenenter"",""1"",""2558""
","
","","","","","","1326.8000001907349","<p> If you find the fruit in the store you chose, you will get to buy and eat it! </p><div style='float: center;'><img src='images/check.png' width = '200' height = '200'></img>","","0","instructions","","","","","","","","","","","","","",""
"learning-instructions","80","508619","0.0-9.0-1.0-0.4","1719","1","2","""event"",""trial"",""time""
""fullscreenenter"",""1"",""2558""
","
","
","""event"",""trial"",""time""
""fullscreenenter"",""1"",""2558""
","
","","","","","","2788.7000000476837","<p> But, if the fruit is not in that store, you will be hungry. </p><div style='float: center;'><img src='images/x.png' width = '200' height = '200'></img>","","0","instructions","","","","","","","","","","","","","",""
"learning-instructions","81","531037","0.0-9.0-1.0-0.5","1719","1","2","""event"",""trial"",""time""
""fullscreenenter"",""1"",""2558""
","
","
","""event"",""trial"",""time""
""fullscreenenter"",""1"",""2558""
","
","","","","","","12645.299999952316","<p> Importantly, each fruit is more likely to be found in one of the stores. </p><p> If you choose the correct store, you will be more likely to be able to buy the fruit! </p>","","0","instructions","","","","","","","","","","","","","",""
"learning-instructions","82","547532","0.0-9.0-1.0-0.6","1719","1","2","""event"",""trial"",""time""
""fullscreenenter"",""1"",""2558""
","
","
","""event"",""trial"",""time""
""fullscreenenter"",""1"",""2558""
","
","","","","","","6041","<p> However, even if you choose the best store for the fruit, the store might not have it sometimes. </p><p> Similarly, even if you choose the <i>wrong</i> store, it might still have the fruit.","","0","instructions","","","","","","","","","","","","","",""
"learning-instructions","83","561216","0.0-9.0-1.0-0.7","1719","1","2","""event"",""trial"",""time""
""fullscreenenter"",""1"",""2558""
","
","
","""event"",""trial"",""time""
""fullscreenenter"",""1"",""2558""
","
","","","","","","1495.3000001907349","<p> Try to choose the best store for each fruit, because you will <b> WIN </b> 1 point for each fruit you eat and <b>LOSE</b> 1 point each time you are hungry. </p><p> Your bonus payment will depend on your total number of points.","","0","instructions","","","","","","","","","","","","","",""
"learning-instructions","84","571059","0.0-9.0-1.0-0.8","1719","1","2","""event"",""trial"",""time""
""fullscreenenter"",""1"",""2558""
","
","
","""event"",""trial"",""time""
""fullscreenenter"",""1"",""2558""
","
","","","","","","1627.5","<p> The position of each store will change throughout the round. </p><p> The store's position <i> does not </i> influence how likely you are to find the fruit. </p>","","0","instructions","","","","","","","","","","","","","",""
"learning-instructions","85","581607","0.0-9.0-1.0-0.9","1719","1","2","""event"",""trial"",""time""
""fullscreenenter"",""1"",""2558""
","
","
","""event"",""trial"",""time""
""fullscreenenter"",""1"",""2558""
","
","","","","","","1246","<p> You will have 4 seconds to make each choice. Try to respond before time runs out! </p><p> You will lose 1 point each time you do not make a response. </p>","","0","instructions","","","","","","","","","","","","","",""
"html-keyboard-response","86","582218","0.0-9.0-2.0-0.0","1719","1","2","""event"",""trial"",""time""
""fullscreenenter"",""1"",""2558""
","
","
","""event"",""trial"",""time""
""fullscreenenter"",""1"",""2558""
","
","","","","","","null","<div style=""font-size:60px;"">+</div>","null","","fixation","","","","","","","","","","","","","",""
"learning-trial","87","586229","0.0-9.0-2.0-1.0","1719","1","2","""event"",""trial"",""time""
""fullscreenenter"",""1"",""2558""
","
","
","""event"",""trial"",""time""
""fullscreenenter"",""1"",""2558""
","
","","","","","","1422","images/straw3.png","","","learning","images/fruit_choice3.png","images/fruit_choice2.png","images/fruit_choice1.png","[2,1,0]","1","1","3","images/fruit_choice1.png","-1","fruit","","straw","1","0"
"html-keyboard-response","88","586735","0.0-9.0-2.0-0.1","1719","1","2","""event"",""trial"",""time""
""fullscreenenter"",""1"",""2558""
","
","
","""event"",""trial"",""time""
""fullscreenenter"",""1"",""2558""
","
","","","","","","null","<div style=""font-size:60px;"">+</div>","null","","fixation","","","","","","","","","","","","","",""
"learning-trial","89","590746","0.0-9.0-2.0-1.1","1719","1","2","""event"",""trial"",""time""
""fullscreenenter"",""1"",""2558""
","
","
","""event"",""trial"",""time""
""fullscreenenter"",""1"",""2558""
","
","","","","","","614.2999999523163","images/banana3.png","","","learning","images/fruit_choice3.png","images/fruit_choice2.png","images/fruit_choice1.png","[2,1,0]","2","0","2","images/fruit_choice2.png","-1","fruit","","banana","1","0"
"html-keyboard-response","90","591249","0.0-9.0-2.0-0.2","1719","1","2","""event"",""trial"",""time""
""fullscreenenter"",""1"",""2558""
","
","
","""event"",""trial"",""time""
""fullscreenenter"",""1"",""2558""
","
","","","","","","null","<div style=""font-size:60px;"">+</div>","null","","fixation","","","","","","","","","","","","","",""
"learning-trial","91","595257","0.0-9.0-2.0-1.2","1719","1","2","""event"",""trial"",""time""
""fullscreenenter"",""1"",""2558""
","
","
","""event"",""trial"",""time""
""fullscreenenter"",""1"",""2558""
","
","","","","","","349.89999985694885","images/straw3.png","","","learning","images/fruit_choice3.png","images/fruit_choice2.png","images/fruit_choice1.png","[2,1,0]","1","1","1","images/fruit_choice3.png","-1","fruit","","straw","1","0"
"html-keyboard-response","92","595769","0.0-9.0-2.0-0.3","1719","1","2","""event"",""trial"",""time""
""fullscreenenter"",""1"",""2558""
","
","
","""event"",""trial"",""time""
""fullscreenenter"",""1"",""2558""
","
","","","","","","null","<div style=""font-size:60px;"">+</div>","null","","fixation","","","","","","","","","","","","","",""
"learning-trial","93","599782","0.0-9.0-2.0-1.3","1719","1","2","""event"",""trial"",""time""
""fullscreenenter"",""1"",""2558""
","
","
","""event"",""trial"",""time""
""fullscreenenter"",""1"",""2558""
","
","","","","","","559.2000000476837","images/straw2.png","","","learning","images/fruit_choice2.png","images/fruit_choice3.png","images/fruit_choice1.png","[1,2,0]","1","0","1","images/fruit_choice2.png","1","fruit","","straw","1","0"
"html-keyboard-response","94","600289","0.0-9.0-2.0-0.4","1719","1","2","""event"",""trial"",""time""
""fullscreenenter"",""1"",""2558""
","
","
","""event"",""trial"",""time""
""fullscreenenter"",""1"",""2558""
","
","","","","","","null","<div style=""font-size:60px;"">+</div>","null","","fixation","","","","","","","","","","","","","",""
"learning-trial","95","604300","0.0-9.0-2.0-1.4","1719","1","2","""event"",""trial"",""time""
""fullscreenenter"",""1"",""2558""
","
","
","""event"",""trial"",""time""
""fullscreenenter"",""1"",""2558""
","
","","","","","","748.5","images/straw2.png","","","learning","images/fruit_choice3.png","images/fruit_choice2.png","images/fruit_choice1.png","[2,1,0]","1","1","2","images/fruit_choice2.png","1","fruit","","straw","1","0"
"html-keyboard-response","96","604806","0.0-9.0-2.0-0.5","1719","1","2","""event"",""trial"",""time""
""fullscreenenter"",""1"",""2558""
","
","
","""event"",""trial"",""time""
""fullscreenenter"",""1"",""2558""
","
","","","","","","null","<div style=""font-size:60px;"">+</div>","null","","fixation","","","","","","","","","","","","","",""
"learning-trial","97","608824","0.0-9.0-2.0-1.5","1719","1","2","""event"",""trial"",""time""
""fullscreenenter"",""1"",""2558""
","
","
","""event"",""trial"",""time""
""fullscreenenter"",""1"",""2558""
","
","","","","","","1322.6000001430511","images/banana2.png","","","learning","images/fruit_choice1.png","images/fruit_choice3.png","images/fruit_choice2.png","[0,2,1]","2","1","1","images/fruit_choice1.png","-1","fruit","","banana","1","0"
"html-keyboard-response","98","609333","0.0-9.0-2.0-0.6","1719","1","2","""event"",""trial"",""time""
""fullscreenenter"",""1"",""2558""
","
","
","""event"",""trial"",""time""
""fullscreenenter"",""1"",""2558""
","
","","","","","","null","<div style=""font-size:60px;"">+</div>","null","","fixation","","","","","","","","","","","","","",""
"learning-trial","99","613338","0.0-9.0-2.0-1.6","1719","1","2","""event"",""trial"",""time""
""fullscreenenter"",""1"",""2558""
","
","
","""event"",""trial"",""time""
""fullscreenenter"",""1"",""2558""
","
","","","","","","395.7000000476837","images/straw2.png","","","learning","images/fruit_choice2.png","images/fruit_choice1.png","images/fruit_choice3.png","[1,0,2]","1","0","2","images/fruit_choice1.png","-1","fruit","","straw","1","0"
"html-keyboard-response","100","613841","0.0-9.0-2.0-0.7","1719","1","2","""event"",""trial"",""time""
""fullscreenenter"",""1"",""2558""
","
","
","""event"",""trial"",""time""
""fullscreenenter"",""1"",""2558""
","
","","","","","","null","<div style=""font-size:60px;"">+</div>","null","","fixation","","","","","","","","","","","","","",""
"learning-trial","101","617847","0.0-9.0-2.0-1.7","1719","1","2","""event"",""trial"",""time""
""fullscreenenter"",""1"",""2558""
","
","
","""event"",""trial"",""time""
""fullscreenenter"",""1"",""2558""
","
","","","","","","607.0999999046326","images/straw2.png","","","learning","images/fruit_choice1.png","images/fruit_choice2.png","images/fruit_choice3.png","[0,1,2]","1","1","2","images/fruit_choice2.png","1","fruit","","straw","1","0"
"html-keyboard-response","102","618348","0.0-9.0-2.0-0.8","1719","1","2","""event"",""trial"",""time""
""fullscreenenter"",""1"",""2558""
","
","
","""event"",""trial"",""time""
""fullscreenenter"",""1"",""2558""
","
","","","","","","null","<div style=""font-size:60px;"">+</div>","null","","fixation","","","","","","","","","","","","","",""
"learning-trial","103","622354","0.0-9.0-2.0-1.8","1719","1","2","""event"",""trial"",""time""
""fullscreenenter"",""1"",""2558""
","
","
","""event"",""trial"",""time""
""fullscreenenter"",""1"",""2558""
","
","","","","","","910.4000000953674","images/banana4.png","","","learning","images/fruit_choice2.png","images/fruit_choice3.png","images/fruit_choice1.png","[1,2,0]","2","1","3","images/fruit_choice1.png","-1","fruit","","banana","1","0"
"html-keyboard-response","104","622855","0.0-9.0-2.0-0.9","1719","1","2","""event"",""trial"",""time""
""fullscreenenter"",""1"",""2558""
","
","
","""event"",""trial"",""time""
""fullscreenenter"",""1"",""2558""
","
","","","","","","null","<div style=""font-size:60px;"">+</div>","null","","fixation","","","","","","","","","","","","","",""
"learning-trial","105","626861","0.0-9.0-2.0-1.9","1719","1","2","""event"",""trial"",""time""
""fullscreenenter"",""1"",""2558""
","
","
","""event"",""trial"",""time""
""fullscreenenter"",""1"",""2558""
","
","","","","","","831.5","images/banana4.png","","","learning","images/fruit_choice2.png","images/fruit_choice1.png","images/fruit_choice3.png","[1,0,2]","2","2","1","images/fruit_choice2.png","1","fruit","","banana","1","0"
"html-keyboard-response","106","627363","0.0-9.0-2.0-0.10","1719","1","2","""event"",""trial"",""time""
""fullscreenenter"",""1"",""2558""
","
","
","""event"",""trial"",""time""
""fullscreenenter"",""1"",""2558""
","
","","","","","","null","<div style=""font-size:60px;"">+</div>","null","","fixation","","","","","","","","","","","","","",""
"learning-trial","107","631369","0.0-9.0-2.0-1.10","1719","1","2","""event"",""trial"",""time""
""fullscreenenter"",""1"",""2558""
","
","
","""event"",""trial"",""time""
""fullscreenenter"",""1"",""2558""
","
","","","","","","735.5","images/apple1.png","","","learning","images/fruit_choice3.png","images/fruit_choice2.png","images/fruit_choice1.png","[2,1,0]","0","2","2","images/fruit_choice2.png","-1","fruit","","apple","1","0"
"html-keyboard-response","108","631871","0.0-9.0-2.0-0.11","1719","1","2","""event"",""trial"",""time""
""fullscreenenter"",""1"",""2558""
","
","
","""event"",""trial"",""time""
""fullscreenenter"",""1"",""2558""
","
","","","","","","null","<div style=""font-size:60px;"">+</div>","null","","fixation","","","","","","","","","","","","","",""
"learning-trial","109","635877","0.0-9.0-2.0-1.11","1719","1","2","""event"",""trial"",""time""
""fullscreenenter"",""1"",""2558""
","
","
","""event"",""trial"",""time""
""fullscreenenter"",""1"",""2558""
","
","","","","","","628.5999999046326","images/banana4.png","","","learning","images/fruit_choice1.png","images/fruit_choice2.png","images/fruit_choice3.png","[0,1,2]","2","2","2","images/fruit_choice2.png","-1","fruit","","banana","1","0"
"html-keyboard-response","110","636385","0.0-9.0-2.0-0.12","1719","1","2","""event"",""trial"",""time""
""fullscreenenter"",""1"",""2558""
","
","
","""event"",""trial"",""time""
""fullscreenenter"",""1"",""2558""
","
","","","","","","null","<div style=""font-size:60px;"">+</div>","null","","fixation","","","","","","","","","","","","","",""
"learning-trial","111","640390","0.0-9.0-2.0-1.12","1719","1","2","""event"",""trial"",""time""
""fullscreenenter"",""1"",""2558""
","
","
","""event"",""trial"",""time""
""fullscreenenter"",""1"",""2558""
","
","","","","","","1285.0999999046326","images/banana3.png","","","learning","images/fruit_choice3.png","images/fruit_choice1.png","images/fruit_choice2.png","[2,0,1]","2","0","1","images/fruit_choice3.png","1","fruit","","banana","1","0"
"html-keyboard-response","112","640893","0.0-9.0-2.0-0.13","1719","1","2","""event"",""trial"",""time""
""fullscreenenter"",""1"",""2558""
","
","
","""event"",""trial"",""time""
""fullscreenenter"",""1"",""2558""
","
","","","","","","null","<div style=""font-size:60px;"">+</div>","null","","fixation","","","","","","","","","","","","","",""
"learning-trial","113","644899","0.0-9.0-2.0-1.13","1719","1","2","""event"",""trial"",""time""
""fullscreenenter"",""1"",""2558""
","
","
","""event"",""trial"",""time""
""fullscreenenter"",""1"",""2558""
","
","","","","","","646.8999998569489","images/straw1.png","","","learning","images/fruit_choice1.png","images/fruit_choice3.png","images/fruit_choice2.png","[0,2,1]","1","2","3","images/fruit_choice2.png","1","fruit","","straw","1","0"
"html-keyboard-response","114","645411","0.0-9.0-2.0-0.14","1719","1","2","""event"",""trial"",""time""
""fullscreenenter"",""1"",""2558""
","
","
","""event"",""trial"",""time""
""fullscreenenter"",""1"",""2558""
","
","","","","","","null","<div style=""font-size:60px;"">+</div>","null","","fixation","","","","","","","","","","","","","",""
"learning-trial","115","649417","0.0-9.0-2.0-1.14","1719","1","2","""event"",""trial"",""time""
""fullscreenenter"",""1"",""2558""
","
","
","""event"",""trial"",""time""
""fullscreenenter"",""1"",""2558""
","
","","","","","","518.3999998569489","images/banana4.png","","","learning","images/fruit_choice3.png","images/fruit_choice1.png","images/fruit_choice2.png","[2,0,1]","2","0","3","images/fruit_choice2.png","1","fruit","","banana","1","0"
"html-keyboard-response","116","649920","0.0-9.0-2.0-0.15","1719","1","2","""event"",""trial"",""time""
""fullscreenenter"",""1"",""2558""
","
","
","""event"",""trial"",""time""
""fullscreenenter"",""1"",""2558""
","
","","","","","","null","<div style=""font-size:60px;"">+</div>","null","","fixation","","","","","","","","","","","","","",""
"learning-trial","117","653926","0.0-9.0-2.0-1.15","1719","1","2","""event"",""trial"",""time""
""fullscreenenter"",""1"",""2558""
","
","
","""event"",""trial"",""time""
""fullscreenenter"",""1"",""2558""
","
","","","","","","1301","images/apple1.png","","","learning","images/fruit_choice2.png","images/fruit_choice3.png","images/fruit_choice1.png","[1,2,0]","0","2","3","images/fruit_choice1.png","1","fruit","","apple","1","0"
"html-keyboard-response","118","654428","0.0-9.0-2.0-0.16","1719","1","2","""event"",""trial"",""time""
""fullscreenenter"",""1"",""2558""
","
","
","""event"",""trial"",""time""
""fullscreenenter"",""1"",""2558""
","
","","","","","","null","<div style=""font-size:60px;"">+</div>","null","","fixation","","","","","","","","","","","","","",""
"learning-trial","119","658434","0.0-9.0-2.0-1.16","1719","1","2","""event"",""trial"",""time""
""fullscreenenter"",""1"",""2558""
","
","
","""event"",""trial"",""time""
""fullscreenenter"",""1"",""2558""
","
","","","","","","682.2000000476837","images/straw3.png","","","learning","images/fruit_choice3.png","images/fruit_choice1.png","images/fruit_choice2.png","[2,0,1]","1","2","3","images/fruit_choice2.png","-1","fruit","","straw","1","0"
"html-keyboard-response","120","658937","0.0-9.0-2.0-0.17","1719","1","2","""event"",""trial"",""time""
""fullscreenenter"",""1"",""2558""
","
","
","""event"",""trial"",""time""
""fullscreenenter"",""1"",""2558""
","
","","","","","","null","<div style=""font-size:60px;"">+</div>","null","","fixation","","","","","","","","","","","","","",""
"learning-trial","121","662942","0.0-9.0-2.0-1.17","1719","1","2","""event"",""trial"",""time""
""fullscreenenter"",""1"",""2558""
","
","
","""event"",""trial"",""time""
""fullscreenenter"",""1"",""2558""
","
","","","","","","573.0999999046326","images/banana2.png","","","learning","images/fruit_choice1.png","images/fruit_choice3.png","images/fruit_choice2.png","[0,2,1]","2","1","3","images/fruit_choice2.png","-1","fruit","","banana","1","0"
"html-keyboard-response","122","663444","0.0-9.0-2.0-0.18","1719","1","2","""event"",""trial"",""time""
""fullscreenenter"",""1"",""2558""
","
","
","""event"",""trial"",""time""
""fullscreenenter"",""1"",""2558""
","
","","","","","","null","<div style=""font-size:60px;"">+</div>","null","","fixation","","","","","","","","","","","","","",""
"learning-trial","123","667450","0.0-9.0-2.0-1.18","1719","1","2","""event"",""trial"",""time""
""fullscreenenter"",""1"",""2558""
","
","
","""event"",""trial"",""time""
""fullscreenenter"",""1"",""2558""
","
","","","","","","314","images/apple2.png","","","learning","images/fruit_choice3.png","images/fruit_choice1.png","images/fruit_choice2.png","[2,0,1]","0","1","1","images/fruit_choice3.png","-1","fruit","","apple","1","0"
"html-keyboard-response","124","667953","0.0-9.0-2.0-0.19","1719","1","2","""event"",""trial"",""time""
""fullscreenenter"",""1"",""2558""
","
","
","""event"",""trial"",""time""
""fullscreenenter"",""1"",""2558""
","
","","","","","","null","<div style=""font-size:60px;"">+</div>","null","","fixation","","","","","","","","","","","","","",""
"learning-trial","125","671957","0.0-9.0-2.0-1.19","1719","1","2","""event"",""trial"",""time""
""fullscreenenter"",""1"",""2558""
","
","
","""event"",""trial"",""time""
""fullscreenenter"",""1"",""2558""
","
","","","","","","667","images/straw2.png","","","learning","images/fruit_choice1.png","images/fruit_choice2.png","images/fruit_choice3.png","[0,1,2]","1","1","2","images/fruit_choice2.png","1","fruit","","straw","1","0"
"html-keyboard-response","126","672459","0.0-9.0-2.0-0.20","1719","1","2","""event"",""trial"",""time""
""fullscreenenter"",""1"",""2558""
","
","
","""event"",""trial"",""time""
""fullscreenenter"",""1"",""2558""
","
","","","","","","null","<div style=""font-size:60px;"">+</div>","null","","fixation","","","","","","","","","","","","","",""
"learning-trial","127","676465","0.0-9.0-2.0-1.20","1719","1","2","""event"",""trial"",""time""
""fullscreenenter"",""1"",""2558""
","
","
","""event"",""trial"",""time""
""fullscreenenter"",""1"",""2558""
","
","","","","","","1092","images/apple3.png","","","learning","images/fruit_choice2.png","images/fruit_choice1.png","images/fruit_choice3.png","[1,0,2]","0","1","3","images/fruit_choice3.png","-1","fruit","","apple","1","0"
"html-keyboard-response","128","676967","0.0-9.0-2.0-0.21","1719","1","2","""event"",""trial"",""time""
""fullscreenenter"",""1"",""2558""
","
","
","""event"",""trial"",""time""
""fullscreenenter"",""1"",""2558""
","
","","","","","","null","<div style=""font-size:60px;"">+</div>","null","","fixation","","","","","","","","","","","","","",""
"learning-trial","129","680973","0.0-9.0-2.0-1.21","1719","1","2","""event"",""trial"",""time""
""fullscreenenter"",""1"",""2558""
","
","
","""event"",""trial"",""time""
""fullscreenenter"",""1"",""2558""
","
","","","","","","743","images/straw1.png","","","learning","images/fruit_choice2.png","images/fruit_choice1.png","images/fruit_choice3.png","[1,0,2]","1","0","1","images/fruit_choice2.png","-1","fruit","","straw","1","0"
"html-keyboard-response","130","681474","0.0-9.0-2.0-0.22","1719","1","2","""event"",""trial"",""time""
""fullscreenenter"",""1"",""2558""
","
","
","""event"",""trial"",""time""
""fullscreenenter"",""1"",""2558""
","
","","","","","","null","<div style=""font-size:60px;"">+</div>","null","","fixation","","","","","","","","","","","","","",""
"learning-trial","131","685481","0.0-9.0-2.0-1.22","1719","1","2","""event"",""trial"",""time""
""fullscreenenter"",""1"",""2558""
","
","
","""event"",""trial"",""time""
""fullscreenenter"",""1"",""2558""
","
","","","","","","1054.0999999046326","images/straw2.png","","","learning","images/fruit_choice3.png","images/fruit_choice1.png","images/fruit_choice2.png","[2,0,1]","1","2","3","images/fruit_choice2.png","1","fruit","","straw","1","0"
"html-keyboard-response","132","685983","0.0-9.0-2.0-0.23","1719","1","2","""event"",""trial"",""time""
""fullscreenenter"",""1"",""2558""
","
","
","""event"",""trial"",""time""
""fullscreenenter"",""1"",""2558""
","
","","","","","","null","<div style=""font-size:60px;"">+</div>","null","","fixation","","","","","","","","","","","","","",""
"learning-trial","133","689989","0.0-9.0-2.0-1.23","1719","1","2","""event"",""trial"",""time""
""fullscreenenter"",""1"",""2558""
","
","
","""event"",""trial"",""time""
""fullscreenenter"",""1"",""2558""
","
","","","","","","1489.1999998092651","images/straw1.png","","","learning","images/fruit_choice1.png","images/fruit_choice3.png","images/fruit_choice2.png","[0,2,1]","1","2","3","images/fruit_choice2.png","1","fruit","","straw","1","0"
"html-keyboard-response","134","690491","0.0-9.0-2.0-0.24","1719","1","2","""event"",""trial"",""time""
""fullscreenenter"",""1"",""2558""
","
","
","""event"",""trial"",""time""
""fullscreenenter"",""1"",""2558""
","
","","","","","","null","<div style=""font-size:60px;"">+</div>","null","","fixation","","","","","","","","","","","","","",""
"learning-trial","135","694496","0.0-9.0-2.0-1.24","1719","1","2","""event"",""trial"",""time""
""fullscreenenter"",""1"",""2558""
","
","
","""event"",""trial"",""time""
""fullscreenenter"",""1"",""2558""
","
","","","","","","1358.3000001907349","images/apple3.png","","","learning","images/fruit_choice2.png","images/fruit_choice3.png","images/fruit_choice1.png","[1,2,0]","0","2","3","images/fruit_choice1.png","1","fruit","","apple","1","0"
"html-keyboard-response","136","694999","0.0-9.0-2.0-0.25","1719","1","2","""event"",""trial"",""time""
""fullscreenenter"",""1"",""2558""
","
","
","""event"",""trial"",""time""
""fullscreenenter"",""1"",""2558""
","
","","","","","","null","<div style=""font-size:60px;"">+</div>","null","","fixation","","","","","","","","","","","","","",""
"learning-trial","137","699005","0.0-9.0-2.0-1.25","1719","1","2","""event"",""trial"",""time""
""fullscreenenter"",""1"",""2558""
","
","
","""event"",""trial"",""time""
""fullscreenenter"",""1"",""2558""
","
","","","","","","1639.7999999523163","images/apple1.png","","","learning","images/fruit_choice1.png","images/fruit_choice3.png","images/fruit_choice2.png","[0,2,1]","0","0","2","images/fruit_choice3.png","-1","fruit","","apple","1","0"
"html-keyboard-response","138","699508","0.0-9.0-2.0-0.26","1719","1","2","""event"",""trial"",""time""
""fullscreenenter"",""1"",""2558""
","
","
","""event"",""trial"",""time""
""fullscreenenter"",""1"",""2558""
","
","","","","","","null","<div style=""font-size:60px;"">+</div>","null","","fixation","","","","","","","","","","","","","",""
"learning-trial","139","703514","0.0-9.0-2.0-1.26","1719","1","2","""event"",""trial"",""time""
""fullscreenenter"",""1"",""2558""
","
","
","""event"",""trial"",""time""
""fullscreenenter"",""1"",""2558""
","
","","","","","","511.5","images/banana3.png","","","learning","images/fruit_choice2.png","images/fruit_choice1.png","images/fruit_choice3.png","[1,0,2]","2","2","3","images/fruit_choice3.png","1","fruit","","banana","1","0"
"html-keyboard-response","140","704021","0.0-9.0-2.0-0.27","1719","1","2","""event"",""trial"",""time""
""fullscreenenter"",""1"",""2558""
","
","
","""event"",""trial"",""time""
""fullscreenenter"",""1"",""2558""
","
","","","","","","null","<div style=""font-size:60px;"">+</div>","null","","fixation","","","","","","","","","","","","","",""
"learning-trial","141","708029","0.0-9.0-2.0-1.27","1719","1","2","""event"",""trial"",""time""
""fullscreenenter"",""1"",""2558""
","
","
","""event"",""trial"",""time""
""fullscreenenter"",""1"",""2558""
","
","","","","","","498.7999999523163","images/straw1.png","","","learning","images/fruit_choice1.png","images/fruit_choice2.png","images/fruit_choice3.png","[0,1,2]","1","1","2","images/fruit_choice2.png","-1","fruit","","straw","1","0"
"html-keyboard-response","142","708532","0.0-9.0-2.0-0.28","1719","1","2","""event"",""trial"",""time""
""fullscreenenter"",""1"",""2558""
","
","
","""event"",""trial"",""time""
""fullscreenenter"",""1"",""2558""
","
","","","","","","null","<div style=""font-size:60px;"">+</div>","null","","fixation","","","","","","","","","","","","","",""
"learning-trial","143","712539","0.0-9.0-2.0-1.28","1719","1","2","""event"",""trial"",""time""
""fullscreenenter"",""1"",""2558""
","
","
","""event"",""trial"",""time""
""fullscreenenter"",""1"",""2558""
","
","","","","","","685.7999999523163","images/banana2.png","","","learning","images/fruit_choice2.png","images/fruit_choice1.png","images/fruit_choice3.png","[1,0,2]","2","2","1","images/fruit_choice2.png","-1","fruit","","banana","1","0"
"html-keyboard-response","144","713042","0.0-9.0-2.0-0.29","1719","1","2","""event"",""trial"",""time""
""fullscreenenter"",""1"",""2558""
","
","
","""event"",""trial"",""time""
""fullscreenenter"",""1"",""2558""
","
","","","","","","null","<div style=""font-size:60px;"">+</div>","null","","fixation","","","","","","","","","","","","","",""
"learning-trial","145","717047","0.0-9.0-2.0-1.29","1719","1","2","""event"",""trial"",""time""
""fullscreenenter"",""1"",""2558""
","
","
","""event"",""trial"",""time""
""fullscreenenter"",""1"",""2558""
","
","","","","","","217.60000014305115","images/banana2.png","","","learning","images/fruit_choice2.png","images/fruit_choice1.png","images/fruit_choice3.png","[1,0,2]","2","2","3","images/fruit_choice3.png","1","fruit","","banana","1","0"
"html-keyboard-response","146","717550","0.0-9.0-2.0-0.30","1719","1","2","""event"",""trial"",""time""
""fullscreenenter"",""1"",""2558""
","
","
","""event"",""trial"",""time""
""fullscreenenter"",""1"",""2558""
","
","","","","","","null","<div style=""font-size:60px;"">+</div>","null","","fixation","","","","","","","","","","","","","",""
"learning-trial","147","721555","0.0-9.0-2.0-1.30","1719","1","2","""event"",""trial"",""time""
""fullscreenenter"",""1"",""2558""
","
","
","""event"",""trial"",""time""
""fullscreenenter"",""1"",""2558""
","
","","","","","","569","images/straw3.png","","","learning","images/fruit_choice1.png","images/fruit_choice2.png","images/fruit_choice3.png","[0,1,2]","1","1","2","images/fruit_choice2.png","1","fruit","","straw","1","0"
"html-keyboard-response","148","722057","0.0-9.0-2.0-0.31","1719","1","2","""event"",""trial"",""time""
""fullscreenenter"",""1"",""2558""
","
","
","""event"",""trial"",""time""
""fullscreenenter"",""1"",""2558""
","
","","","","","","null","<div style=""font-size:60px;"">+</div>","null","","fixation","","","","","","","","","","","","","",""
"learning-trial","149","726062","0.0-9.0-2.0-1.31","1719","1","2","""event"",""trial"",""time""
""fullscreenenter"",""1"",""2558""
","
","
","""event"",""trial"",""time""
""fullscreenenter"",""1"",""2558""
","
","","","","","","612.2000000476837","images/straw1.png","","","learning","images/fruit_choice2.png","images/fruit_choice3.png","images/fruit_choice1.png","[1,2,0]","1","0","2","images/fruit_choice3.png","-1","fruit","","straw","1","0"
"html-keyboard-response","150","726565","0.0-9.0-2.0-0.32","1719","1","2","""event"",""trial"",""time""
""fullscreenenter"",""1"",""2558""
","
","
","""event"",""trial"",""time""
""fullscreenenter"",""1"",""2558""
","
","","","","","","null","<div style=""font-size:60px;"">+</div>","null","","fixation","","","","","","","","","","","","","",""
"learning-trial","151","730569","0.0-9.0-2.0-1.32","1719","1","2","""event"",""trial"",""time""
""fullscreenenter"",""1"",""2558""
","
","
","""event"",""trial"",""time""
""fullscreenenter"",""1"",""2558""
","
","","","","","","856.7999999523163","images/apple2.png","","","learning","images/fruit_choice3.png","images/fruit_choice2.png","images/fruit_choice1.png","[2,1,0]","0","2","1","images/fruit_choice3.png","-1","fruit","","apple","1","0"
"html-keyboard-response","152","731071","0.0-9.0-2.0-0.33","1719","1","2","""event"",""trial"",""time""
""fullscreenenter"",""1"",""2558""
","
","
","""event"",""trial"",""time""
""fullscreenenter"",""1"",""2558""
","
","","","","","","null","<div style=""font-size:60px;"">+</div>","null","","fixation","","","","","","","","","","","","","",""
"learning-trial","153","735074","0.0-9.0-2.0-1.33","1719","1","2","""event"",""trial"",""time""
""fullscreenenter"",""1"",""2558""
","
","
","""event"",""trial"",""time""
""fullscreenenter"",""1"",""2558""
","
","","","","","","780.1999998092651","images/straw3.png","","","learning","images/fruit_choice1.png","images/fruit_choice3.png","images/fruit_choice2.png","[0,2,1]","1","2","3","images/fruit_choice2.png","-1","fruit","","straw","1","0"
"html-keyboard-response","154","735575","0.0-9.0-2.0-0.34","1719","1","2","""event"",""trial"",""time""
""fullscreenenter"",""1"",""2558""
","
","
","""event"",""trial"",""time""
""fullscreenenter"",""1"",""2558""
","
","","","","","","null","<div style=""font-size:60px;"">+</div>","null","","fixation","","","","","","","","","","","","","",""
"learning-trial","155","739580","0.0-9.0-2.0-1.34","1719","1","2","""event"",""trial"",""time""
""fullscreenenter"",""1"",""2558""
","
","
","""event"",""trial"",""time""
""fullscreenenter"",""1"",""2558""
","
","","","","","","635","images/banana3.png","","","learning","images/fruit_choice3.png","images/fruit_choice1.png","images/fruit_choice2.png","[2,0,1]","2","0","3","images/fruit_choice2.png","1","fruit","","banana","1","0"
"html-keyboard-response","156","740082","0.0-9.0-2.0-0.35","1719","1","2","""event"",""trial"",""time""
""fullscreenenter"",""1"",""2558""
","
","
","""event"",""trial"",""time""
""fullscreenenter"",""1"",""2558""
","
","","","","","","null","<div style=""font-size:60px;"">+</div>","null","","fixation","","","","","","","","","","","","","",""
"learning-trial","157","744087","0.0-9.0-2.0-1.35","1719","1","2","""event"",""trial"",""time""
""fullscreenenter"",""1"",""2558""
","
","
","""event"",""trial"",""time""
""fullscreenenter"",""1"",""2558""
","
","","","","","","1998.0999999046326","images/apple2.png","","","learning","images/fruit_choice2.png","images/fruit_choice1.png","images/fruit_choice3.png","[1,0,2]","0","1","2","images/fruit_choice1.png","-1","fruit","","apple","1","0"
"html-keyboard-response","158","744589","0.0-9.0-2.0-0.36","1719","1","2","""event"",""trial"",""time""
""fullscreenenter"",""1"",""2558""
","
","
","""event"",""trial"",""time""
""fullscreenenter"",""1"",""2558""
","
","","","","","","null","<div style=""font-size:60px;"">+</div>","null","","fixation","","","","","","","","","","","","","",""
"learning-trial","159","748595","0.0-9.0-2.0-1.36","1719","1","2","""event"",""trial"",""time""
""fullscreenenter"",""1"",""2558""
","
","
","""event"",""trial"",""time""
""fullscreenenter"",""1"",""2558""
","
","","","","","","1130.6000001430511","images/apple2.png","","","learning","images/fruit_choice3.png","images/fruit_choice1.png","images/fruit_choice2.png","[2,0,1]","0","1","1","images/fruit_choice3.png","-1","fruit","","apple","1","0"
"html-keyboard-response","160","749097","0.0-9.0-2.0-0.37","1719","1","2","""event"",""trial"",""time""
""fullscreenenter"",""1"",""2558""
","
","
","""event"",""trial"",""time""
""fullscreenenter"",""1"",""2558""
","
","","","","","","null","<div style=""font-size:60px;"">+</div>","null","","fixation","","","","","","","","","","","","","",""
"learning-trial","161","753103","0.0-9.0-2.0-1.37","1719","1","2","""event"",""trial"",""time""
""fullscreenenter"",""1"",""2558""
","
","
","""event"",""trial"",""time""
""fullscreenenter"",""1"",""2558""
","
","","","","","","713","images/straw1.png","","","learning","images/fruit_choice2.png","images/fruit_choice3.png","images/fruit_choice1.png","[1,2,0]","1","0","1","images/fruit_choice2.png","-1","fruit","","straw","1","0"
"html-keyboard-response","162","753605","0.0-9.0-2.0-0.38","1719","1","2","""event"",""trial"",""time""
""fullscreenenter"",""1"",""2558""
","
","
","""event"",""trial"",""time""
""fullscreenenter"",""1"",""2558""
","
","","","","","","null","<div style=""font-size:60px;"">+</div>","null","","fixation","","","","","","","","","","","","","",""
"learning-trial","163","757611","0.0-9.0-2.0-1.38","1719","1","2","""event"",""trial"",""time""
""fullscreenenter"",""1"",""2558""
","
","
","""event"",""trial"",""time""
""fullscreenenter"",""1"",""2558""
","
","","","","","","85.09999990463257","images/straw2.png","","","learning","images/fruit_choice3.png","images/fruit_choice1.png","images/fruit_choice2.png","[2,0,1]","1","2","2","images/fruit_choice1.png","-1","fruit","","straw","1","0"
"html-keyboard-response","164","758113","0.0-9.0-2.0-0.39","1719","1","2","""event"",""trial"",""time""
""fullscreenenter"",""1"",""2558""
","
","
","""event"",""trial"",""time""
""fullscreenenter"",""1"",""2558""
","
","","","","","","null","<div style=""font-size:60px;"">+</div>","null","","fixation","","","","","","","","","","","","","",""
"learning-trial","165","762119","0.0-9.0-2.0-1.39","1719","1","2","""event"",""trial"",""time""
""fullscreenenter"",""1"",""2558""
","
","
","""event"",""trial"",""time""
""fullscreenenter"",""1"",""2558""
","
","","","","","","685.8999998569489","images/banana4.png","","","learning","images/fruit_choice2.png","images/fruit_choice1.png","images/fruit_choice3.png","[1,0,2]","2","2","3","images/fruit_choice3.png","1","fruit","","banana","1","0"
"html-keyboard-response","166","762621","0.0-9.0-2.0-0.40","1719","1","2","""event"",""trial"",""time""
""fullscreenenter"",""1"",""2558""
","
","
","""event"",""trial"",""time""
""fullscreenenter"",""1"",""2558""
","
","","","","","","null","<div style=""font-size:60px;"">+</div>","null","","fixation","","","","","","","","","","","","","",""
"learning-trial","167","766627","0.0-9.0-2.0-1.40","1719","1","2","""event"",""trial"",""time""
""fullscreenenter"",""1"",""2558""
","
","
","""event"",""trial"",""time""
""fullscreenenter"",""1"",""2558""
","
","","","","","","318.2000000476837","images/banana2.png","","","learning","images/fruit_choice1.png","images/fruit_choice2.png","images/fruit_choice3.png","[0,1,2]","2","2","1","images/fruit_choice1.png","-1","fruit","","banana","1","0"
"html-keyboard-response","168","767130","0.0-9.0-2.0-0.41","1719","1","2","""event"",""trial"",""time""
""fullscreenenter"",""1"",""2558""
","
","
","""event"",""trial"",""time""
""fullscreenenter"",""1"",""2558""
","
","","","","","","null","<div style=""font-size:60px;"">+</div>","null","","fixation","","","","","","","","","","","","","",""
"learning-trial","169","771137","0.0-9.0-2.0-1.41","1719","1","2","""event"",""trial"",""time""
""fullscreenenter"",""1"",""2558""
","
","
","""event"",""trial"",""time""
""fullscreenenter"",""1"",""2558""
","
","","","","","","154.20000004768372","images/apple3.png","","","learning","images/fruit_choice1.png","images/fruit_choice2.png","images/fruit_choice3.png","[0,1,2]","0","0","3","images/fruit_choice3.png","-1","fruit","","apple","1","0"
"html-keyboard-response","170","771638","0.0-9.0-2.0-0.42","1719","1","2","""event"",""trial"",""time""
""fullscreenenter"",""1"",""2558""
","
","
","""event"",""trial"",""time""
""fullscreenenter"",""1"",""2558""
","
","","","","","","null","<div style=""font-size:60px;"">+</div>","null","","fixation","","","","","","","","","","","","","",""
"learning-trial","171","775645","0.0-9.0-2.0-1.42","1719","1","2","""event"",""trial"",""time""
""fullscreenenter"",""1"",""2558""
","
","
","""event"",""trial"",""time""
""fullscreenenter"",""1"",""2558""
","
","","","","","","141.10000014305115","images/straw2.png","","","learning","images/fruit_choice1.png","images/fruit_choice3.png","images/fruit_choice2.png","[0,2,1]","1","2","1","images/fruit_choice1.png","-1","fruit","","straw","1","0"
"html-keyboard-response","172","776147","0.0-9.0-2.0-0.43","1719","1","2","""event"",""trial"",""time""
""fullscreenenter"",""1"",""2558""
","
","
","""event"",""trial"",""time""
""fullscreenenter"",""1"",""2558""
","
","","","","","","null","<div style=""font-size:60px;"">+</div>","null","","fixation","","","","","","","","","","","","","",""
"learning-trial","173","780154","0.0-9.0-2.0-1.43","1719","1","2","""event"",""trial"",""time""
""fullscreenenter"",""1"",""2558""
","
","
","""event"",""trial"",""time""
""fullscreenenter"",""1"",""2558""
","
","","","","","","755","images/straw3.png","","","learning","images/fruit_choice2.png","images/fruit_choice3.png","images/fruit_choice1.png","[1,2,0]","1","0","1","images/fruit_choice2.png","1","fruit","","straw","1","0"
"html-keyboard-response","174","780657","0.0-9.0-2.0-0.44","1719","1","2","""event"",""trial"",""time""
""fullscreenenter"",""1"",""2558""
","
","
","""event"",""trial"",""time""
""fullscreenenter"",""1"",""2558""
","
","","","","","","null","<div style=""font-size:60px;"">+</div>","null","","fixation","","","","","","","","","","","","","",""
"learning-trial","175","784663","0.0-9.0-2.0-1.44","1719","1","2","""event"",""trial"",""time""
""fullscreenenter"",""1"",""2558""
","
","
","""event"",""trial"",""time""
""fullscreenenter"",""1"",""2558""
","
","","","","","","1894","images/banana4.png","","","learning","images/fruit_choice3.png","images/fruit_choice1.png","images/fruit_choice2.png","[2,0,1]","2","0","3","images/fruit_choice2.png","-1","fruit","","banana","1","0"
"html-keyboard-response","176","785164","0.0-9.0-2.0-0.45","1719","1","2","""event"",""trial"",""time""
""fullscreenenter"",""1"",""2558""
","
","
","""event"",""trial"",""time""
""fullscreenenter"",""1"",""2558""
","
","","","","","","null","<div style=""font-size:60px;"">+</div>","null","","fixation","","","","","","","","","","","","","",""
"learning-trial","177","789170","0.0-9.0-2.0-1.45","1719","1","2","""event"",""trial"",""time""
""fullscreenenter"",""1"",""2558""
","
","
","""event"",""trial"",""time""
""fullscreenenter"",""1"",""2558""
","
","","","","","","925.6000001430511","images/banana4.png","","","learning","images/fruit_choice2.png","images/fruit_choice3.png","images/fruit_choice1.png","[1,2,0]","2","1","1","images/fruit_choice2.png","-1","fruit","","banana","1","0"
"html-keyboard-response","178","789673","0.0-9.0-2.0-0.46","1719","1","2","""event"",""trial"",""time""
""fullscreenenter"",""1"",""2558""
","
","
","""event"",""trial"",""time""
""fullscreenenter"",""1"",""2558""
","
","","","","","","null","<div style=""font-size:60px;"">+</div>","null","","fixation","","","","","","","","","","","","","",""
"learning-trial","179","793678","0.0-9.0-2.0-1.46","1719","1","2","""event"",""trial"",""time""
""fullscreenenter"",""1"",""2558""
","
","
","""event"",""trial"",""time""
""fullscreenenter"",""1"",""2558""
","
","","","","","","650.4000000953674","images/banana3.png","","","learning","images/fruit_choice3.png","images/fruit_choice2.png","images/fruit_choice1.png","[2,1,0]","2","0","2","images/fruit_choice2.png","-1","fruit","","banana","1","0"
"html-keyboard-response","180","794180","0.0-9.0-2.0-0.47","1719","1","2","""event"",""trial"",""time""
""fullscreenenter"",""1"",""2558""
","
","
","""event"",""trial"",""time""
""fullscreenenter"",""1"",""2558""
","
","","","","","","null","<div style=""font-size:60px;"">+</div>","null","","fixation","","","","","","","","","","","","","",""
"learning-trial","181","798186","0.0-9.0-2.0-1.47","1719","1","2","""event"",""trial"",""time""
""fullscreenenter"",""1"",""2558""
","
","
","""event"",""trial"",""time""
""fullscreenenter"",""1"",""2558""
","
","","","","","","1790.5","images/banana3.png","","","learning","images/fruit_choice3.png","images/fruit_choice1.png","images/fruit_choice2.png","[2,0,1]","2","0","3","images/fruit_choice2.png","-1","fruit","","banana","1","0"
"html-keyboard-response","182","798689","0.0-9.0-2.0-0.48","1719","1","2","""event"",""trial"",""time""
""fullscreenenter"",""1"",""2558""
","
","
","""event"",""trial"",""time""
""fullscreenenter"",""1"",""2558""
","
","","","","","","null","<div style=""font-size:60px;"">+</div>","null","","fixation","","","","","","","","","","","","","",""
"learning-trial","183","802694","0.0-9.0-2.0-1.48","1719","1","2","""event"",""trial"",""time""
""fullscreenenter"",""1"",""2558""
","
","
","""event"",""trial"",""time""
""fullscreenenter"",""1"",""2558""
","
","","","","","","1801.2999999523163","images/banana2.png","","","learning","images/fruit_choice2.png","images/fruit_choice1.png","images/fruit_choice3.png","[1,0,2]","2","2","1","images/fruit_choice2.png","1","fruit","","banana","1","0"
"html-keyboard-response","184","803197","0.0-9.0-2.0-0.49","1719","1","2","""event"",""trial"",""time""
""fullscreenenter"",""1"",""2558""
","
","
","""event"",""trial"",""time""
""fullscreenenter"",""1"",""2558""
","
","","","","","","null","<div style=""font-size:60px;"">+</div>","null","","fixation","","","","","","","","","","","","","",""
"learning-trial","185","807203","0.0-9.0-2.0-1.49","1719","1","2","""event"",""trial"",""time""
""fullscreenenter"",""1"",""2558""
","
","
","""event"",""trial"",""time""
""fullscreenenter"",""1"",""2558""
","
","","","","","","2787.2999999523163","images/straw3.png","","","learning","images/fruit_choice2.png","images/fruit_choice1.png","images/fruit_choice3.png","[1,0,2]","1","0","1","images/fruit_choice2.png","1","fruit","","straw","1","0"
"html-keyboard-response","186","807705","0.0-9.0-2.0-0.50","1719","1","2","""event"",""trial"",""time""
""fullscreenenter"",""1"",""2558""
","
","
","""event"",""trial"",""time""
""fullscreenenter"",""1"",""2558""
","
","","","","","","null","<div style=""font-size:60px;"">+</div>","null","","fixation","","","","","","","","","","","","","",""
"learning-trial","187","811715","0.0-9.0-2.0-1.50","1719","1","2","""event"",""trial"",""time""
""fullscreenenter"",""1"",""2558""
","
","
","""event"",""trial"",""time""
""fullscreenenter"",""1"",""2558""
","
","","","","","","1810.7000000476837","images/apple3.png","","","learning","images/fruit_choice2.png","images/fruit_choice3.png","images/fruit_choice1.png","[1,2,0]","0","2","1","images/fruit_choice2.png","-1","fruit","","apple","1","0"
"html-keyboard-response","188","812217","0.0-9.0-2.0-0.51","1719","1","2","""event"",""trial"",""time""
""fullscreenenter"",""1"",""2558""
","
","
","""event"",""trial"",""time""
""fullscreenenter"",""1"",""2558""
","
","","","","","","null","<div style=""font-size:60px;"">+</div>","null","","fixation","","","","","","","","","","","","","",""
"learning-trial","189","816224","0.0-9.0-2.0-1.51","1719","1","2","""event"",""trial"",""time""
""fullscreenenter"",""1"",""2558""
","
","
","""event"",""trial"",""time""
""fullscreenenter"",""1"",""2558""
","
","","","","","","null","images/apple1.png","","","learning","images/fruit_choice3.png","images/fruit_choice2.png","images/fruit_choice1.png","[2,1,0]","0","2","null","null","-1","fruit","","apple","1","0"
"html-keyboard-response","190","816726","0.0-9.0-2.0-0.52","1719","1","2","""event"",""trial"",""time""
""fullscreenenter"",""1"",""2558""
","
","
","""event"",""trial"",""time""
""fullscreenenter"",""1"",""2558""
","
","","","","","","null","<div style=""font-size:60px;"">+</div>","null","","fixation","","","","","","","","","","","","","",""
"learning-trial","191","820733","0.0-9.0-2.0-1.52","1719","1","2","""event"",""trial"",""time""
""fullscreenenter"",""1"",""2558""
","
","
","""event"",""trial"",""time""
""fullscreenenter"",""1"",""2558""
","
","","","","","","514.4000000953674","images/apple3.png","","","learning","images/fruit_choice2.png","images/fruit_choice3.png","images/fruit_choice1.png","[1,2,0]","0","2","3","images/fruit_choice1.png","1","fruit","","apple","1","0"
"html-keyboard-response","192","821235","0.0-9.0-2.0-0.53","1719","1","2","""event"",""trial"",""time""
""fullscreenenter"",""1"",""2558""
","
","
","""event"",""trial"",""time""
""fullscreenenter"",""1"",""2558""
","
","","","","","","null","<div style=""font-size:60px;"">+</div>","null","","fixation","","","","","","","","","","","","","",""
"learning-trial","193","825241","0.0-9.0-2.0-1.53","1719","1","2","""event"",""trial"",""time""
""fullscreenenter"",""1"",""2558""
","
","
","""event"",""trial"",""time""
""fullscreenenter"",""1"",""2558""
","
","","","","","","1877.2000000476837","images/apple2.png","","","learning","images/fruit_choice3.png","images/fruit_choice2.png","images/fruit_choice1.png","[2,1,0]","0","2","1","images/fruit_choice3.png","-1","fruit","","apple","1","0"
"html-keyboard-response","194","825742","0.0-9.0-2.0-0.54","1719","1","2","""event"",""trial"",""time""
""fullscreenenter"",""1"",""2558""
","
","
","""event"",""trial"",""time""
""fullscreenenter"",""1"",""2558""
","
","","","","","","null","<div style=""font-size:60px;"">+</div>","null","","fixation","","","","","","","","","","","","","",""
"learning-trial","195","829748","0.0-9.0-2.0-1.54","1719","1","2","""event"",""trial"",""time""
""fullscreenenter"",""1"",""2558""
","
","
","""event"",""trial"",""time""
""fullscreenenter"",""1"",""2558""
","
","","","","","","2061.2000000476837","images/apple2.png","","","learning","images/fruit_choice3.png","images/fruit_choice2.png","images/fruit_choice1.png","[2,1,0]","0","2","2","images/fruit_choice2.png","-1","fruit","","apple","1","0"
"html-keyboard-response","196","830250","0.0-9.0-2.0-0.55","1719","1","2","""event"",""trial"",""time""
""fullscreenenter"",""1"",""2558""
","
","
","""event"",""trial"",""time""
""fullscreenenter"",""1"",""2558""
","
","","","","","","null","<div style=""font-size:60px;"">+</div>","null","","fixation","","","","","","","","","","","","","",""
"learning-trial","197","834257","0.0-9.0-2.0-1.55","1719","1","2","""event"",""trial"",""time""
""fullscreenenter"",""1"",""2558""
","
","
","""event"",""trial"",""time""
""fullscreenenter"",""1"",""2558""
","
","","","","","","860.6000001430511","images/straw1.png","","","learning","images/fruit_choice1.png","images/fruit_choice2.png","images/fruit_choice3.png","[0,1,2]","1","1","1","images/fruit_choice1.png","-1","fruit","","straw","1","0"
"html-keyboard-response","198","834760","0.0-9.0-2.0-0.56","1719","1","2","""event"",""trial"",""time""
""fullscreenenter"",""1"",""2558""
","
","
","""event"",""trial"",""time""
""fullscreenenter"",""1"",""2558""
","
","","","","","","null","<div style=""font-size:60px;"">+</div>","null","","fixation","","","","","","","","","","","","","",""
"learning-trial","199","838766","0.0-9.0-2.0-1.56","1719","1","2","""event"",""trial"",""time""
""fullscreenenter"",""1"",""2558""
","
","
","""event"",""trial"",""time""
""fullscreenenter"",""1"",""2558""
","
","","","","","","570.7999999523163","images/apple1.png","","","learning","images/fruit_choice1.png","images/fruit_choice3.png","images/fruit_choice2.png","[0,2,1]","0","0","3","images/fruit_choice2.png","-1","fruit","","apple","1","0"
"html-keyboard-response","200","839269","0.0-9.0-2.0-0.57","1719","1","2","""event"",""trial"",""time""
""fullscreenenter"",""1"",""2558""
","
","
","""event"",""trial"",""time""
""fullscreenenter"",""1"",""2558""
","
","","","","","","null","<div style=""font-size:60px;"">+</div>","null","","fixation","","","","","","","","","","","","","",""
"learning-trial","201","843274","0.0-9.0-2.0-1.57","1719","1","2","""event"",""trial"",""time""
""fullscreenenter"",""1"",""2558""
","
","
","""event"",""trial"",""time""
""fullscreenenter"",""1"",""2558""
","
","","","","","","552.7999999523163","images/apple1.png","","","learning","images/fruit_choice1.png","images/fruit_choice3.png","images/fruit_choice2.png","[0,2,1]","0","0","1","images/fruit_choice1.png","1","fruit","","apple","1","0"
"html-keyboard-response","202","843776","0.0-9.0-2.0-0.58","1719","1","2","""event"",""trial"",""time""
""fullscreenenter"",""1"",""2558""
","
","
","""event"",""trial"",""time""
""fullscreenenter"",""1"",""2558""
","
","","","","","","null","<div style=""font-size:60px;"">+</div>","null","","fixation","","","","","","","","","","","","","",""
"learning-trial","203","847782","0.0-9.0-2.0-1.58","1719","1","2","""event"",""trial"",""time""
""fullscreenenter"",""1"",""2558""
","
","
","""event"",""trial"",""time""
""fullscreenenter"",""1"",""2558""
","
","","","","","","744.5","images/banana3.png","","","learning","images/fruit_choice3.png","images/fruit_choice1.png","images/fruit_choice2.png","[2,0,1]","2","0","3","images/fruit_choice2.png","-1","fruit","","banana","1","0"
"html-keyboard-response","204","848285","0.0-9.0-2.0-0.59","1719","1","2","""event"",""trial"",""time""
""fullscreenenter"",""1"",""2558""
","
","
","""event"",""trial"",""time""
""fullscreenenter"",""1"",""2558""
","
","","","","","","null","<div style=""font-size:60px;"">+</div>","null","","fixation","","","","","","","","","","","","","",""
"learning-trial","205","852291","0.0-9.0-2.0-1.59","1719","1","2","""event"",""trial"",""time""
""fullscreenenter"",""1"",""2558""
","
","
","""event"",""trial"",""time""
""fullscreenenter"",""1"",""2558""
","
","","","","","","305.7000000476837","images/banana2.png","","","learning","images/fruit_choice2.png","images/fruit_choice1.png","images/fruit_choice3.png","[1,0,2]","2","2","2","images/fruit_choice1.png","-1","fruit","","banana","1","0"
"html-keyboard-response","206","852793","0.0-9.0-2.0-0.60","1719","1","2","""event"",""trial"",""time""
""fullscreenenter"",""1"",""2558""
","
","
","""event"",""trial"",""time""
""fullscreenenter"",""1"",""2558""
","
","","","","","","null","<div style=""font-size:60px;"">+</div>","null","","fixation","","","","","","","","","","","","","",""
"learning-trial","207","856798","0.0-9.0-2.0-1.60","1719","1","2","""event"",""trial"",""time""
""fullscreenenter"",""1"",""2558""
","
","
","""event"",""trial"",""time""
""fullscreenenter"",""1"",""2558""
","
","","","","","","249.70000004768372","images/apple3.png","","","learning","images/fruit_choice1.png","images/fruit_choice3.png","images/fruit_choice2.png","[0,2,1]","0","0","1","images/fruit_choice1.png","1","fruit","","apple","1","0"
"html-keyboard-response","208","857300","0.0-9.0-2.0-0.61","1719","1","2","""event"",""trial"",""time""
""fullscreenenter"",""1"",""2558""
","
","
","""event"",""trial"",""time""
""fullscreenenter"",""1"",""2558""
","
","","","","","","null","<div style=""font-size:60px;"">+</div>","null","","fixation","","","","","","","","","","","","","",""
"learning-trial","209","861308","0.0-9.0-2.0-1.61","1719","1","2","""event"",""trial"",""time""
""fullscreenenter"",""1"",""2558""
","
","
","""event"",""trial"",""time""
""fullscreenenter"",""1"",""2558""
","
","","","","","","240.60000014305115","images/apple2.png","","","learning","images/fruit_choice1.png","images/fruit_choice3.png","images/fruit_choice2.png","[0,2,1]","0","0","3","images/fruit_choice2.png","-1","fruit","","apple","1","0"
"html-keyboard-response","210","861809","0.0-9.0-2.0-0.62","1719","1","2","""event"",""trial"",""time""
""fullscreenenter"",""1"",""2558""
","
","
","""event"",""trial"",""time""
""fullscreenenter"",""1"",""2558""
","
","","","","","","null","<div style=""font-size:60px;"">+</div>","null","","fixation","","","","","","","","","","","","","",""
"learning-trial","211","865815","0.0-9.0-2.0-1.62","1719","1","2","""event"",""trial"",""time""
""fullscreenenter"",""1"",""2558""
","
","
","""event"",""trial"",""time""
""fullscreenenter"",""1"",""2558""
","
","","","","","","814.1999998092651","images/banana3.png","","","learning","images/fruit_choice2.png","images/fruit_choice1.png","images/fruit_choice3.png","[1,0,2]","2","2","1","images/fruit_choice2.png","-1","fruit","","banana","1","0"
"html-keyboard-response","212","866318","0.0-9.0-2.0-0.63","1719","1","2","""event"",""trial"",""time""
""fullscreenenter"",""1"",""2558""
","
","
","""event"",""trial"",""time""
""fullscreenenter"",""1"",""2558""
","
","","","","","","null","<div style=""font-size:60px;"">+</div>","null","","fixation","","","","","","","","","","","","","",""
"learning-trial","213","870324","0.0-9.0-2.0-1.63","1719","1","2","""event"",""trial"",""time""
""fullscreenenter"",""1"",""2558""
","
","
","""event"",""trial"",""time""
""fullscreenenter"",""1"",""2558""
","
","","","","","","292.2999999523163","images/apple3.png","","","learning","images/fruit_choice1.png","images/fruit_choice3.png","images/fruit_choice2.png","[0,2,1]","0","0","2","images/fruit_choice3.png","-1","fruit","","apple","1","0"
"html-keyboard-response","214","870827","0.0-9.0-2.0-0.64","1719","1","2","""event"",""trial"",""time""
""fullscreenenter"",""1"",""2558""
","
","
","""event"",""trial"",""time""
""fullscreenenter"",""1"",""2558""
","
","","","","","","null","<div style=""font-size:60px;"">+</div>","null","","fixation","","","","","","","","","","","","","",""
"learning-trial","215","874834","0.0-9.0-2.0-1.64","1719","1","2","""event"",""trial"",""time""
""fullscreenenter"",""1"",""2558""
","
","
","""event"",""trial"",""time""
""fullscreenenter"",""1"",""2558""
","
","","","","","","443.39999985694885","images/apple1.png","","","learning","images/fruit_choice1.png","images/fruit_choice3.png","images/fruit_choice2.png","[0,2,1]","0","0","1","images/fruit_choice1.png","1","fruit","","apple","1","0"
"html-keyboard-response","216","875337","0.0-9.0-2.0-0.65","1719","1","2","""event"",""trial"",""time""
""fullscreenenter"",""1"",""2558""
","
","
","""event"",""trial"",""time""
""fullscreenenter"",""1"",""2558""
","
","","","","","","null","<div style=""font-size:60px;"">+</div>","null","","fixation","","","","","","","","","","","","","",""
"learning-trial","217","879343","0.0-9.0-2.0-1.65","1719","1","2","""event"",""trial"",""time""
""fullscreenenter"",""1"",""2558""
","
","
","""event"",""trial"",""time""
""fullscreenenter"",""1"",""2558""
","
","","","","","","737.3000001907349","images/straw1.png","","","learning","images/fruit_choice2.png","images/fruit_choice1.png","images/fruit_choice3.png","[1,0,2]","1","0","1","images/fruit_choice2.png","1","fruit","","straw","1","0"
"html-keyboard-response","218","879845","0.0-9.0-2.0-0.66","1719","1","2","""event"",""trial"",""time""
""fullscreenenter"",""1"",""2558""
","
","
","""event"",""trial"",""time""
""fullscreenenter"",""1"",""2558""
","
","","","","","","null","<div style=""font-size:60px;"">+</div>","null","","fixation","","","","","","","","","","","","","",""
"learning-trial","219","883852","0.0-9.0-2.0-1.66","1719","1","2","""event"",""trial"",""time""
""fullscreenenter"",""1"",""2558""
","
","
","""event"",""trial"",""time""
""fullscreenenter"",""1"",""2558""
","
","","","","","","1248.1000001430511","images/banana2.png","","","learning","images/fruit_choice3.png","images/fruit_choice2.png","images/fruit_choice1.png","[2,1,0]","2","0","2","images/fruit_choice2.png","-1","fruit","","banana","1","0"
"html-keyboard-response","220","884354","0.0-9.0-2.0-0.67","1719","1","2","""event"",""trial"",""time""
""fullscreenenter"",""1"",""2558""
","
","
","""event"",""trial"",""time""
""fullscreenenter"",""1"",""2558""
","
","","","","","","null","<div style=""font-size:60px;"">+</div>","null","","fixation","","","","","","","","","","","","","",""
"learning-trial","221","888359","0.0-9.0-2.0-1.67","1719","1","2","""event"",""trial"",""time""
""fullscreenenter"",""1"",""2558""
","
","
","""event"",""trial"",""time""
""fullscreenenter"",""1"",""2558""
","
","","","","","","1338.5","images/banana4.png","","","learning","images/fruit_choice2.png","images/fruit_choice1.png","images/fruit_choice3.png","[1,0,2]","2","2","1","images/fruit_choice2.png","-1","fruit","","banana","1","0"
"html-keyboard-response","222","888862","0.0-9.0-2.0-0.68","1719","1","2","""event"",""trial"",""time""
""fullscreenenter"",""1"",""2558""
","
","
","""event"",""trial"",""time""
""fullscreenenter"",""1"",""2558""
","
","","","","","","null","<div style=""font-size:60px;"">+</div>","null","","fixation","","","","","","","","","","","","","",""
"learning-trial","223","892868","0.0-9.0-2.0-1.68","1719","1","2","""event"",""trial"",""time""
""fullscreenenter"",""1"",""2558""
","
","
","""event"",""trial"",""time""
""fullscreenenter"",""1"",""2558""
","
","","","","","","1489.9000000953674","images/apple2.png","","","learning","images/fruit_choice3.png","images/fruit_choice1.png","images/fruit_choice2.png","[2,0,1]","0","1","1","images/fruit_choice3.png","-1","fruit","","apple","1","0"
"html-keyboard-response","224","893381","0.0-9.0-2.0-0.69","1719","1","2","""event"",""trial"",""time""
""fullscreenenter"",""1"",""2558""
","
","
","""event"",""trial"",""time""
""fullscreenenter"",""1"",""2558""
","
","","","","","","null","<div style=""font-size:60px;"">+</div>","null","","fixation","","","","","","","","","","","","","",""
"learning-trial","225","897387","0.0-9.0-2.0-1.69","1719","1","2","""event"",""trial"",""time""
""fullscreenenter"",""1"",""2558""
","
","
","""event"",""trial"",""time""
""fullscreenenter"",""1"",""2558""
","
","","","","","","1899","images/straw3.png","","","learning","images/fruit_choice3.png","images/fruit_choice1.png","images/fruit_choice2.png","[2,0,1]","1","2","3","images/fruit_choice2.png","1","fruit","","straw","1","0"
"html-keyboard-response","226","897890","0.0-9.0-2.0-0.70","1719","1","2","""event"",""trial"",""time""
""fullscreenenter"",""1"",""2558""
","
","
","""event"",""trial"",""time""
""fullscreenenter"",""1"",""2558""
","
","","","","","","null","<div style=""font-size:60px;"">+</div>","null","","fixation","","","","","","","","","","","","","",""
"learning-trial","227","901897","0.0-9.0-2.0-1.70","1719","1","2","""event"",""trial"",""time""
""fullscreenenter"",""1"",""2558""
","
","
","""event"",""trial"",""time""
""fullscreenenter"",""1"",""2558""
","
","","","","","","1420.2000000476837","images/apple1.png","","","learning","images/fruit_choice2.png","images/fruit_choice3.png","images/fruit_choice1.png","[1,2,0]","0","2","1","images/fruit_choice2.png","-1","fruit","","apple","1","0"
"html-keyboard-response","228","902399","0.0-9.0-2.0-0.71","1719","1","2","""event"",""trial"",""time""
""fullscreenenter"",""1"",""2558""
","
","
","""event"",""trial"",""time""
""fullscreenenter"",""1"",""2558""
","
","","","","","","null","<div style=""font-size:60px;"">+</div>","null","","fixation","","","","","","","","","","","","","",""
"learning-trial","229","906406","0.0-9.0-2.0-1.71","1719","1","2","""event"",""trial"",""time""
""fullscreenenter"",""1"",""2558""
","
","
","""event"",""trial"",""time""
""fullscreenenter"",""1"",""2558""
","
","","","","","","2952.5","images/apple3.png","","","learning","images/fruit_choice3.png","images/fruit_choice1.png","images/fruit_choice2.png","[2,0,1]","0","1","1","images/fruit_choice3.png","-1","fruit","","apple","1","0"
"html-button-response","230","909175","0.0-9.0-3.0","1719","1","2","""event"",""trial"",""time""
""fullscreenenter"",""1"",""2558""
","
","
","""event"",""trial"",""time""
""fullscreenenter"",""1"",""2558""
","
","","","","","","2762.7000000476837","<p> You have completed the round! <p> In this round, you earned -20 points! </p>","0","","break","","","","","","","","","","","","","",""
"html-button-response","231","909855","0.0-10.0","1719","1","2","""event"",""trial"",""time""
""fullscreenenter"",""1"",""2558""
","
","
","""event"",""trial"",""time""
""fullscreenenter"",""1"",""2558""
","
","","","","","","679.0999999046326","<p> Now it's time to play another round. </p>","0","","transition_screen","","","","","","","","","","","","","",""
"preload","232","914583","0.0-11.0-0.0","1719","1","2","""event"",""trial"",""time""
""fullscreenenter"",""1"",""2558""
","
","
","""event"",""trial"",""time""
""fullscreenenter"",""1"",""2558""
","
","true","false","[]","[]","[]","","","","","","","","","","","","","","","","","","",""
"learning-instructions","233","927038","0.0-11.0-1.0-0.0","1719","1","2","""event"",""trial"",""time""
""fullscreenenter"",""1"",""2558""
","
","
","""event"",""trial"",""time""
""fullscreenenter"",""1"",""2558""
","
","","","","","","3885.4000000953674","<p> Your goal in this round is to travel the world by putting fuel into different vehicles. </p><p> To travel, you will need to put fuel into many different vehicles. </p></div>","","0","instructions","","","","","","","","","","","","","",""
"learning-instructions","234","945787","0.0-11.0-1.0-0.1","1719","1","2","""event"",""trial"",""time""
""fullscreenenter"",""1"",""2558""
","
","
","""event"",""trial"",""time""
""fullscreenenter"",""1"",""2558""
","
","","","","","","9964.200000047684","<p> On each turn, you will see a picture of one of your vehicles and three different types of fuel.  </p><p> You need to select which kind of fuel to use.  </p>","","0","instructions","","","","","","","","","","","","","",""
"learning-instructions","235","962142","0.0-11.0-1.0-0.2","1719","1","2","""event"",""trial"",""time""
""fullscreenenter"",""1"",""2558""
","
","
","""event"",""trial"",""time""
""fullscreenenter"",""1"",""2558""
","
","","","","","","9467.799999952316","<p> You can select the fuel on the left by pressing 1, the fuel in the middle by pressing 2, and the fuel on the right by pressing 3. </p><br><div class=""choice-instructions-grid""> <div class=""choice-option""><img src=""images/vehicles_choice1.png"" class=""choice-option-img"" stage=""instructions"" position=""0"" ><div class=""choice-option-text""> Press ""1."" </div></div><div class=""choice-option""><img src=""images/vehicles_choice2.png"" class=""choice-option-img"" stage=""instructions"" position=""1"" ><div class=""choice-option-text""> Press ""2."" </div></div><div class=""choice-option""><img src=""images/vehicles_choice3.png"" class=""choice-option-img"" stage=""instructions"" position=""2"" ><div class=""choice-option-text""> Press ""3."" </div></div></div>","","0","instructions","","","","","","","","","","","","","",""
"learning-instructions","236","969459","0.0-11.0-1.0-0.3","1719","1","2","""event"",""trial"",""time""
""fullscreenenter"",""1"",""2558""
","
","
","""event"",""trial"",""time""
""fullscreenenter"",""1"",""2558""
","
","","","","","","2085.7000000476837","<p> If the fuel you chose works for that vehicle, it will start, and </p><p> you will get to travel. </p><div style='float: center;'><img src='images/check.png' width = '200' height = '200'></img>","","0","instructions","","","","","","","","","","","","","",""
"learning-instructions","237","975587","0.0-11.0-1.0-0.4","1719","1","2","""event"",""trial"",""time""
""fullscreenenter"",""1"",""2558""
","
","
","""event"",""trial"",""time""
