"trial_type","trial_index","time_elapsed","internal_node_id","subject_id","condition","task_version","interactions","blur_events","focus_events","fullscreenenter_events","fullscreenexit_events","success","timeout","failed_images","failed_audio","failed_video","rt","stimulus","response","button_pressed","task_part","left_choice","middle_choice","right_choice","choice_positions","correct_response","correct_position","key_press","option_selected","points","task_block","correct","stim_cat","block_condition","block_number"
"pavlovia","0","5","0.0-0.0","1585","2","2","""event"",""trial"",""time""
""fullscreenenter"",""1"",""4235""
","
","
","""event"",""trial"",""time""
""fullscreenenter"",""1"",""4235""
","
","","","","","","","","","","","","","","","","","","","","","","","",""
"fullscreen","1","5227","0.0-1.0","1585","2","2","""event"",""trial"",""time""
""fullscreenenter"",""1"",""4235""
","
","
","""event"",""trial"",""time""
""fullscreenenter"",""1"",""4235""
","
","true","","","","","","","","","","","","","","","","","","","","","","",""
"preload","2","9190","0.0-2.0","1585","2","2","""event"",""trial"",""time""
""fullscreenenter"",""1"",""4235""
","
","
","""event"",""trial"",""time""
""fullscreenenter"",""1"",""4235""
","
","true","false","[]","[]","[]","","","","","","","","","","","","","","","","","","",""
"audio-keyboard-response","3","13461","0.0-3.0","1585","2","2","""event"",""trial"",""time""
""fullscreenenter"",""1"",""4235""
","
","
","""event"",""trial"",""time""
""fullscreenenter"",""1"",""4235""
","
","","","","","","4266.666666666667","audio/beep_loop.wav"," ","","","","","","","","","","","","","","","",""
"audio-button-response","4","19322","0.0-4.0","1585","2","2","""event"",""trial"",""time""
""fullscreenenter"",""1"",""4235""
","
","
","""event"",""trial"",""time""
""fullscreenenter"",""1"",""4235""
","
","","","","","","5857","audio/shark.wav","4","","","","","","","","","","","","","","","",""
"audio-button-response","5","23214","0.0-5.0","1585","2","2","""event"",""trial"",""time""
""fullscreenenter"",""1"",""4235""
","
","
","""event"",""trial"",""time""
""fullscreenenter"",""1"",""4235""
","
","","","","","","2885","audio/turtle.wav","1","","","","","","","","","","","","","","","",""
"preload","6","28114","0.0-6.0","1585","2","2","""event"",""trial"",""time""
""fullscreenenter"",""1"",""4235""
","
","
","""event"",""trial"",""time""
""fullscreenenter"",""1"",""4235""
","
","true","false","[]","[]","[]","","","","","","","","","","","","","","","","","","",""
"html-keyboard-response","7","31801","0.0-7.0","1585","2","2","""event"",""trial"",""time""
""fullscreenenter"",""1"",""4235""
","
","
","""event"",""trial"",""time""
""fullscreenenter"",""1"",""4235""
","
","","","","","","3684.5","Welcome to the experiment. Press any key to begin and to advance the instructions.","j","","","","","","","","","","","","","","","",""
"learning-instructions","8","41648","0.0-8.0-0.0-0.0","1585","2","2","""event"",""trial"",""time""
""fullscreenenter"",""1"",""4235""
","
","
","""event"",""trial"",""time""
""fullscreenenter"",""1"",""4235""
","
","","","","","","2096.0999999940395","<p> Welcome! Today you are going to play 6 different rounds of a decision-making game. </p><p> Use the mouse to click next to continue. </p>","","0","instructions","","","","","","","","","","","","","",""
"learning-instructions","9","45795","0.0-8.0-0.0-0.1","1585","2","2","""event"",""trial"",""time""
""fullscreenenter"",""1"",""4235""
","
","
","""event"",""trial"",""time""
""fullscreenenter"",""1"",""4235""
","
","","","","","","1141.4000000059605","<p> You will start with a practice round to learn the rules. </p>","","0","instructions","","","","","","","","","","","","","",""
"learning-instructions","10","54894","0.0-8.0-0.0-0.2","1585","2","2","""event"",""trial"",""time""
""fullscreenenter"",""1"",""4235""
","
","
","""event"",""trial"",""time""
""fullscreenenter"",""1"",""4235""
","
","","","","","","1358.3999999910593","<p> Your goal in this round is to deliver sports equipment to three different parks. </p><p> You will need to deliver many types of equipment. </p></div>","","0","instructions","","","","","","","","","","","","","",""
"learning-instructions","11","67203","0.0-8.0-0.0-0.3","1585","2","2","""event"",""trial"",""time""
""fullscreenenter"",""1"",""4235""
","
","
","""event"",""trial"",""time""
""fullscreenenter"",""1"",""4235""
","
","","","","","","3821.5","<p> On each turn, you will see one piece of sports equipment and three different parks.  </p><p> You need to select which park to deliver the equipment to.  </p>","","0","instructions","","","","","","","","","","","","","",""
"learning-instructions","12","81800","0.0-8.0-0.0-0.4","1585","2","2","""event"",""trial"",""time""
""fullscreenenter"",""1"",""4235""
","
","
","""event"",""trial"",""time""
""fullscreenenter"",""1"",""4235""
","
","","","","","","1316.1000000089407","<p> You can select the park on the left by pressing the '1' key on your keyboard. <br>You can select the park in the middle by pressing the '2' key on your keyboard. <br>You can select the park on the right by pressing the '3' key on your keyboard.  </p><br><div class=""choice-instructions-grid""> <div class=""choice-option""><img src=""images/park1.png"" class=""choice-option-img"" stage=""instructions"" position=""0"" ><div class=""choice-option-text""> Press ""1."" </div></div><div class=""choice-option""><img src=""images/park2.png"" class=""choice-option-img"" stage=""instructions"" position=""1"" ><div class=""choice-option-text""> Press ""2."" </div></div><div class=""choice-option""><img src=""images/park3.png"" class=""choice-option-img"" stage=""instructions"" position=""2"" ><div class=""choice-option-text""> Press ""3."" </div></div></div>","","0","instructions","","","","","","","","","","","","","",""
"learning-instructions","13","89012","0.0-8.0-0.0-0.5","1585","2","2","""event"",""trial"",""time""
""fullscreenenter"",""1"",""4235""
","
","
","""event"",""trial"",""time""
""fullscreenenter"",""1"",""4235""
","
","","","","","","1834.7999999970198","<p> If the kids in the park you chose like the equipment, they will be very happy! </p><div style='float: center;'><img src='images/check.png' width = '200' height = '200'></img>","","0","instructions","","","","","","","","","","","","","",""
"learning-instructions","14","95170","0.0-8.0-0.0-0.6","1585","2","2","""event"",""trial"",""time""
""fullscreenenter"",""1"",""4235""
","
","
","""event"",""trial"",""time""
""fullscreenenter"",""1"",""4235""
","
","","","","","","569.6000000089407","<p> But, if the kids in the park you chose do not like the equipment, they will be sad. </p><div style='float: center;'><img src='images/x.png' width = '200' height = '200'></img>","","0","instructions","","","","","","","","","","","","","",""
"learning-instructions","15","102020","0.0-8.0-0.0-0.7","1585","2","2","""event"",""trial"",""time""
""fullscreenenter"",""1"",""4235""
","
","
","""event"",""trial"",""time""
""fullscreenenter"",""1"",""4235""
","
","","","","","","418.3999999910593","<p> Importantly, the kids in each park like some pieces of sports equipment more than others. </p>","","0","instructions","","","","","","","","","","","","","",""
"learning-instructions","16","108529","0.0-8.0-0.0-0.8","1585","2","2","""event"",""trial"",""time""
""fullscreenenter"",""1"",""4235""
","
","
","""event"",""trial"",""time""
""fullscreenenter"",""1"",""4235""
","
","","","","","","460.29999999701977","<p> If you choose the best park for each piece of equipment, the kids there will usually be happy. </p>","","0","instructions","","","","","","","","","","","","","",""
"learning-instructions","17","117678","0.0-8.0-0.0-0.9","1585","2","2","""event"",""trial"",""time""
""fullscreenenter"",""1"",""4235""
","
","
","""event"",""trial"",""time""
""fullscreenenter"",""1"",""4235""
","
","","","","","","2503.2000000029802","<p> However, even if you choose the best park for the equipment, the kids may sometimes be sad. </p>","","0","instructions","","","","","","","","","","","","","",""
"learning-instructions","18","125576","0.0-8.0-0.0-0.10","1585","2","2","""event"",""trial"",""time""
""fullscreenenter"",""1"",""4235""
","
","
","""event"",""trial"",""time""
""fullscreenenter"",""1"",""4235""
","
","","","","","","673","<p> Similarly, even if you choose the <i>wrong</i> park for the equipment, the kids may still be happy sometimes.","","0","instructions","","","","","","","","","","","","","",""
"learning-instructions","19","133551","0.0-8.0-0.0-0.11","1585","2","2","""event"",""trial"",""time""
""fullscreenenter"",""1"",""4235""
","
","
","""event"",""trial"",""time""
""fullscreenenter"",""1"",""4235""
","
","","","","","","2917.8999999910593","<p> For example, the best park for this soccer ball is this one.<div style='float: center;'><img src='images/i1.png' width = '500' height = '268'></img>","","0","instructions","","","","","","","","","","","","","",""
"learning-instructions","20","141639","0.0-8.0-0.0-0.12","1585","2","2","""event"",""trial"",""time""
""fullscreenenter"",""1"",""4235""
","
","
","""event"",""trial"",""time""
""fullscreenenter"",""1"",""4235""
","
","","","","","","2803.199999988079","<p> Let's see what happens if you choose this park for the soccer ball five times.","","0","instructions","","","","","","","","","","","","","",""
"learning-instructions","21","145943","0.0-8.0-0.0-0.13","1585","2","2","""event"",""trial"",""time""
""fullscreenenter"",""1"",""4235""
","
","
","""event"",""trial"",""time""
""fullscreenenter"",""1"",""4235""
","
","","","","","","2138.5","<p> The kids are happy.<div style='float: left;'><img src='images/i2.png' width = '640' height = '360'></img>","","0","instructions","","","","","","","","","","","","","",""
"learning-instructions","22","148790","0.0-8.0-0.0-0.14","1585","2","2","""event"",""trial"",""time""
""fullscreenenter"",""1"",""4235""
","
","
","""event"",""trial"",""time""
""fullscreenenter"",""1"",""4235""
","
","","","","","","683.7000000029802","<p> The kids are happy.<div style='float: left;'><img src='images/i3.png' width = '640' height = '360'></img>","","0","instructions","","","","","","","","","","","","","",""
"learning-instructions","23","151508","0.0-8.0-0.0-0.15","1585","2","2","""event"",""trial"",""time""
""fullscreenenter"",""1"",""4235""
","
","
","""event"",""trial"",""time""
""fullscreenenter"",""1"",""4235""
","
","","","","","","557.3999999910593","<p> The kids are happy.<div style='float: left;'><img src='images/i4.png' width = '640' height = '360'></img>","","0","instructions","","","","","","","","","","","","","",""
"learning-instructions","24","154322","0.0-8.0-0.0-0.16","1585","2","2","""event"",""trial"",""time""
""fullscreenenter"",""1"",""4235""
","
","
","""event"",""trial"",""time""
""fullscreenenter"",""1"",""4235""
","
","","","","","","607.8000000119209","<p> The kids are sad.<div style='float: left;'><img src='images/i5.png' width = '640' height = '360'></img>","","0","instructions","","","","","","","","","","","","","",""
"learning-instructions","25","157122","0.0-8.0-0.0-0.17","1585","2","2","""event"",""trial"",""time""
""fullscreenenter"",""1"",""4235""
","
","
","""event"",""trial"",""time""
""fullscreenenter"",""1"",""4235""
","
","","","","","","638.5999999940395","<p> The kids are happy.<div style='float: left;'><img src='images/i6.png' width = '640' height = '360'></img>","","0","instructions","","","","","","","","","","","","","",""
"learning-instructions","26","165666","0.0-8.0-0.0-0.18","1585","2","2","""event"",""trial"",""time""
""fullscreenenter"",""1"",""4235""
","
","
","""event"",""trial"",""time""
""fullscreenenter"",""1"",""4235""
","
","","","","","","1277","<p> As you can see, selecting that park for the soccer ball made the kids happy most of the time, but not all the time.","","0","instructions","","","","","","","","","","","","","",""
"learning-instructions","27","172344","0.0-8.0-0.0-0.19","1585","2","2","""event"",""trial"",""time""
""fullscreenenter"",""1"",""4235""
","
","
","""event"",""trial"",""time""
""fullscreenenter"",""1"",""4235""
","
","","","","","","676","<p> Now let's see what happens if you choose a DIFFERENT park for the soccer ball 5 times.","","0","instructions","","","","","","","","","","","","","",""
"learning-instructions","28","175319","0.0-8.0-0.0-0.20","1585","2","2","""event"",""trial"",""time""
""fullscreenenter"",""1"",""4235""
","
","
","""event"",""trial"",""time""
""fullscreenenter"",""1"",""4235""
","
","","","","","","770.6000000089407","<p> The kids are sad.<div style='float: left;'><img src='images/i7.png' width = '640' height = '360'></img>","","0","instructions","","","","","","","","","","","","","",""
"learning-instructions","29","178302","0.0-8.0-0.0-0.21","1585","2","2","""event"",""trial"",""time""
""fullscreenenter"",""1"",""4235""
","
","
","""event"",""trial"",""time""
""fullscreenenter"",""1"",""4235""
","
","","","","","","775.9000000059605","<p> The kids are sad.<div style='float: left;'><img src='images/i8.png' width = '640' height = '360'></img>","","0","instructions","","","","","","","","","","","","","",""
"learning-instructions","30","181374","0.0-8.0-0.0-0.22","1585","2","2","""event"",""trial"",""time""
""fullscreenenter"",""1"",""4235""
","
","
","""event"",""trial"",""time""
""fullscreenenter"",""1"",""4235""
","
","","","","","","910.4000000059605","<p> The kids are happy.<div style='float: left;'><img src='images/i9.png' width = '640' height = '360'></img>","","0","instructions","","","","","","","","","","","","","",""
"learning-instructions","31","184140","0.0-8.0-0.0-0.23","1585","2","2","""event"",""trial"",""time""
""fullscreenenter"",""1"",""4235""
","
","
","""event"",""trial"",""time""
""fullscreenenter"",""1"",""4235""
","
","","","","","","564.9000000059605","<p> The kids are sad.<div style='float: left;'><img src='images/i10.png' width = '640' height = '360'></img>","","0","instructions","","","","","","","","","","","","","",""
"learning-instructions","32","186955","0.0-8.0-0.0-0.24","1585","2","2","""event"",""trial"",""time""
""fullscreenenter"",""1"",""4235""
","
","
","""event"",""trial"",""time""
""fullscreenenter"",""1"",""4235""
","
","","","","","","611","<p> The kids are sad.<div style='float: left;'><img src='images/i11.png' width = '640' height = '360'></img>","","0","instructions","","","","","","","","","","","","","",""
"learning-instructions","33","198236","0.0-8.0-0.0-0.25","1585","2","2","""event"",""trial"",""time""
""fullscreenenter"",""1"",""4235""
","
","
","""event"",""trial"",""time""
""fullscreenenter"",""1"",""4235""
","
","","","","","","3160.7999999970198","<p> As you can see, selecting the wrong park for the soccer ball made the kids sad most of the time, but not all the time.","","0","instructions","","","","","","","","","","","","","",""
"learning-instructions","34","209025","0.0-8.0-0.0-0.26","1585","2","2","""event"",""trial"",""time""
""fullscreenenter"",""1"",""4235""
","
","
","""event"",""trial"",""time""
""fullscreenenter"",""1"",""4235""
","
","","","","","","1676.5","<p> The different pieces of equipment belong in different parks. You need to try to learn which is the best park for each piece of equipment.","","0","instructions","","","","","","","","","","","","","",""
"learning-instructions","35","226817","0.0-8.0-0.0-0.27","1585","2","2","""event"",""trial"",""time""
""fullscreenenter"",""1"",""4235""
","
","
","""event"",""trial"",""time""
""fullscreenenter"",""1"",""4235""
","
","","","","","","1404.0999999940395","<p> Try to choose the best park for each piece of equipment, because you will <b> WIN </b> 1 point for each time you make the kids happy and <b>LOSE</b> 1 point for each time you make them sad. </p><p> Remember, if you make the best choice, you will win 1 point most of the time, but not all the time. </p>","","0","instructions","","","","","","","","","","","","","",""
"learning-instructions","36","236137","0.0-8.0-0.0-0.28","1585","2","2","""event"",""trial"",""time""
""fullscreenenter"",""1"",""4235""
","
","
","""event"",""trial"",""time""
""fullscreenenter"",""1"",""4235""
","
","","","","","","3839.6000000089407","<p> This is just a practice round, but in the real game, your bonus payment will depend on your total number of points.","","0","instructions","","","","","","","","","","","","","",""
"learning-instructions","37","247525","0.0-8.0-0.0-0.29","1585","2","2","""event"",""trial"",""time""
""fullscreenenter"",""1"",""4235""
","
","
","""event"",""trial"",""time""
""fullscreenenter"",""1"",""4235""
","
","","","","","","1063.0999999940395","<p> The position where each park appears will change throughout the game. </p><p> The position where the park appears <i> does not </i> influence how likely the kids are to be happy or sad. </p>","","0","instructions","","","","","","","","","","","","","",""
"learning-instructions","38","260443","0.0-8.0-0.0-0.30","1585","2","2","""event"",""trial"",""time""
""fullscreenenter"",""1"",""4235""
","
","
","""event"",""trial"",""time""
""fullscreenenter"",""1"",""4235""
","
","","","","","","2463.3999999910593","<p> You will have 4 seconds to make each choice. Try to respond before time runs out! </p><p> You will lose 1 point each time you do not make a response. </p>","","0","instructions","","","","","","","","","","","","","",""
"learning-instructions","39","270105","0.0-8.0-0.0-0.31","1585","2","2","""event"",""trial"",""time""
""fullscreenenter"",""1"",""4235""
","
","
","""event"",""trial"",""time""
""fullscreenenter"",""1"",""4235""
","
","","","","","","2877.7000000029802","<p> Remember, you should use the 1, 2, and 3 keys to select the park for each piece of equipment. </p><br><div class=""choice-instructions-grid""> <div class=""choice-option""><img src=""images/park1.png"" class=""choice-option-img"" stage=""instructions"" position=""0"" ><div class=""choice-option-text""> Press ""1."" </div></div><div class=""choice-option""><img src=""images/park2.png"" class=""choice-option-img"" stage=""instructions"" position=""1"" ><div class=""choice-option-text""> Press ""2."" </div></div><div class=""choice-option""><img src=""images/park3.png"" class=""choice-option-img"" stage=""instructions"" position=""2"" ><div class=""choice-option-text""> Press ""3."" </div></div></div>","","0","instructions","","","","","","","","","","","","","",""
"html-button-response","40","272318","0.0-8.0-1.0","1585","2","2","""event"",""trial"",""time""
""fullscreenenter"",""1"",""4235""
","
","
","""event"",""trial"",""time""
""fullscreenenter"",""1"",""4235""
","
","","","","","","2107.5999999940395","<p> Ready to practice? </p>","0","","","","","","","","","","","","","","","",""
"html-keyboard-response","41","272926","0.0-8.0-2.0-0.0","1585","2","2","""event"",""trial"",""time""
""fullscreenenter"",""1"",""4235""
","
","
","""event"",""trial"",""time""
""fullscreenenter"",""1"",""4235""
","
","","","","","","null","<div style=""font-size:60px;"">+</div>","null","","fixation","","","","","","","","","","","","","",""
"learning-trial","42","276932","0.0-8.0-2.0-1.0","1585","2","2","""event"",""trial"",""time""
""fullscreenenter"",""1"",""4235""
","
","
","""event"",""trial"",""time""
""fullscreenenter"",""1"",""4235""
","
","","","","","","null","images/racket3.png","","","practice","images/park2.png","images/park3.png","images/park1.png","[1,2,0]","2","1","null","null","-1","practice","","","",""
"html-keyboard-response","43","277437","0.0-8.0-2.0-0.1","1585","2","2","""event"",""trial"",""time""
""fullscreenenter"",""1"",""4235""
","
","
","""event"",""trial"",""time""
""fullscreenenter"",""1"",""4235""
","
","","","","","","null","<div style=""font-size:60px;"">+</div>","null","","fixation","","","","","","","","","","","","","",""
"learning-trial","44","281443","0.0-8.0-2.0-1.1","1585","2","2","""event"",""trial"",""time""
""fullscreenenter"",""1"",""4235""
","
","
","""event"",""trial"",""time""
""fullscreenenter"",""1"",""4235""
","
","","","","","","39.70000000298023","images/ball3.png","","","practice","images/park2.png","images/park3.png","images/park1.png","[1,2,0]","1","0","2","images/park3.png","-1","practice","","","",""
"html-keyboard-response","45","281947","0.0-8.0-2.0-0.2","1585","2","2","""event"",""trial"",""time""
""fullscreenenter"",""1"",""4235""
","
","
","""event"",""trial"",""time""
""fullscreenenter"",""1"",""4235""
","
","","","","","","null","<div style=""font-size:60px;"">+</div>","null","","fixation","","","","","","","","","","","","","",""
"learning-trial","46","285952","0.0-8.0-2.0-1.2","1585","2","2","""event"",""trial"",""time""
""fullscreenenter"",""1"",""4235""
","
","
","""event"",""trial"",""time""
""fullscreenenter"",""1"",""4235""
","
","","","","","","2184.4000000059605","images/ball3.png","","","practice","images/park3.png","images/park2.png","images/park1.png","[2,1,0]","1","1","1","images/park3.png","-1","practice","","","",""
"html-keyboard-response","47","286455","0.0-8.0-2.0-0.3","1585","2","2","""event"",""trial"",""time""
""fullscreenenter"",""1"",""4235""
","
","
","""event"",""trial"",""time""
""fullscreenenter"",""1"",""4235""
","
","","","","","","null","<div style=""font-size:60px;"">+</div>","null","","fixation","","","","","","","","","","","","","",""
"learning-trial","48","290464","0.0-8.0-2.0-1.3","1585","2","2","""event"",""trial"",""time""
""fullscreenenter"",""1"",""4235""
","
","
","""event"",""trial"",""time""
""fullscreenenter"",""1"",""4235""
","
","","","","","","3126","images/ball4.png","","","practice","images/park3.png","images/park2.png","images/park1.png","[2,1,0]","0","2","3","images/park1.png","1","practice","","","",""
"html-keyboard-response","49","290968","0.0-8.0-2.0-0.4","1585","2","2","""event"",""trial"",""time""
""fullscreenenter"",""1"",""4235""
","
","
","""event"",""trial"",""time""
""fullscreenenter"",""1"",""4235""
","
","","","","","","null","<div style=""font-size:60px;"">+</div>","null","","fixation","","","","","","","","","","","","","",""
"learning-trial","50","294975","0.0-8.0-2.0-1.4","1585","2","2","""event"",""trial"",""time""
""fullscreenenter"",""1"",""4235""
","
","
","""event"",""trial"",""time""
""fullscreenenter"",""1"",""4235""
","
","","","","","","2464.4000000059605","images/ball1.png","","","practice","images/park2.png","images/park1.png","images/park3.png","[1,0,2]","2","2","2","images/park1.png","-1","practice","","","",""
"html-keyboard-response","51","295479","0.0-8.0-2.0-0.5","1585","2","2","""event"",""trial"",""time""
""fullscreenenter"",""1"",""4235""
","
","
","""event"",""trial"",""time""
""fullscreenenter"",""1"",""4235""
","
","","","","","","null","<div style=""font-size:60px;"">+</div>","null","","fixation","","","","","","","","","","","","","",""
"learning-trial","52","299486","0.0-8.0-2.0-1.5","1585","2","2","""event"",""trial"",""time""
""fullscreenenter"",""1"",""4235""
","
","
","""event"",""trial"",""time""
""fullscreenenter"",""1"",""4235""
","
","","","","","","2390.2999999970198","images/racket3.png","","","practice","images/park2.png","images/park3.png","images/park1.png","[1,2,0]","2","1","1","images/park2.png","1","practice","","","",""
"html-keyboard-response","53","299991","0.0-8.0-2.0-0.6","1585","2","2","""event"",""trial"",""time""
""fullscreenenter"",""1"",""4235""
","
","
","""event"",""trial"",""time""
""fullscreenenter"",""1"",""4235""
","
","","","","","","null","<div style=""font-size:60px;"">+</div>","null","","fixation","","","","","","","","","","","","","",""
"learning-trial","54","303996","0.0-8.0-2.0-1.6","1585","2","2","""event"",""trial"",""time""
""fullscreenenter"",""1"",""4235""
","
","
","""event"",""trial"",""time""
""fullscreenenter"",""1"",""4235""
","
","","","","","","1688.7000000029802","images/racket1.png","","","practice","images/park1.png","images/park3.png","images/park2.png","[0,2,1]","0","0","2","images/park3.png","-1","practice","","","",""
"html-keyboard-response","55","304501","0.0-8.0-2.0-0.7","1585","2","2","""event"",""trial"",""time""
""fullscreenenter"",""1"",""4235""
","
","
","""event"",""trial"",""time""
""fullscreenenter"",""1"",""4235""
","
","","","","","","null","<div style=""font-size:60px;"">+</div>","null","","fixation","","","","","","","","","","","","","",""
"learning-trial","56","308507","0.0-8.0-2.0-1.7","1585","2","2","""event"",""trial"",""time""
""fullscreenenter"",""1"",""4235""
","
","
","""event"",""trial"",""time""
""fullscreenenter"",""1"",""4235""
","
","","","","","","1909.7999999970198","images/racket1.png","","","practice","images/park1.png","images/park3.png","images/park2.png","[0,2,1]","0","0","1","images/park1.png","1","practice","","","",""
"html-keyboard-response","57","309010","0.0-8.0-2.0-0.8","1585","2","2","""event"",""trial"",""time""
""fullscreenenter"",""1"",""4235""
","
","
","""event"",""trial"",""time""
""fullscreenenter"",""1"",""4235""
","
","","","","","","null","<div style=""font-size:60px;"">+</div>","null","","fixation","","","","","","","","","","","","","",""
"learning-trial","58","313018","0.0-8.0-2.0-1.8","1585","2","2","""event"",""trial"",""time""
""fullscreenenter"",""1"",""4235""
","
","
","""event"",""trial"",""time""
""fullscreenenter"",""1"",""4235""
","
","","","","","","2220.7999999970198","images/ball2.png","","","practice","images/park3.png","images/park2.png","images/park1.png","[2,1,0]","1","1","3","images/park1.png","-1","practice","","","",""
"html-keyboard-response","59","313522","0.0-8.0-2.0-0.9","1585","2","2","""event"",""trial"",""time""
""fullscreenenter"",""1"",""4235""
","
","
","""event"",""trial"",""time""
""fullscreenenter"",""1"",""4235""
","
","","","","","","null","<div style=""font-size:60px;"">+</div>","null","","fixation","","","","","","","","","","","","","",""
"learning-trial","60","317528","0.0-8.0-2.0-1.9","1585","2","2","""event"",""trial"",""time""
""fullscreenenter"",""1"",""4235""
","
","
","""event"",""trial"",""time""
""fullscreenenter"",""1"",""4235""
","
","","","","","","1524.0999999940395","images/ball2.png","","","practice","images/park3.png","images/park2.png","images/park1.png","[2,1,0]","1","1","2","images/park2.png","1","practice","","","",""
"html-keyboard-response","61","318033","0.0-8.0-2.0-0.10","1585","2","2","""event"",""trial"",""time""
""fullscreenenter"",""1"",""4235""
","
","
","""event"",""trial"",""time""
""fullscreenenter"",""1"",""4235""
","
","","","","","","null","<div style=""font-size:60px;"">+</div>","null","","fixation","","","","","","","","","","","","","",""
"learning-trial","62","322039","0.0-8.0-2.0-1.10","1585","2","2","""event"",""trial"",""time""
""fullscreenenter"",""1"",""4235""
","
","
","""event"",""trial"",""time""
""fullscreenenter"",""1"",""4235""
","
","","","","","","1381.2999999970198","images/ball1.png","","","practice","images/park2.png","images/park1.png","images/park3.png","[1,0,2]","2","2","3","images/park3.png","1","practice","","","",""
"html-keyboard-response","63","322544","0.0-8.0-2.0-0.11","1585","2","2","""event"",""trial"",""time""
""fullscreenenter"",""1"",""4235""
","
","
","""event"",""trial"",""time""
""fullscreenenter"",""1"",""4235""
","
","","","","","","null","<div style=""font-size:60px;"">+</div>","null","","fixation","","","","","","","","","","","","","",""
"learning-trial","64","326549","0.0-8.0-2.0-1.11","1585","2","2","""event"",""trial"",""time""
""fullscreenenter"",""1"",""4235""
","
","
","""event"",""trial"",""time""
""fullscreenenter"",""1"",""4235""
","
","","","","","","1017","images/ball4.png","","","practice","images/park3.png","images/park2.png","images/park1.png","[2,1,0]","0","2","2","images/park2.png","-1","practice","","","",""
"html-button-response","65","331187","0.0-8.0-3.0","1585","2","2","""event"",""trial"",""time""
""fullscreenenter"",""1"",""4235""
","
","
","""event"",""trial"",""time""
""fullscreenenter"",""1"",""4235""
","
","","","","","","4635.4000000059605","<p> You earned -2 points in the practice round! </p>","0","","break","","","","","","","","","","","","","",""
"learning-instructions","66","340650","0.0-8.0-4.0-0.0","1585","2","2","""event"",""trial"",""time""
""fullscreenenter"",""1"",""4235""
","
","
","""event"",""trial"",""time""
""fullscreenenter"",""1"",""4235""
","
","","","","","","1671.7000000029802","<p> It's almost time to start the real game. </p><p> Before you start, we're going to ask you a few questions about how the game works. </p>","","0","instructions","","","","","","","","","","","","","",""
"preload","67","342277","0.0-8.0-5.0","1585","2","2","""event"",""trial"",""time""
""fullscreenenter"",""1"",""4235""
","
","
","""event"",""trial"",""time""
""fullscreenenter"",""1"",""4235""
","
","true","false","[]","[]","[]","","","","","","","","","","","","","","","","","","",""
"comp-q","68","349201","0.0-8.0-6.0-0.0","1585","2","2","""event"",""trial"",""time""
""fullscreenenter"",""1"",""4235""
","
","
","""event"",""trial"",""time""
""fullscreenenter"",""1"",""4235""
","
","","","","","","1474.2999999970198","<p> <b> True or False? </b> </p><p> If you choose the best option, you will always earn 1 point. </p>","","1","comp_question","","","","","","","","","","","true","","",""
"comp-q","69","356214","0.0-8.0-6.0-1.0","1585","2","2","""event"",""trial"",""time""
""fullscreenenter"",""1"",""4235""
","
","
","""event"",""trial"",""time""
""fullscreenenter"",""1"",""4235""
","
","","","","","","1353.2000000029802","<p><b> That's right! </b> Sometimes you will lose 1 point, even if you choose the best option. </p>","","0","comp_answer","","","","","","","","","","","","","",""
"comp-q","70","362290","0.0-8.0-6.0-0.1","1585","2","2","""event"",""trial"",""time""
""fullscreenenter"",""1"",""4235""
","
","
","""event"",""trial"",""time""
""fullscreenenter"",""1"",""4235""
","
","","","","","","1444.2000000029802","<p> <b> True or False? </b> </p><p> You will have as much time as you want to make each choice. </p>","","1","comp_question","","","","","","","","","","","true","","",""
"comp-q","71","368147","0.0-8.0-6.0-1.1","1585","2","2","""event"",""trial"",""time""
""fullscreenenter"",""1"",""4235""
","
","
","""event"",""trial"",""time""
""fullscreenenter"",""1"",""4235""
","
","","","","","","1037.7000000029802","<p> <b> That's right! </b> You will only have 4 seconds to make each choice. </p>","","0","comp_answer","","","","","","","","","","","","","",""
"comp-q","72","375480","0.0-8.0-6.0-0.2","1585","2","2","""event"",""trial"",""time""
""fullscreenenter"",""1"",""4235""
","
","
","""event"",""trial"",""time""
""fullscreenenter"",""1"",""4235""
","
","","","","","","1184.2999999970198","<p> <b> True or False? </b> </p><p> You should use the '1', '2', and '3' keys to make your choices. </p>","","0","comp_question","","","","","","","","","","","true","","",""
"comp-q","73","381401","0.0-8.0-6.0-1.2","1585","2","2","""event"",""trial"",""time""
""fullscreenenter"",""1"",""4235""
","
","
","""event"",""trial"",""time""
""fullscreenenter"",""1"",""4235""
","
","","","","","","1074.0999999940395","<p> <b> That's right! </b> You should use the '1', '2', and '3' keys to make each choice. </p>","","0","comp_answer","","","","","","","","","","","","","",""
"learning-instructions","74","391576","0.0-8.0-7.0-0.0","1585","2","2","""event"",""trial"",""time""
""fullscreenenter"",""1"",""4235""
","
","
","""event"",""trial"",""time""
""fullscreenenter"",""1"",""4235""
","
","","","","","","1687","<p> It's now time to start the real game. </p>Do your best, because the points you earn in the next rounds will influence your bonus payment. </p>","","0","instructions","","","","","","","","","","","","","",""
"preload","75","393260","0.0-9.0-0.0","1585","2","2","""event"",""trial"",""time""
""fullscreenenter"",""1"",""4235""
","
","
","""event"",""trial"",""time""
""fullscreenenter"",""1"",""4235""
","
","true","false","[]","[]","[]","","","","","","","","","","","","","","","","","","",""
"learning-instructions","76","402370","0.0-9.0-1.0-0.0","1585","2","2","""event"",""trial"",""time""
""fullscreenenter"",""1"",""4235""
","
","
","""event"",""trial"",""time""
""fullscreenenter"",""1"",""4235""
","
","","","","","","1323.7000000029802","<p> Your goal in this round is to deliver furniture to three different buildings. </p><p> You will need to deliver many pieces of furniture. </p></div>","","0","instructions","","","","","","","","","","","","","",""
"learning-instructions","77","411549","0.0-9.0-1.0-0.1","1585","2","2","""event"",""trial"",""time""
""fullscreenenter"",""1"",""4235""
","
","
","""event"",""trial"",""time""
""fullscreenenter"",""1"",""4235""
","
","","","","","","1743","<p> On each turn, you will see a picture of a furniture item and three different buildings.  </p><p> You need to select the building that you want to deliver the furniture to.  </p>","","0","instructions","","","","","","","","","","","","","",""
"learning-instructions","78","423004","0.0-9.0-1.0-0.2","1585","2","2","""event"",""trial"",""time""
""fullscreenenter"",""1"",""4235""
","
","
","""event"",""trial"",""time""
""fullscreenenter"",""1"",""4235""
","
","","","","","","3166.7000000029802","<p> You can select the building on the left by pressing 1, the building in the middle by pressing 2, and the building on the right by pressing 3.  </p><br><div class=""choice-instructions-grid""> <div class=""choice-option""><img src=""images/furniture_choice1.png"" class=""choice-option-img"" stage=""instructions"" position=""0"" ><div class=""choice-option-text""> Press ""1."" </div></div><div class=""choice-option""><img src=""images/furniture_choice2.png"" class=""choice-option-img"" stage=""instructions"" position=""1"" ><div class=""choice-option-text""> Press ""2."" </div></div><div class=""choice-option""><img src=""images/furniture_choice3.png"" class=""choice-option-img"" stage=""instructions"" position=""2"" ><div class=""choice-option-text""> Press ""3."" </div></div></div>","","0","instructions","","","","","","","","","","","","","",""
"learning-instructions","79","430816","0.0-9.0-1.0-0.3","1585","2","2","""event"",""trial"",""time""
""fullscreenenter"",""1"",""4235""
","
","
","""event"",""trial"",""time""
""fullscreenenter"",""1"",""4235""
","
","","","","","","1789.3999999910593","<p> If the furniture belongs in the building you chose, the building owner will likely be very happy! </p><div style='float: center;'><img src='images/check.png' width = '200' height = '200'></img>","","0","instructions","","","","","","","","","","","","","",""
"learning-instructions","80","438977","0.0-9.0-1.0-0.4","1585","2","2","""event"",""trial"",""time""
""fullscreenenter"",""1"",""4235""
","
","
","""event"",""trial"",""time""
""fullscreenenter"",""1"",""4235""
","
","","","","","","2171.7999999970198","<p> But, if the furniture does not belong in the building you chose, the owner will likely be mad. </p><div style='float: center;'><img src='images/x.png' width = '200' height = '200'></img>","","0","instructions","","","","","","","","","","","","","",""
"learning-instructions","81","451695","0.0-9.0-1.0-0.5","1585","2","2","""event"",""trial"",""time""
""fullscreenenter"",""1"",""4235""
","
","
","""event"",""trial"",""time""
""fullscreenenter"",""1"",""4235""
","
","","","","","","1504.0999999940395","<p> Importantly, each piece of furniture belongs in one of the three buildings. </p><p> If you choose the correct building for the piece of furniture, you will be more likely to make the building owner happy! </p>","","0","instructions","","","","","","","","","","","","","",""
"learning-instructions","82","465374","0.0-9.0-1.0-0.6","1585","2","2","""event"",""trial"",""time""
""fullscreenenter"",""1"",""4235""
","
","
","""event"",""trial"",""time""
""fullscreenenter"",""1"",""4235""
","
","","","","","","2166.8999999910593","<p> However, even if you choose the best building for the furniture, the owner may still be mad sometimes. </p><p> Similarly, even if you choose the <i>wrong</i> building, the owner may still be happy.","","0","instructions","","","","","","","","","","","","","",""
"learning-instructions","83","479620","0.0-9.0-1.0-0.7","1585","2","2","""event"",""trial"",""time""
""fullscreenenter"",""1"",""4235""
","
","
","""event"",""trial"",""time""
""fullscreenenter"",""1"",""4235""
","
","","","","","","1007.7999999970198","<p> Try to choose the best building for each piece of furniture, because you will <b> WIN </b> 1 point each time a building owner is happy and <b>LOSE</b>  1 point each time a building owner is mad. </p><p> Your bonus payment will depend on your total number of points.","","0","instructions","","","","","","","","","","","","","",""
"learning-instructions","84","490352","0.0-9.0-1.0-0.8","1585","2","2","""event"",""trial"",""time""
""fullscreenenter"",""1"",""4235""
","
","
","""event"",""trial"",""time""
""fullscreenenter"",""1"",""4235""
","
","","","","","","1765.2999999970198","<p> The position of each building will change throughout the round. </p><p> The building's position <i> does not </i> influence how likely the owner is to be happy or mad. </p>","","0","instructions","","","","","","","","","","","","","",""
"learning-instructions","85","500266","0.0-9.0-1.0-0.9","1585","2","2","""event"",""trial"",""time""
""fullscreenenter"",""1"",""4235""
","
","
","""event"",""trial"",""time""
""fullscreenenter"",""1"",""4235""
","
","","","","","","621.1000000089407","<p> You will have 4 seconds to make each choice. Try to respond before time runs out! </p><p> You will lose 1 point each time you do not make a response. </p>","","0","instructions","","","","","","","","","","","","","",""
"html-keyboard-response","86","500875","0.0-9.0-2.0-0.0","1585","2","2","""event"",""trial"",""time""
""fullscreenenter"",""1"",""4235""
","
","
","""event"",""trial"",""time""
""fullscreenenter"",""1"",""4235""
","
","","","","","","null","<div style=""font-size:60px;"">+</div>","null","","fixation","","","","","","","","","","","","","",""
"learning-trial","87","504881","0.0-9.0-2.0-1.0","1585","2","2","""event"",""trial"",""time""
""fullscreenenter"",""1"",""4235""
","
","
","""event"",""trial"",""time""
""fullscreenenter"",""1"",""4235""
","
","","","","","","null","images/sofa5.png","","","learning","images/furniture_choice2.png","images/furniture_choice1.png","images/furniture_choice3.png","[1,0,2]","2","2","null","null","-1","furniture","","sofa","2","0"
"html-keyboard-response","88","505386","0.0-9.0-2.0-0.1","1585","2","2","""event"",""trial"",""time""
""fullscreenenter"",""1"",""4235""
","
","
","""event"",""trial"",""time""
""fullscreenenter"",""1"",""4235""
","
","","","","","","null","<div style=""font-size:60px;"">+</div>","null","","fixation","","","","","","","","","","","","","",""
"learning-trial","89","509391","0.0-9.0-2.0-1.1","1585","2","2","""event"",""trial"",""time""
""fullscreenenter"",""1"",""4235""
","
","
","""event"",""trial"",""time""
""fullscreenenter"",""1"",""4235""
","
","","","","","","243.6000000089407","images/sofa5.png","","","learning","images/furniture_choice3.png","images/furniture_choice1.png","images/furniture_choice2.png","[2,0,1]","2","0","2","images/furniture_choice1.png","-1","furniture","","sofa","2","0"
"html-keyboard-response","90","509896","0.0-9.0-2.0-0.2","1585","2","2","""event"",""trial"",""time""
""fullscreenenter"",""1"",""4235""
","
","
","""event"",""trial"",""time""
""fullscreenenter"",""1"",""4235""
","
","","","","","","null","<div style=""font-size:60px;"">+</div>","null","","fixation","","","","","","","","","","","","","",""
"learning-trial","91","513902","0.0-9.0-2.0-1.2","1585","2","2","""event"",""trial"",""time""
""fullscreenenter"",""1"",""4235""
","
","
","""event"",""trial"",""time""
""fullscreenenter"",""1"",""4235""
","
","","","","","","2127.9000000059605","images/bed5.png","","","learning","images/furniture_choice1.png","images/furniture_choice3.png","images/furniture_choice2.png","[0,2,1]","2","1","3","images/furniture_choice2.png","1","furniture","","bed","2","0"
"html-keyboard-response","92","514407","0.0-9.0-2.0-0.3","1585","2","2","""event"",""trial"",""time""
""fullscreenenter"",""1"",""4235""
","
","
","""event"",""trial"",""time""
""fullscreenenter"",""1"",""4235""
","
","","","","","","null","<div style=""font-size:60px;"">+</div>","null","","fixation","","","","","","","","","","","","","",""
"learning-trial","93","518415","0.0-9.0-2.0-1.3","1585","2","2","""event"",""trial"",""time""
""fullscreenenter"",""1"",""4235""
","
","
","""event"",""trial"",""time""
""fullscreenenter"",""1"",""4235""
","
","","","","","","1067.5","images/bed5.png","","","learning","images/furniture_choice3.png","images/furniture_choice2.png","images/furniture_choice1.png","[2,1,0]","2","0","2","images/furniture_choice2.png","-1","furniture","","bed","2","0"
"html-keyboard-response","94","518917","0.0-9.0-2.0-0.4","1585","2","2","""event"",""trial"",""time""
""fullscreenenter"",""1"",""4235""
","
","
","""event"",""trial"",""time""
""fullscreenenter"",""1"",""4235""
","
","","","","","","null","<div style=""font-size:60px;"">+</div>","null","","fixation","","","","","","","","","","","","","",""
"learning-trial","95","522923","0.0-9.0-2.0-1.4","1585","2","2","""event"",""trial"",""time""
""fullscreenenter"",""1"",""4235""
","
","
","""event"",""trial"",""time""
""fullscreenenter"",""1"",""4235""
","
","","","","","","519.6000000089407","images/sofa3.png","","","learning","images/furniture_choice1.png","images/furniture_choice3.png","images/furniture_choice2.png","[0,2,1]","1","2","1","images/furniture_choice1.png","-1","furniture","","sofa","2","0"
"html-keyboard-response","96","523428","0.0-9.0-2.0-0.5","1585","2","2","""event"",""trial"",""time""
""fullscreenenter"",""1"",""4235""
","
","
","""event"",""trial"",""time""
""fullscreenenter"",""1"",""4235""
","
","","","","","","null","<div style=""font-size:60px;"">+</div>","null","","fixation","","","","","","","","","","","","","",""
"learning-trial","97","527433","0.0-9.0-2.0-1.5","1585","2","2","""event"",""trial"",""time""
""fullscreenenter"",""1"",""4235""
","
","
","""event"",""trial"",""time""
""fullscreenenter"",""1"",""4235""
","
","","","","","","1041.5999999940395","images/bed2.png","","","learning","images/furniture_choice1.png","images/furniture_choice2.png","images/furniture_choice3.png","[0,1,2]","1","1","3","images/furniture_choice3.png","-1","furniture","","bed","2","0"
"html-keyboard-response","98","527938","0.0-9.0-2.0-0.6","1585","2","2","""event"",""trial"",""time""
""fullscreenenter"",""1"",""4235""
","
","
","""event"",""trial"",""time""
""fullscreenenter"",""1"",""4235""
","
","","","","","","null","<div style=""font-size:60px;"">+</div>","null","","fixation","","","","","","","","","","","","","",""
"learning-trial","99","531945","0.0-9.0-2.0-1.6","1585","2","2","""event"",""trial"",""time""
""fullscreenenter"",""1"",""4235""
","
","
","""event"",""trial"",""time""
""fullscreenenter"",""1"",""4235""
","
","","","","","","1155.4000000059605","images/bed2.png","","","learning","images/furniture_choice3.png","images/furniture_choice2.png","images/furniture_choice1.png","[2,1,0]","1","1","2","images/furniture_choice2.png","1","furniture","","bed","2","0"
"html-keyboard-response","100","532450","0.0-9.0-2.0-0.7","1585","2","2","""event"",""trial"",""time""
""fullscreenenter"",""1"",""4235""
","
","
","""event"",""trial"",""time""
""fullscreenenter"",""1"",""4235""
","
","","","","","","null","<div style=""font-size:60px;"">+</div>","null","","fixation","","","","","","","","","","","","","",""
"learning-trial","101","536456","0.0-9.0-2.0-1.7","1585","2","2","""event"",""trial"",""time""
""fullscreenenter"",""1"",""4235""
","
","
","""event"",""trial"",""time""
""fullscreenenter"",""1"",""4235""
","
","","","","","","1534.5","images/chair5.png","","","learning","images/furniture_choice3.png","images/furniture_choice1.png","images/furniture_choice2.png","[2,0,1]","1","2","2","images/furniture_choice1.png","1","furniture","","chair","2","0"
"html-keyboard-response","102","536961","0.0-9.0-2.0-0.8","1585","2","2","""event"",""trial"",""time""
""fullscreenenter"",""1"",""4235""
","
","
","""event"",""trial"",""time""
""fullscreenenter"",""1"",""4235""
","
","","","","","","null","<div style=""font-size:60px;"">+</div>","null","","fixation","","","","","","","","","","","","","",""
"learning-trial","103","540966","0.0-9.0-2.0-1.8","1585","2","2","""event"",""trial"",""time""
""fullscreenenter"",""1"",""4235""
","
","
","""event"",""trial"",""time""
""fullscreenenter"",""1"",""4235""
","
","","","","","","989.5999999940395","images/sofa4.png","","","learning","images/furniture_choice1.png","images/furniture_choice2.png","images/furniture_choice3.png","[0,1,2]","0","0","2","images/furniture_choice2.png","-1","furniture","","sofa","2","0"
"html-keyboard-response","104","541471","0.0-9.0-2.0-0.9","1585","2","2","""event"",""trial"",""time""
""fullscreenenter"",""1"",""4235""
","
","
","""event"",""trial"",""time""
""fullscreenenter"",""1"",""4235""
","
","","","","","","null","<div style=""font-size:60px;"">+</div>","null","","fixation","","","","","","","","","","","","","",""
"learning-trial","105","545477","0.0-9.0-2.0-1.9","1585","2","2","""event"",""trial"",""time""
""fullscreenenter"",""1"",""4235""
","
","
","""event"",""trial"",""time""
""fullscreenenter"",""1"",""4235""
","
","","","","","","621.8999999910593","images/sofa5.png","","","learning","images/furniture_choice2.png","images/furniture_choice1.png","images/furniture_choice3.png","[1,0,2]","2","2","1","images/furniture_choice2.png","-1","furniture","","sofa","2","0"
"html-keyboard-response","106","545982","0.0-9.0-2.0-0.10","1585","2","2","""event"",""trial"",""time""
""fullscreenenter"",""1"",""4235""
","
","
","""event"",""trial"",""time""
""fullscreenenter"",""1"",""4235""
","
","","","","","","null","<div style=""font-size:60px;"">+</div>","null","","fixation","","","","","","","","","","","","","",""
"learning-trial","107","549990","0.0-9.0-2.0-1.10","1585","2","2","""event"",""trial"",""time""
""fullscreenenter"",""1"",""4235""
","
","
","""event"",""trial"",""time""
""fullscreenenter"",""1"",""4235""
","
","","","","","","810","images/bed4.png","","","learning","images/furniture_choice3.png","images/furniture_choice1.png","images/furniture_choice2.png","[2,0,1]","0","1","2","images/furniture_choice1.png","1","furniture","","bed","2","0"
"html-keyboard-response","108","550492","0.0-9.0-2.0-0.11","1585","2","2","""event"",""trial"",""time""
""fullscreenenter"",""1"",""4235""
","
","
","""event"",""trial"",""time""
""fullscreenenter"",""1"",""4235""
","
","","","","","","null","<div style=""font-size:60px;"">+</div>","null","","fixation","","","","","","","","","","","","","",""
"learning-trial","109","554498","0.0-9.0-2.0-1.11","1585","2","2","""event"",""trial"",""time""
""fullscreenenter"",""1"",""4235""
","
","
","""event"",""trial"",""time""
""fullscreenenter"",""1"",""4235""
","
","","","","","","570.3000000119209","images/bed4.png","","","learning","images/furniture_choice3.png","images/furniture_choice1.png","images/furniture_choice2.png","[2,0,1]","0","1","2","images/furniture_choice1.png","1","furniture","","bed","2","0"
"html-keyboard-response","110","555002","0.0-9.0-2.0-0.12","1585","2","2","""event"",""trial"",""time""
""fullscreenenter"",""1"",""4235""
","
","
","""event"",""trial"",""time""
""fullscreenenter"",""1"",""4235""
","
","","","","","","null","<div style=""font-size:60px;"">+</div>","null","","fixation","","","","","","","","","","","","","",""
"learning-trial","111","559007","0.0-9.0-2.0-1.12","1585","2","2","""event"",""trial"",""time""
""fullscreenenter"",""1"",""4235""
","
","
","""event"",""trial"",""time""
""fullscreenenter"",""1"",""4235""
","
","","","","","","2675.1000000089407","images/chair1.png","","","learning","images/furniture_choice2.png","images/furniture_choice3.png","images/furniture_choice1.png","[1,2,0]","2","1","3","images/furniture_choice1.png","-1","furniture","","chair","2","0"
"html-keyboard-response","112","559508","0.0-9.0-2.0-0.13","1585","2","2","""event"",""trial"",""time""
""fullscreenenter"",""1"",""4235""
","
","
","""event"",""trial"",""time""
""fullscreenenter"",""1"",""4235""
","
","","","","","","null","<div style=""font-size:60px;"">+</div>","null","","fixation","","","","","","","","","","","","","",""
"learning-trial","113","563513","0.0-9.0-2.0-1.13","1585","2","2","""event"",""trial"",""time""
""fullscreenenter"",""1"",""4235""
","
","
","""event"",""trial"",""time""
""fullscreenenter"",""1"",""4235""
","
","","","","","","1049.7000000029802","images/chair4.png","","","learning","images/furniture_choice3.png","images/furniture_choice1.png","images/furniture_choice2.png","[2,0,1]","0","1","2","images/furniture_choice1.png","1","furniture","","chair","2","0"
"html-keyboard-response","114","564016","0.0-9.0-2.0-0.14","1585","2","2","""event"",""trial"",""time""
""fullscreenenter"",""1"",""4235""
","
","
","""event"",""trial"",""time""
""fullscreenenter"",""1"",""4235""
","
","","","","","","null","<div style=""font-size:60px;"">+</div>","null","","fixation","","","","","","","","","","","","","",""
"learning-trial","115","568023","0.0-9.0-2.0-1.14","1585","2","2","""event"",""trial"",""time""
""fullscreenenter"",""1"",""4235""
","
","
","""event"",""trial"",""time""
""fullscreenenter"",""1"",""4235""
","
","","","","","","661.8000000119209","images/sofa3.png","","","learning","images/furniture_choice2.png","images/furniture_choice3.png","images/furniture_choice1.png","[1,2,0]","1","0","2","images/furniture_choice3.png","-1","furniture","","sofa","2","0"
"html-keyboard-response","116","568528","0.0-9.0-2.0-0.15","1585","2","2","""event"",""trial"",""time""
""fullscreenenter"",""1"",""4235""
","
","
","""event"",""trial"",""time""
""fullscreenenter"",""1"",""4235""
","
","","","","","","null","<div style=""font-size:60px;"">+</div>","null","","fixation","","","","","","","","","","","","","",""
"learning-trial","117","572534","0.0-9.0-2.0-1.15","1585","2","2","""event"",""trial"",""time""
""fullscreenenter"",""1"",""4235""
","
","
","""event"",""trial"",""time""
""fullscreenenter"",""1"",""4235""
","
","","","","","","3126.8999999910593","images/chair5.png","","","learning","images/furniture_choice3.png","images/furniture_choice2.png","images/furniture_choice1.png","[2,1,0]","1","1","1","images/furniture_choice3.png","-1","furniture","","chair","2","0"
"html-keyboard-response","118","573039","0.0-9.0-2.0-0.16","1585","2","2","""event"",""trial"",""time""
""fullscreenenter"",""1"",""4235""
","
","
","""event"",""trial"",""time""
""fullscreenenter"",""1"",""4235""
","
","","","","","","null","<div style=""font-size:60px;"">+</div>","null","","fixation","","","","","","","","","","","","","",""
"learning-trial","119","577045","0.0-9.0-2.0-1.16","1585","2","2","""event"",""trial"",""time""
""fullscreenenter"",""1"",""4235""
","
","
","""event"",""trial"",""time""
""fullscreenenter"",""1"",""4235""
","
","","","","","","1616.0999999940395","images/bed5.png","","","learning","images/furniture_choice3.png","images/furniture_choice2.png","images/furniture_choice1.png","[2,1,0]","2","0","2","images/furniture_choice2.png","-1","furniture","","bed","2","0"
"html-keyboard-response","120","577550","0.0-9.0-2.0-0.17","1585","2","2","""event"",""trial"",""time""
""fullscreenenter"",""1"",""4235""
","
","
","""event"",""trial"",""time""
""fullscreenenter"",""1"",""4235""
","
","","","","","","null","<div style=""font-size:60px;"">+</div>","null","","fixation","","","","","","","","","","","","","",""
"learning-trial","121","581553","0.0-9.0-2.0-1.17","1585","2","2","""event"",""trial"",""time""
""fullscreenenter"",""1"",""4235""
","
","
","""event"",""trial"",""time""
""fullscreenenter"",""1"",""4235""
","
","","","","","","2424.2000000029802","images/sofa4.png","","","learning","images/furniture_choice2.png","images/furniture_choice1.png","images/furniture_choice3.png","[1,0,2]","0","1","1","images/furniture_choice2.png","-1","furniture","","sofa","2","0"
"html-keyboard-response","122","582054","0.0-9.0-2.0-0.18","1585","2","2","""event"",""trial"",""time""
""fullscreenenter"",""1"",""4235""
","
","
","""event"",""trial"",""time""
""fullscreenenter"",""1"",""4235""
","
","","","","","","null","<div style=""font-size:60px;"">+</div>","null","","fixation","","","","","","","","","","","","","",""
"learning-trial","123","586060","0.0-9.0-2.0-1.18","1585","2","2","""event"",""trial"",""time""
""fullscreenenter"",""1"",""4235""
","
","
","""event"",""trial"",""time""
""fullscreenenter"",""1"",""4235""
","
","","","","","","2009.7999999970198","images/chair5.png","","","learning","images/furniture_choice3.png","images/furniture_choice2.png","images/furniture_choice1.png","[2,1,0]","1","1","3","images/furniture_choice1.png","-1","furniture","","chair","2","0"
"html-keyboard-response","124","586565","0.0-9.0-2.0-0.19","1585","2","2","""event"",""trial"",""time""
""fullscreenenter"",""1"",""4235""
","
","
","""event"",""trial"",""time""
""fullscreenenter"",""1"",""4235""
","
","","","","","","null","<div style=""font-size:60px;"">+</div>","null","","fixation","","","","","","","","","","","","","",""
"learning-trial","125","590571","0.0-9.0-2.0-1.19","1585","2","2","""event"",""trial"",""time""
""fullscreenenter"",""1"",""4235""
","
","
","""event"",""trial"",""time""
""fullscreenenter"",""1"",""4235""
","
","","","","","","669.9000000059605","images/sofa5.png","","","learning","images/furniture_choice1.png","images/furniture_choice2.png","images/furniture_choice3.png","[0,1,2]","2","2","2","images/furniture_choice2.png","-1","furniture","","sofa","2","0"
"html-keyboard-response","126","591075","0.0-9.0-2.0-0.20","1585","2","2","""event"",""trial"",""time""
""fullscreenenter"",""1"",""4235""
","
","
","""event"",""trial"",""time""
""fullscreenenter"",""1"",""4235""
","
","","","","","","null","<div style=""font-size:60px;"">+</div>","null","","fixation","","","","","","","","","","","","","",""
"learning-trial","127","595081","0.0-9.0-2.0-1.20","1585","2","2","""event"",""trial"",""time""
""fullscreenenter"",""1"",""4235""
","
","
","""event"",""trial"",""time""
""fullscreenenter"",""1"",""4235""
","
","","","","","","708.7000000029802","images/bed2.png","","","learning","images/furniture_choice2.png","images/furniture_choice3.png","images/furniture_choice1.png","[1,2,0]","1","0","1","images/furniture_choice2.png","1","furniture","","bed","2","0"
"html-keyboard-response","128","595586","0.0-9.0-2.0-0.21","1585","2","2","""event"",""trial"",""time""
""fullscreenenter"",""1"",""4235""
","
","
","""event"",""trial"",""time""
""fullscreenenter"",""1"",""4235""
","
","","","","","","null","<div style=""font-size:60px;"">+</div>","null","","fixation","","","","","","","","","","","","","",""
"learning-trial","129","599592","0.0-9.0-2.0-1.21","1585","2","2","""event"",""trial"",""time""
""fullscreenenter"",""1"",""4235""
","
","
","""event"",""trial"",""time""
""fullscreenenter"",""1"",""4235""
","
","","","","","","1232.2999999970198","images/sofa5.png","","","learning","images/furniture_choice1.png","images/furniture_choice2.png","images/furniture_choice3.png","[0,1,2]","2","2","1","images/furniture_choice1.png","-1","furniture","","sofa","2","0"
"html-keyboard-response","130","600097","0.0-9.0-2.0-0.22","1585","2","2","""event"",""trial"",""time""
""fullscreenenter"",""1"",""4235""
","
","
","""event"",""trial"",""time""
""fullscreenenter"",""1"",""4235""
","
","","","","","","null","<div style=""font-size:60px;"">+</div>","null","","fixation","","","","","","","","","","","","","",""
"learning-trial","131","604102","0.0-9.0-2.0-1.22","1585","2","2","""event"",""trial"",""time""
""fullscreenenter"",""1"",""4235""
","
","
","""event"",""trial"",""time""
""fullscreenenter"",""1"",""4235""
","
","","","","","","962.2999999970198","images/bed5.png","","","learning","images/furniture_choice1.png","images/furniture_choice2.png","images/furniture_choice3.png","[0,1,2]","2","2","2","images/furniture_choice2.png","-1","furniture","","bed","2","0"
"html-keyboard-response","132","604607","0.0-9.0-2.0-0.23","1585","2","2","""event"",""trial"",""time""
""fullscreenenter"",""1"",""4235""
","
","
","""event"",""trial"",""time""
""fullscreenenter"",""1"",""4235""
","
","","","","","","null","<div style=""font-size:60px;"">+</div>","null","","fixation","","","","","","","","","","","","","",""
"learning-trial","133","608612","0.0-9.0-2.0-1.23","1585","2","2","""event"",""trial"",""time""
""fullscreenenter"",""1"",""4235""
","
","
","""event"",""trial"",""time""
""fullscreenenter"",""1"",""4235""
","
","","","","","","2889","images/bed5.png","","","learning","images/furniture_choice1.png","images/furniture_choice2.png","images/furniture_choice3.png","[0,1,2]","2","2","2","images/furniture_choice2.png","-1","furniture","","bed","2","0"
"html-keyboard-response","134","609118","0.0-9.0-2.0-0.24","1585","2","2","""event"",""trial"",""time""
""fullscreenenter"",""1"",""4235""
","
","
","""event"",""trial"",""time""
""fullscreenenter"",""1"",""4235""
","
","","","","","","null","<div style=""font-size:60px;"">+</div>","null","","fixation","","","","","","","","","","","","","",""
"learning-trial","135","613123","0.0-9.0-2.0-1.24","1585","2","2","""event"",""trial"",""time""
""fullscreenenter"",""1"",""4235""
","
","
","""event"",""trial"",""time""
""fullscreenenter"",""1"",""4235""
","
","","","","","","2120.8999999910593","images/bed4.png","","","learning","images/furniture_choice2.png","images/furniture_choice1.png","images/furniture_choice3.png","[1,0,2]","0","1","1","images/furniture_choice2.png","1","furniture","","bed","2","0"
"html-keyboard-response","136","613628","0.0-9.0-2.0-0.25","1585","2","2","""event"",""trial"",""time""
""fullscreenenter"",""1"",""4235""
","
","
","""event"",""trial"",""time""
""fullscreenenter"",""1"",""4235""
","
","","","","","","null","<div style=""font-size:60px;"">+</div>","null","","fixation","","","","","","","","","","","","","",""
"learning-trial","137","617634","0.0-9.0-2.0-1.25","1585","2","2","""event"",""trial"",""time""
""fullscreenenter"",""1"",""4235""
","
","
","""event"",""trial"",""time""
""fullscreenenter"",""1"",""4235""
","
","","","","","","1902.5999999940395","images/chair1.png","","","learning","images/furniture_choice1.png","images/furniture_choice2.png","images/furniture_choice3.png","[0,1,2]","2","2","1","images/furniture_choice1.png","-1","furniture","","chair","2","0"
"html-keyboard-response","138","618139","0.0-9.0-2.0-0.26","1585","2","2","""event"",""trial"",""time""
""fullscreenenter"",""1"",""4235""
","
","
","""event"",""trial"",""time""
""fullscreenenter"",""1"",""4235""
","
","","","","","","null","<div style=""font-size:60px;"">+</div>","null","","fixation","","","","","","","","","","","","","",""
"learning-trial","139","622144","0.0-9.0-2.0-1.26","1585","2","2","""event"",""trial"",""time""
""fullscreenenter"",""1"",""4235""
","
","
","""event"",""trial"",""time""
""fullscreenenter"",""1"",""4235""
","
","","","","","","3127.2000000029802","images/chair1.png","","","learning","images/furniture_choice3.png","images/furniture_choice1.png","images/furniture_choice2.png","[2,0,1]","2","0","2","images/furniture_choice1.png","1","furniture","","chair","2","0"
"html-keyboard-response","140","622649","0.0-9.0-2.0-0.27","1585","2","2","""event"",""trial"",""time""
""fullscreenenter"",""1"",""4235""
","
","
","""event"",""trial"",""time""
""fullscreenenter"",""1"",""4235""
","
","","","","","","null","<div style=""font-size:60px;"">+</div>","null","","fixation","","","","","","","","","","","","","",""
"learning-trial","141","626655","0.0-9.0-2.0-1.27","1585","2","2","""event"",""trial"",""time""
""fullscreenenter"",""1"",""4235""
","
","
","""event"",""trial"",""time""
""fullscreenenter"",""1"",""4235""
","
","","","","","","1089","images/sofa4.png","","","learning","images/furniture_choice3.png","images/furniture_choice2.png","images/furniture_choice1.png","[2,1,0]","0","2","2","images/furniture_choice2.png","-1","furniture","","sofa","2","0"
"html-keyboard-response","142","627159","0.0-9.0-2.0-0.28","1585","2","2","""event"",""trial"",""time""
""fullscreenenter"",""1"",""4235""
","
","
","""event"",""trial"",""time""
""fullscreenenter"",""1"",""4235""
","
","","","","","","null","<div style=""font-size:60px;"">+</div>","null","","fixation","","","","","","","","","","","","","",""
"learning-trial","143","631166","0.0-9.0-2.0-1.28","1585","2","2","""event"",""trial"",""time""
""fullscreenenter"",""1"",""4235""
","
","
","""event"",""trial"",""time""
""fullscreenenter"",""1"",""4235""
","
","","","","","","493.29999999701977","images/bed5.png","","","learning","images/furniture_choice1.png","images/furniture_choice2.png","images/furniture_choice3.png","[0,1,2]","2","2","3","images/furniture_choice3.png","1","furniture","","bed","2","0"
"html-keyboard-response","144","631671","0.0-9.0-2.0-0.29","1585","2","2","""event"",""trial"",""time""
""fullscreenenter"",""1"",""4235""
","
","
","""event"",""trial"",""time""
""fullscreenenter"",""1"",""4235""
","
","","","","","","null","<div style=""font-size:60px;"">+</div>","null","","fixation","","","","","","","","","","","","","",""
"learning-trial","145","635676","0.0-9.0-2.0-1.29","1585","2","2","""event"",""trial"",""time""
""fullscreenenter"",""1"",""4235""
","
","
","""event"",""trial"",""time""
""fullscreenenter"",""1"",""4235""
","
","","","","","","1377.0999999940395","images/bed4.png","","","learning","images/furniture_choice2.png","images/furniture_choice3.png","images/furniture_choice1.png","[1,2,0]","0","2","2","images/furniture_choice3.png","-1","furniture","","bed","2","0"
"html-keyboard-response","146","636181","0.0-9.0-2.0-0.30","1585","2","2","""event"",""trial"",""time""
""fullscreenenter"",""1"",""4235""
","
","
","""event"",""trial"",""time""
""fullscreenenter"",""1"",""4235""
","
","","","","","","null","<div style=""font-size:60px;"">+</div>","null","","fixation","","","","","","","","","","","","","",""
"learning-trial","147","640189","0.0-9.0-2.0-1.30","1585","2","2","""event"",""trial"",""time""
""fullscreenenter"",""1"",""4235""
","
","
","""event"",""trial"",""time""
""fullscreenenter"",""1"",""4235""
","
","","","","","","2007.1000000089407","images/chair1.png","","","learning","images/furniture_choice3.png","images/furniture_choice1.png","images/furniture_choice2.png","[2,0,1]","2","0","1","images/furniture_choice3.png","1","furniture","","chair","2","0"
"html-keyboard-response","148","640691","0.0-9.0-2.0-0.31","1585","2","2","""event"",""trial"",""time""
""fullscreenenter"",""1"",""4235""
","
","
","""event"",""trial"",""time""
""fullscreenenter"",""1"",""4235""
","
","","","","","","null","<div style=""font-size:60px;"">+</div>","null","","fixation","","","","","","","","","","","","","",""
"learning-trial","149","644697","0.0-9.0-2.0-1.31","1585","2","2","""event"",""trial"",""time""
""fullscreenenter"",""1"",""4235""
","
","
","""event"",""trial"",""time""
""fullscreenenter"",""1"",""4235""
","
","","","","","","643.2999999970198","images/chair1.png","","","learning","images/furniture_choice1.png","images/furniture_choice2.png","images/furniture_choice3.png","[0,1,2]","2","2","1","images/furniture_choice1.png","-1","furniture","","chair","2","0"
"html-keyboard-response","150","645202","0.0-9.0-2.0-0.32","1585","2","2","""event"",""trial"",""time""
""fullscreenenter"",""1"",""4235""
","
","
","""event"",""trial"",""time""
""fullscreenenter"",""1"",""4235""
","
","","","","","","null","<div style=""font-size:60px;"">+</div>","null","","fixation","","","","","","","","","","","","","",""
"learning-trial","151","649208","0.0-9.0-2.0-1.32","1585","2","2","""event"",""trial"",""time""
""fullscreenenter"",""1"",""4235""
","
","
","""event"",""trial"",""time""
""fullscreenenter"",""1"",""4235""
","
","","","","","","1068.5","images/chair4.png","","","learning","images/furniture_choice2.png","images/furniture_choice1.png","images/furniture_choice3.png","[1,0,2]","0","1","1","images/furniture_choice2.png","-1","furniture","","chair","2","0"
"html-keyboard-response","152","649713","0.0-9.0-2.0-0.33","1585","2","2","""event"",""trial"",""time""
""fullscreenenter"",""1"",""4235""
","
","
","""event"",""trial"",""time""
""fullscreenenter"",""1"",""4235""
","
","","","","","","null","<div style=""font-size:60px;"">+</div>","null","","fixation","","","","","","","","","","","","","",""
"learning-trial","153","653718","0.0-9.0-2.0-1.33","1585","2","2","""event"",""trial"",""time""
""fullscreenenter"",""1"",""4235""
","
","
","""event"",""trial"",""time""
""fullscreenenter"",""1"",""4235""
","
","","","","","","601.5","images/chair4.png","","","learning","images/furniture_choice2.png","images/furniture_choice3.png","images/furniture_choice1.png","[1,2,0]","0","2","2","images/furniture_choice3.png","-1","furniture","","chair","2","0"
"html-keyboard-response","154","654223","0.0-9.0-2.0-0.34","1585","2","2","""event"",""trial"",""time""
""fullscreenenter"",""1"",""4235""
","
","
","""event"",""trial"",""time""
""fullscreenenter"",""1"",""4235""
","
","","","","","","null","<div style=""font-size:60px;"">+</div>","null","","fixation","","","","","","","","","","","","","",""
"learning-trial","155","658229","0.0-9.0-2.0-1.34","1585","2","2","""event"",""trial"",""time""
""fullscreenenter"",""1"",""4235""
","
","
","""event"",""trial"",""time""
""fullscreenenter"",""1"",""4235""
","
","","","","","","1170.2000000029802","images/chair4.png","","","learning","images/furniture_choice2.png","images/furniture_choice1.png","images/furniture_choice3.png","[1,0,2]","0","1","3","images/furniture_choice3.png","-1","furniture","","chair","2","0"
"html-keyboard-response","156","658734","0.0-9.0-2.0-0.35","1585","2","2","""event"",""trial"",""time""
""fullscreenenter"",""1"",""4235""
","
","
","""event"",""trial"",""time""
""fullscreenenter"",""1"",""4235""
","
","","","","","","null","<div style=""font-size:60px;"">+</div>","null","","fixation","","","","","","","","","","","","","",""
"learning-trial","157","662739","0.0-9.0-2.0-1.35","1585","2","2","""event"",""trial"",""time""
""fullscreenenter"",""1"",""4235""
","
","
","""event"",""trial"",""time""
""fullscreenenter"",""1"",""4235""
","
","","","","","","1347.9000000059605","images/bed2.png","","","learning","images/furniture_choice2.png","images/furniture_choice3.png","images/furniture_choice1.png","[1,2,0]","1","0","2","images/furniture_choice3.png","-1","furniture","","bed","2","0"
"html-keyboard-response","158","663244","0.0-9.0-2.0-0.36","1585","2","2","""event"",""trial"",""time""
""fullscreenenter"",""1"",""4235""
","
","
","""event"",""trial"",""time""
""fullscreenenter"",""1"",""4235""
","
","","","","","","null","<div style=""font-size:60px;"">+</div>","null","","fixation","","","","","","","","","","","","","",""
"learning-trial","159","667250","0.0-9.0-2.0-1.36","1585","2","2","""event"",""trial"",""time""
""fullscreenenter"",""1"",""4235""
","
","
","""event"",""trial"",""time""
""fullscreenenter"",""1"",""4235""
","
","","","","","","928.8999999910593","images/sofa4.png","","","learning","images/furniture_choice1.png","images/furniture_choice2.png","images/furniture_choice3.png","[0,1,2]","0","0","1","images/furniture_choice1.png","1","furniture","","sofa","2","0"
"html-keyboard-response","160","667755","0.0-9.0-2.0-0.37","1585","2","2","""event"",""trial"",""time""
""fullscreenenter"",""1"",""4235""
","
","
","""event"",""trial"",""time""
""fullscreenenter"",""1"",""4235""
","
","","","","","","null","<div style=""font-size:60px;"">+</div>","null","","fixation","","","","","","","","","","","","","",""
"learning-trial","161","671760","0.0-9.0-2.0-1.37","1585","2","2","""event"",""trial"",""time""
""fullscreenenter"",""1"",""4235""
","
","
","""event"",""trial"",""time""
""fullscreenenter"",""1"",""4235""
","
","","","","","","336.5","images/sofa3.png","","","learning","images/furniture_choice2.png","images/furniture_choice1.png","images/furniture_choice3.png","[1,0,2]","1","0","1","images/furniture_choice2.png","1","furniture","","sofa","2","0"
"html-keyboard-response","162","672265","0.0-9.0-2.0-0.38","1585","2","2","""event"",""trial"",""time""
""fullscreenenter"",""1"",""4235""
","
","
","""event"",""trial"",""time""
""fullscreenenter"",""1"",""4235""
","
","","","","","","null","<div style=""font-size:60px;"">+</div>","null","","fixation","","","","","","","","","","","","","",""
"learning-trial","163","676271","0.0-9.0-2.0-1.38","1585","2","2","""event"",""trial"",""time""
""fullscreenenter"",""1"",""4235""
","
","
","""event"",""trial"",""time""
""fullscreenenter"",""1"",""4235""
","
","","","","","","892.2000000029802","images/chair4.png","","","learning","images/furniture_choice2.png","images/furniture_choice1.png","images/furniture_choice3.png","[1,0,2]","0","1","1","images/furniture_choice2.png","-1","furniture","","chair","2","0"
"html-keyboard-response","164","676776","0.0-9.0-2.0-0.39","1585","2","2","""event"",""trial"",""time""
""fullscreenenter"",""1"",""4235""
","
","
","""event"",""trial"",""time""
""fullscreenenter"",""1"",""4235""
","
","","","","","","null","<div style=""font-size:60px;"">+</div>","null","","fixation","","","","","","","","","","","","","",""
"learning-trial","165","680782","0.0-9.0-2.0-1.39","1585","2","2","""event"",""trial"",""time""
""fullscreenenter"",""1"",""4235""
","
","
","""event"",""trial"",""time""
""fullscreenenter"",""1"",""4235""
","
","","","","","","832.2000000029802","images/bed2.png","","","learning","images/furniture_choice3.png","images/furniture_choice2.png","images/furniture_choice1.png","[2,1,0]","1","1","2","images/furniture_choice2.png","1","furniture","","bed","2","0"
"html-keyboard-response","166","681286","0.0-9.0-2.0-0.40","1585","2","2","""event"",""trial"",""time""
""fullscreenenter"",""1"",""4235""
","
","
","""event"",""trial"",""time""
""fullscreenenter"",""1"",""4235""
","
","","","","","","null","<div style=""font-size:60px;"">+</div>","null","","fixation","","","","","","","","","","","","","",""
"learning-trial","167","685292","0.0-9.0-2.0-1.40","1585","2","2","""event"",""trial"",""time""
""fullscreenenter"",""1"",""4235""
","
","
","""event"",""trial"",""time""
""fullscreenenter"",""1"",""4235""
","
","","","","","","567.9000000059605","images/chair5.png","","","learning","images/furniture_choice2.png","images/furniture_choice3.png","images/furniture_choice1.png","[1,2,0]","1","0","3","images/furniture_choice1.png","-1","furniture","","chair","2","0"
"html-keyboard-response","168","685797","0.0-9.0-2.0-0.41","1585","2","2","""event"",""trial"",""time""
""fullscreenenter"",""1"",""4235""
","
","
","""event"",""trial"",""time""
""fullscreenenter"",""1"",""4235""
","
","","","","","","null","<div style=""font-size:60px;"">+</div>","null","","fixation","","","","","","","","","","","","","",""
"learning-trial","169","689803","0.0-9.0-2.0-1.41","1585","2","2","""event"",""trial"",""time""
""fullscreenenter"",""1"",""4235""
","
","
","""event"",""trial"",""time""
""fullscreenenter"",""1"",""4235""
","
","","","","","","444.30000001192093","images/bed5.png","","","learning","images/furniture_choice1.png","images/furniture_choice3.png","images/furniture_choice2.png","[0,2,1]","2","1","2","images/furniture_choice3.png","1","furniture","","bed","2","0"
"html-keyboard-response","170","690308","0.0-9.0-2.0-0.42","1585","2","2","""event"",""trial"",""time""
""fullscreenenter"",""1"",""4235""
","
","
","""event"",""trial"",""time""
""fullscreenenter"",""1"",""4235""
","
","","","","","","null","<div style=""font-size:60px;"">+</div>","null","","fixation","","","","","","","","","","","","","",""
"learning-trial","171","694316","0.0-9.0-2.0-1.42","1585","2","2","""event"",""trial"",""time""
""fullscreenenter"",""1"",""4235""
","
","
","""event"",""trial"",""time""
""fullscreenenter"",""1"",""4235""
","
","","","","","","603.2999999970198","images/sofa3.png","","","learning","images/furniture_choice3.png","images/furniture_choice2.png","images/furniture_choice1.png","[2,1,0]","1","1","2","images/furniture_choice2.png","-1","furniture","","sofa","2","0"
"html-keyboard-response","172","694818","0.0-9.0-2.0-0.43","1585","2","2","""event"",""trial"",""time""
""fullscreenenter"",""1"",""4235""
""blur"",""173"",""695839""
""focus"",""173"",""695840""
""blur"",""173"",""696869""
""focus"",""173"",""696870""
","""event"",""trial"",""time""
""blur"",""173"",""695839""
""blur"",""173"",""696869""
","""event"",""trial"",""time""
""focus"",""173"",""695840""
""focus"",""173"",""696870""
","""event"",""trial"",""time""
""fullscreenenter"",""1"",""4235""
","
","","","","","","null","<div style=""font-size:60px;"">+</div>","null","","fixation","","","","","","","","","","","","","",""
"learning-trial","173","698824","0.0-9.0-2.0-1.43","1585","2","2","""event"",""trial"",""time""
""fullscreenenter"",""1"",""4235""
""blur"",""173"",""695839""
""focus"",""173"",""695840""
""blur"",""173"",""696869""
""focus"",""173"",""696870""
","""event"",""trial"",""time""
""blur"",""173"",""695839""
""blur"",""173"",""696869""
","""event"",""trial"",""time""
""focus"",""173"",""695840""
""focus"",""173"",""696870""
","""event"",""trial"",""time""
""fullscreenenter"",""1"",""4235""
","
","","","","","","3474.7000000029802","images/chair4.png","","","learning","images/furniture_choice3.png","images/furniture_choice1.png","images/furniture_choice2.png","[2,0,1]","0","1","1","images/furniture_choice3.png","-1","furniture","","chair","2","0"
"html-keyboard-response","174","699329","0.0-9.0-2.0-0.44","1585","2","2","""event"",""trial"",""time""
""fullscreenenter"",""1"",""4235""
""blur"",""173"",""695839""
""focus"",""173"",""695840""
""blur"",""173"",""696869""
""focus"",""173"",""696870""
","""event"",""trial"",""time""
""blur"",""173"",""695839""
""blur"",""173"",""696869""
","""event"",""trial"",""time""
""focus"",""173"",""695840""
""focus"",""173"",""696870""
","""event"",""trial"",""time""
""fullscreenenter"",""1"",""4235""
","
","","","","","","null","<div style=""font-size:60px;"">+</div>","null","","fixation","","","","","","","","","","","","","",""
"learning-trial","175","703334","0.0-9.0-2.0-1.44","1585","2","2","""event"",""trial"",""time""
""fullscreenenter"",""1"",""4235""
""blur"",""173"",""695839""
""focus"",""173"",""695840""
""blur"",""173"",""696869""
""focus"",""173"",""696870""
","""event"",""trial"",""time""
""blur"",""173"",""695839""
""blur"",""173"",""696869""
","""event"",""trial"",""time""
""focus"",""173"",""695840""
""focus"",""173"",""696870""
","""event"",""trial"",""time""
""fullscreenenter"",""1"",""4235""
","
","","","","","","720.7000000029802","images/sofa5.png","","","learning","images/furniture_choice1.png","images/furniture_choice3.png","images/furniture_choice2.png","[0,2,1]","2","1","1","images/furniture_choice1.png","-1","furniture","","sofa","2","0"
"html-keyboard-response","176","703839","0.0-9.0-2.0-0.45","1585","2","2","""event"",""trial"",""time""
""fullscreenenter"",""1"",""4235""
""blur"",""173"",""695839""
""focus"",""173"",""695840""
""blur"",""173"",""696869""
""focus"",""173"",""696870""
","""event"",""trial"",""time""
""blur"",""173"",""695839""
""blur"",""173"",""696869""
","""event"",""trial"",""time""
""focus"",""173"",""695840""
""focus"",""173"",""696870""
","""event"",""trial"",""time""
""fullscreenenter"",""1"",""4235""
","
","","","","","","null","<div style=""font-size:60px;"">+</div>","null","","fixation","","","","","","","","","","","","","",""
"learning-trial","177","707845","0.0-9.0-2.0-1.45","1585","2","2","""event"",""trial"",""time""
""fullscreenenter"",""1"",""4235""
""blur"",""173"",""695839""
""focus"",""173"",""695840""
""blur"",""173"",""696869""
""focus"",""173"",""696870""
","""event"",""trial"",""time""
""blur"",""173"",""695839""
""blur"",""173"",""696869""
","""event"",""trial"",""time""
""focus"",""173"",""695840""
""focus"",""173"",""696870""
","""event"",""trial"",""time""
""fullscreenenter"",""1"",""4235""
","
","","","","","","400.6000000089407","images/sofa3.png","","","learning","images/furniture_choice3.png","images/furniture_choice1.png","images/furniture_choice2.png","[2,0,1]","1","2","2","images/furniture_choice1.png","-1","furniture","","sofa","2","0"
"html-keyboard-response","178","708350","0.0-9.0-2.0-0.46","1585","2","2","""event"",""trial"",""time""
""fullscreenenter"",""1"",""4235""
""blur"",""173"",""695839""
""focus"",""173"",""695840""
""blur"",""173"",""696869""
""focus"",""173"",""696870""
","""event"",""trial"",""time""
""blur"",""173"",""695839""
""blur"",""173"",""696869""
","""event"",""trial"",""time""
""focus"",""173"",""695840""
""focus"",""173"",""696870""
","""event"",""trial"",""time""
""fullscreenenter"",""1"",""4235""
","
","","","","","","null","<div style=""font-size:60px;"">+</div>","null","","fixation","","","","","","","","","","","","","",""
"learning-trial","179","712355","0.0-9.0-2.0-1.46","1585","2","2","""event"",""trial"",""time""
""fullscreenenter"",""1"",""4235""
""blur"",""173"",""695839""
""focus"",""173"",""695840""
""blur"",""173"",""696869""
""focus"",""173"",""696870""
","""event"",""trial"",""time""
""blur"",""173"",""695839""
""blur"",""173"",""696869""
","""event"",""trial"",""time""
""focus"",""173"",""695840""
""focus"",""173"",""696870""
","""event"",""trial"",""time""
""fullscreenenter"",""1"",""4235""
","
","","","","","","352.09999999403954","images/sofa3.png","","","learning","images/furniture_choice1.png","images/furniture_choice2.png","images/furniture_choice3.png","[0,1,2]","1","1","3","images/furniture_choice3.png","-1","furniture","","sofa","2","0"
"html-keyboard-response","180","712860","0.0-9.0-2.0-0.47","1585","2","2","""event"",""trial"",""time""
""fullscreenenter"",""1"",""4235""
""blur"",""173"",""695839""
""focus"",""173"",""695840""
""blur"",""173"",""696869""
""focus"",""173"",""696870""
","""event"",""trial"",""time""
""blur"",""173"",""695839""
""blur"",""173"",""696869""
","""event"",""trial"",""time""
""focus"",""173"",""695840""
""focus"",""173"",""696870""
","""event"",""trial"",""time""
""fullscreenenter"",""1"",""4235""
","
","","","","","","null","<div style=""font-size:60px;"">+</div>","null","","fixation","","","","","","","","","","","","","",""
"learning-trial","181","716866","0.0-9.0-2.0-1.47","1585","2","2","""event"",""trial"",""time""
""fullscreenenter"",""1"",""4235""
""blur"",""173"",""695839""
""focus"",""173"",""695840""
""blur"",""173"",""696869""
""focus"",""173"",""696870""
","""event"",""trial"",""time""
""blur"",""173"",""695839""
""blur"",""173"",""696869""
","""event"",""trial"",""time""
""focus"",""173"",""695840""
""focus"",""173"",""696870""
","""event"",""trial"",""time""
""fullscreenenter"",""1"",""4235""
","
","","","","","","493.70000000298023","images/chair1.png","","","learning","images/furniture_choice1.png","images/furniture_choice2.png","images/furniture_choice3.png","[0,1,2]","2","2","2","images/furniture_choice2.png","-1","furniture","","chair","2","0"
"html-keyboard-response","182","717371","0.0-9.0-2.0-0.48","1585","2","2","""event"",""trial"",""time""
""fullscreenenter"",""1"",""4235""
""blur"",""173"",""695839""
""focus"",""173"",""695840""
""blur"",""173"",""696869""
""focus"",""173"",""696870""
","""event"",""trial"",""time""
""blur"",""173"",""695839""
""blur"",""173"",""696869""
","""event"",""trial"",""time""
""focus"",""173"",""695840""
""focus"",""173"",""696870""
","""event"",""trial"",""time""
""fullscreenenter"",""1"",""4235""
","
","","","","","","null","<div style=""font-size:60px;"">+</div>","null","","fixation","","","","","","","","","","","","","",""
"learning-trial","183","721377","0.0-9.0-2.0-1.48","1585","2","2","""event"",""trial"",""time""
""fullscreenenter"",""1"",""4235""
""blur"",""173"",""695839""
""focus"",""173"",""695840""
""blur"",""173"",""696869""
""focus"",""173"",""696870""
","""event"",""trial"",""time""
""blur"",""173"",""695839""
""blur"",""173"",""696869""
","""event"",""trial"",""time""
""focus"",""173"",""695840""
""focus"",""173"",""696870""
","""event"",""trial"",""time""
""fullscreenenter"",""1"",""4235""
","
","","","","","","649.4000000059605","images/sofa4.png","","","learning","images/furniture_choice1.png","images/furniture_choice2.png","images/furniture_choice3.png","[0,1,2]","0","0","1","images/furniture_choice1.png","1","furniture","","sofa","2","0"
"html-keyboard-response","184","721882","0.0-9.0-2.0-0.49","1585","2","2","""event"",""trial"",""time""
""fullscreenenter"",""1"",""4235""
""blur"",""173"",""695839""
""focus"",""173"",""695840""
""blur"",""173"",""696869""
""focus"",""173"",""696870""
","""event"",""trial"",""time""
""blur"",""173"",""695839""
""blur"",""173"",""696869""
","""event"",""trial"",""time""
""focus"",""173"",""695840""
""focus"",""173"",""696870""
","""event"",""trial"",""time""
""fullscreenenter"",""1"",""4235""
","
","","","","","","null","<div style=""font-size:60px;"">+</div>","null","","fixation","","","","","","","","","","","","","",""
"learning-trial","185","725887","0.0-9.0-2.0-1.49","1585","2","2","""event"",""trial"",""time""
""fullscreenenter"",""1"",""4235""
""blur"",""173"",""695839""
""focus"",""173"",""695840""
""blur"",""173"",""696869""
""focus"",""173"",""696870""
","""event"",""trial"",""time""
""blur"",""173"",""695839""
""blur"",""173"",""696869""
","""event"",""trial"",""time""
""focus"",""173"",""695840""
""focus"",""173"",""696870""
","""event"",""trial"",""time""
""fullscreenenter"",""1"",""4235""
","
","","","","","","2024","images/chair5.png","","","learning","images/furniture_choice1.png","images/furniture_choice2.png","images/furniture_choice3.png","[0,1,2]","1","1","2","images/furniture_choice2.png","1","furniture","","chair","2","0"
"html-keyboard-response","186","726392","0.0-9.0-2.0-0.50","1585","2","2","""event"",""trial"",""time""
""fullscreenenter"",""1"",""4235""
""blur"",""173"",""695839""
""focus"",""173"",""695840""
""blur"",""173"",""696869""
""focus"",""173"",""696870""
","""event"",""trial"",""time""
""blur"",""173"",""695839""
""blur"",""173"",""696869""
","""event"",""trial"",""time""
""focus"",""173"",""695840""
""focus"",""173"",""696870""
","""event"",""trial"",""time""
""fullscreenenter"",""1"",""4235""
","
","","","","","","null","<div style=""font-size:60px;"">+</div>","null","","fixation","","","","","","","","","","","","","",""
"learning-trial","187","730398","0.0-9.0-2.0-1.50","1585","2","2","""event"",""trial"",""time""
""fullscreenenter"",""1"",""4235""
""blur"",""173"",""695839""
""focus"",""173"",""695840""
""blur"",""173"",""696869""
""focus"",""173"",""696870""
","""event"",""trial"",""time""
""blur"",""173"",""695839""
""blur"",""173"",""696869""
","""event"",""trial"",""time""
""focus"",""173"",""695840""
""focus"",""173"",""696870""
","""event"",""trial"",""time""
""fullscreenenter"",""1"",""4235""
","
","","","","","","3059.7999999970198","images/chair5.png","","","learning","images/furniture_choice3.png","images/furniture_choice2.png","images/furniture_choice1.png","[2,1,0]","1","1","3","images/furniture_choice1.png","-1","furniture","","chair","2","0"
"html-keyboard-response","188","730903","0.0-9.0-2.0-0.51","1585","2","2","""event"",""trial"",""time""
""fullscreenenter"",""1"",""4235""
""blur"",""173"",""695839""
""focus"",""173"",""695840""
""blur"",""173"",""696869""
""focus"",""173"",""696870""
","""event"",""trial"",""time""
""blur"",""173"",""695839""
""blur"",""173"",""696869""
","""event"",""trial"",""time""
""focus"",""173"",""695840""
""focus"",""173"",""696870""
","""event"",""trial"",""time""
""fullscreenenter"",""1"",""4235""
","
","","","","","","null","<div style=""font-size:60px;"">+</div>","null","","fixation","","","","","","","","","","","","","",""
"learning-trial","189","734908","0.0-9.0-2.0-1.51","1585","2","2","""event"",""trial"",""time""
""fullscreenenter"",""1"",""4235""
""blur"",""173"",""695839""
""focus"",""173"",""695840""
""blur"",""173"",""696869""
""focus"",""173"",""696870""
","""event"",""trial"",""time""
""blur"",""173"",""695839""
""blur"",""173"",""696869""
","""event"",""trial"",""time""
""focus"",""173"",""695840""
""focus"",""173"",""696870""
","""event"",""trial"",""time""
""fullscreenenter"",""1"",""4235""
","
","","","","","","860.7000000029802","images/bed4.png","","","learning","images/furniture_choice3.png","images/furniture_choice2.png","images/furniture_choice1.png","[2,1,0]","0","2","2","images/furniture_choice2.png","-1","furniture","","bed","2","0"
"html-keyboard-response","190","735413","0.0-9.0-2.0-0.52","1585","2","2","""event"",""trial"",""time""
""fullscreenenter"",""1"",""4235""
""blur"",""173"",""695839""
""focus"",""173"",""695840""
""blur"",""173"",""696869""
""focus"",""173"",""696870""
","""event"",""trial"",""time""
""blur"",""173"",""695839""
""blur"",""173"",""696869""
","""event"",""trial"",""time""
""focus"",""173"",""695840""
""focus"",""173"",""696870""
","""event"",""trial"",""time""
""fullscreenenter"",""1"",""4235""
","
","","","","","","null","<div style=""font-size:60px;"">+</div>","null","","fixation","","","","","","","","","","","","","",""
"learning-trial","191","739419","0.0-9.0-2.0-1.52","1585","2","2","""event"",""trial"",""time""
""fullscreenenter"",""1"",""4235""
""blur"",""173"",""695839""
""focus"",""173"",""695840""
""blur"",""173"",""696869""
""focus"",""173"",""696870""
","""event"",""trial"",""time""
""blur"",""173"",""695839""
""blur"",""173"",""696869""
","""event"",""trial"",""time""
""focus"",""173"",""695840""
""focus"",""173"",""696870""
","""event"",""trial"",""time""
""fullscreenenter"",""1"",""4235""
","
","","","","","","874.7000000029802","images/sofa3.png","","","learning","images/furniture_choice3.png","images/furniture_choice1.png","images/furniture_choice2.png","[2,0,1]","1","2","1","images/furniture_choice3.png","-1","furniture","","sofa","2","0"
"html-keyboard-response","192","739924","0.0-9.0-2.0-0.53","1585","2","2","""event"",""trial"",""time""
""fullscreenenter"",""1"",""4235""
""blur"",""173"",""695839""
""focus"",""173"",""695840""
""blur"",""173"",""696869""
""focus"",""173"",""696870""
","""event"",""trial"",""time""
""blur"",""173"",""695839""
""blur"",""173"",""696869""
","""event"",""trial"",""time""
""focus"",""173"",""695840""
""focus"",""173"",""696870""
","""event"",""trial"",""time""
""fullscreenenter"",""1"",""4235""
","
","","","","","","null","<div style=""font-size:60px;"">+</div>","null","","fixation","","","","","","","","","","","","","",""
"learning-trial","193","743929","0.0-9.0-2.0-1.53","1585","2","2","""event"",""trial"",""time""
""fullscreenenter"",""1"",""4235""
""blur"",""173"",""695839""
""focus"",""173"",""695840""
""blur"",""173"",""696869""
""focus"",""173"",""696870""
","""event"",""trial"",""time""
""blur"",""173"",""695839""
""blur"",""173"",""696869""
","""event"",""trial"",""time""
""focus"",""173"",""695840""
""focus"",""173"",""696870""
","""event"",""trial"",""time""
""fullscreenenter"",""1"",""4235""
","
","","","","","","756.9000000059605","images/bed2.png","","","learning","images/furniture_choice2.png","images/furniture_choice3.png","images/furniture_choice1.png","[1,2,0]","1","0","2","images/furniture_choice3.png","-1","furniture","","bed","2","0"
"html-keyboard-response","194","744434","0.0-9.0-2.0-0.54","1585","2","2","""event"",""trial"",""time""
""fullscreenenter"",""1"",""4235""
""blur"",""173"",""695839""
""focus"",""173"",""695840""
""blur"",""173"",""696869""
""focus"",""173"",""696870""
","""event"",""trial"",""time""
""blur"",""173"",""695839""
""blur"",""173"",""696869""
","""event"",""trial"",""time""
""focus"",""173"",""695840""
""focus"",""173"",""696870""
","""event"",""trial"",""time""
""fullscreenenter"",""1"",""4235""
","
","","","","","","null","<div style=""font-size:60px;"">+</div>","null","","fixation","","","","","","","","","","","","","",""
"learning-trial","195","748440","0.0-9.0-2.0-1.54","1585","2","2","""event"",""trial"",""time""
""fullscreenenter"",""1"",""4235""
""blur"",""173"",""695839""
""focus"",""173"",""695840""
""blur"",""173"",""696869""
""focus"",""173"",""696870""
","""event"",""trial"",""time""
""blur"",""173"",""695839""
""blur"",""173"",""696869""
","""event"",""trial"",""time""
""focus"",""173"",""695840""
""focus"",""173"",""696870""
","""event"",""trial"",""time""
""fullscreenenter"",""1"",""4235""
","
","","","","","","373.79999999701977","images/chair1.png","","","learning","images/furniture_choice2.png","images/furniture_choice3.png","images/furniture_choice1.png","[1,2,0]","2","1","3","images/furniture_choice1.png","-1","furniture","","chair","2","0"
"html-keyboard-response","196","748945","0.0-9.0-2.0-0.55","1585","2","2","""event"",""trial"",""time""
""fullscreenenter"",""1"",""4235""
""blur"",""173"",""695839""
""focus"",""173"",""695840""
""blur"",""173"",""696869""
""focus"",""173"",""696870""
","""event"",""trial"",""time""
""blur"",""173"",""695839""
""blur"",""173"",""696869""
","""event"",""trial"",""time""
""focus"",""173"",""695840""
""focus"",""173"",""696870""
","""event"",""trial"",""time""
""fullscreenenter"",""1"",""4235""
","
","","","","","","null","<div style=""font-size:60px;"">+</div>","null","","fixation","","","","","","","","","","","","","",""
"learning-trial","197","752950","0.0-9.0-2.0-1.55","1585","2","2","""event"",""trial"",""time""
""fullscreenenter"",""1"",""4235""
""blur"",""173"",""695839""
""focus"",""173"",""695840""
""blur"",""173"",""696869""
""focus"",""173"",""696870""
","""event"",""trial"",""time""
""blur"",""173"",""695839""
""blur"",""173"",""696869""
","""event"",""trial"",""time""
""focus"",""173"",""695840""
""focus"",""173"",""696870""
","""event"",""trial"",""time""
""fullscreenenter"",""1"",""4235""
","
","","","","","","430.09999999403954","images/bed4.png","","","learning","images/furniture_choice3.png","images/furniture_choice1.png","images/furniture_choice2.png","[2,0,1]","0","1","2","images/furniture_choice1.png","-1","furniture","","bed","2","0"
"html-keyboard-response","198","753455","0.0-9.0-2.0-0.56","1585","2","2","""event"",""trial"",""time""
""fullscreenenter"",""1"",""4235""
""blur"",""173"",""695839""
""focus"",""173"",""695840""
""blur"",""173"",""696869""
""focus"",""173"",""696870""
","""event"",""trial"",""time""
""blur"",""173"",""695839""
""blur"",""173"",""696869""
","""event"",""trial"",""time""
""focus"",""173"",""695840""
""focus"",""173"",""696870""
","""event"",""trial"",""time""
""fullscreenenter"",""1"",""4235""
","
","","","","","","null","<div style=""font-size:60px;"">+</div>","null","","fixation","","","","","","","","","","","","","",""
"learning-trial","199","757461","0.0-9.0-2.0-1.56","1585","2","2","""event"",""trial"",""time""
""fullscreenenter"",""1"",""4235""
""blur"",""173"",""695839""
""focus"",""173"",""695840""
""blur"",""173"",""696869""
""focus"",""173"",""696870""
","""event"",""trial"",""time""
""blur"",""173"",""695839""
""blur"",""173"",""696869""
","""event"",""trial"",""time""
""focus"",""173"",""695840""
""focus"",""173"",""696870""
","""event"",""trial"",""time""
""fullscreenenter"",""1"",""4235""
","
","","","","","","240.5","images/chair4.png","","","learning","images/furniture_choice3.png","images/furniture_choice1.png","images/furniture_choice2.png","[2,0,1]","0","1","1","images/furniture_choice3.png","-1","furniture","","chair","2","0"
"html-keyboard-response","200","757962","0.0-9.0-2.0-0.57","1585","2","2","""event"",""trial"",""time""
""fullscreenenter"",""1"",""4235""
""blur"",""173"",""695839""
""focus"",""173"",""695840""
""blur"",""173"",""696869""
""focus"",""173"",""696870""
","""event"",""trial"",""time""
""blur"",""173"",""695839""
""blur"",""173"",""696869""
","""event"",""trial"",""time""
""focus"",""173"",""695840""
""focus"",""173"",""696870""
","""event"",""trial"",""time""
""fullscreenenter"",""1"",""4235""
","
","","","","","","null","<div style=""font-size:60px;"">+</div>","null","","fixation","","","","","","","","","","","","","",""
"learning-trial","201","761966","0.0-9.0-2.0-1.57","1585","2","2","""event"",""trial"",""time""
""fullscreenenter"",""1"",""4235""
""blur"",""173"",""695839""
""focus"",""173"",""695840""
""blur"",""173"",""696869""
""focus"",""173"",""696870""
","""event"",""trial"",""time""
""blur"",""173"",""695839""
""blur"",""173"",""696869""
","""event"",""trial"",""time""
""focus"",""173"",""695840""
""focus"",""173"",""696870""
","""event"",""trial"",""time""
""fullscreenenter"",""1"",""4235""
","
","","","","","","2291.0999999940395","images/sofa3.png","","","learning","images/furniture_choice3.png","images/furniture_choice1.png","images/furniture_choice2.png","[2,0,1]","1","2","2","images/furniture_choice1.png","-1","furniture","","sofa","2","0"
"html-keyboard-response","202","762470","0.0-9.0-2.0-0.58","1585","2","2","""event"",""trial"",""time""
""fullscreenenter"",""1"",""4235""
""blur"",""173"",""695839""
""focus"",""173"",""695840""
""blur"",""173"",""696869""
""focus"",""173"",""696870""
","""event"",""trial"",""time""
""blur"",""173"",""695839""
""blur"",""173"",""696869""
","""event"",""trial"",""time""
""focus"",""173"",""695840""
""focus"",""173"",""696870""
","""event"",""trial"",""time""
""fullscreenenter"",""1"",""4235""
","
","","","","","","null","<div style=""font-size:60px;"">+</div>","null","","fixation","","","","","","","","","","","","","",""
"learning-trial","203","766476","0.0-9.0-2.0-1.58","1585","2","2","""event"",""trial"",""time""
""fullscreenenter"",""1"",""4235""
""blur"",""173"",""695839""
""focus"",""173"",""695840""
""blur"",""173"",""696869""
""focus"",""173"",""696870""
","""event"",""trial"",""time""
""blur"",""173"",""695839""
""blur"",""173"",""696869""
","""event"",""trial"",""time""
""focus"",""173"",""695840""
""focus"",""173"",""696870""
","""event"",""trial"",""time""
""fullscreenenter"",""1"",""4235""
","
","","","","","","636.4000000059605","images/bed2.png","","","learning","images/furniture_choice3.png","images/furniture_choice1.png","images/furniture_choice2.png","[2,0,1]","1","2","1","images/furniture_choice3.png","1","furniture","","bed","2","0"
"html-keyboard-response","204","766981","0.0-9.0-2.0-0.59","1585","2","2","""event"",""trial"",""time""
""fullscreenenter"",""1"",""4235""
""blur"",""173"",""695839""
""focus"",""173"",""695840""
""blur"",""173"",""696869""
""focus"",""173"",""696870""
","""event"",""trial"",""time""
""blur"",""173"",""695839""
""blur"",""173"",""696869""
","""event"",""trial"",""time""
""focus"",""173"",""695840""
""focus"",""173"",""696870""
","""event"",""trial"",""time""
""fullscreenenter"",""1"",""4235""
","
","","","","","","null","<div style=""font-size:60px;"">+</div>","null","","fixation","","","","","","","","","","","","","",""
"learning-trial","205","770987","0.0-9.0-2.0-1.59","1585","2","2","""event"",""trial"",""time""
""fullscreenenter"",""1"",""4235""
""blur"",""173"",""695839""
""focus"",""173"",""695840""
""blur"",""173"",""696869""
""focus"",""173"",""696870""
","""event"",""trial"",""time""
""blur"",""173"",""695839""
""blur"",""173"",""696869""
","""event"",""trial"",""time""
""focus"",""173"",""695840""
""focus"",""173"",""696870""
","""event"",""trial"",""time""
""fullscreenenter"",""1"",""4235""
","
","","","","","","667.4000000059605","images/bed5.png","","","learning","images/furniture_choice2.png","images/furniture_choice1.png","images/furniture_choice3.png","[1,0,2]","2","2","2","images/furniture_choice1.png","-1","furniture","","bed","2","0"
"html-keyboard-response","206","771492","0.0-9.0-2.0-0.60","1585","2","2","""event"",""trial"",""time""
""fullscreenenter"",""1"",""4235""
""blur"",""173"",""695839""
""focus"",""173"",""695840""
""blur"",""173"",""696869""
""focus"",""173"",""696870""
","""event"",""trial"",""time""
""blur"",""173"",""695839""
""blur"",""173"",""696869""
","""event"",""trial"",""time""
""focus"",""173"",""695840""
""focus"",""173"",""696870""
","""event"",""trial"",""time""
""fullscreenenter"",""1"",""4235""
","
","","","","","","null","<div style=""font-size:60px;"">+</div>","null","","fixation","","","","","","","","","","","","","",""
"learning-trial","207","775497","0.0-9.0-2.0-1.60","1585","2","2","""event"",""trial"",""time""
""fullscreenenter"",""1"",""4235""
""blur"",""173"",""695839""
""focus"",""173"",""695840""
""blur"",""173"",""696869""
""focus"",""173"",""696870""
","""event"",""trial"",""time""
""blur"",""173"",""695839""
""blur"",""173"",""696869""
","""event"",""trial"",""time""
""focus"",""173"",""695840""
""focus"",""173"",""696870""
","""event"",""trial"",""time""
""fullscreenenter"",""1"",""4235""
","
","","","","","","1594","images/chair5.png","","","learning","images/furniture_choice1.png","images/furniture_choice3.png","images/furniture_choice2.png","[0,2,1]","1","2","1","images/furniture_choice1.png","1","furniture","","chair","2","0"
"html-keyboard-response","208","776002","0.0-9.0-2.0-0.61","1585","2","2","""event"",""trial"",""time""
""fullscreenenter"",""1"",""4235""
""blur"",""173"",""695839""
""focus"",""173"",""695840""
""blur"",""173"",""696869""
""focus"",""173"",""696870""
","""event"",""trial"",""time""
""blur"",""173"",""695839""
""blur"",""173"",""696869""
","""event"",""trial"",""time""
""focus"",""173"",""695840""
""focus"",""173"",""696870""
","""event"",""trial"",""time""
""fullscreenenter"",""1"",""4235""
","
","","","","","","null","<div style=""font-size:60px;"">+</div>","null","","fixation","","","","","","","","","","","","","",""
"learning-trial","209","780008","0.0-9.0-2.0-1.61","1585","2","2","""event"",""trial"",""time""
""fullscreenenter"",""1"",""4235""
""blur"",""173"",""695839""
""focus"",""173"",""695840""
