"trial_type","trial_index","time_elapsed","internal_node_id","subject_id","condition","task_version","interactions","blur_events","focus_events","fullscreenenter_events","fullscreenexit_events","success","timeout","failed_images","failed_audio","failed_video","rt","stimulus","response","button_pressed","task_part","left_choice","middle_choice","right_choice","choice_positions","correct_response","correct_position","key_press","option_selected","points","task_block","correct","stim_cat","block_condition","block_number"
"pavlovia","0","6","0.0-0.0","1575","2","2","""event"",""trial"",""time""
""fullscreenenter"",""1"",""9359""
","
","
","""event"",""trial"",""time""
""fullscreenenter"",""1"",""9359""
","
","","","","","","","","","","","","","","","","","","","","","","","",""
"fullscreen","1","10341","0.0-1.0","1575","2","2","""event"",""trial"",""time""
""fullscreenenter"",""1"",""9359""
","
","
","""event"",""trial"",""time""
""fullscreenenter"",""1"",""9359""
","
","true","","","","","","","","","","","","","","","","","","","","","","",""
"preload","2","14575","0.0-2.0","1575","2","2","""event"",""trial"",""time""
""fullscreenenter"",""1"",""9359""
","
","
","""event"",""trial"",""time""
""fullscreenenter"",""1"",""9359""
","
","true","false","[]","[]","[]","","","","","","","","","","","","","","","","","","",""
"audio-keyboard-response","3","19327","0.0-3.0","1575","2","2","""event"",""trial"",""time""
""fullscreenenter"",""1"",""9359""
","
","
","""event"",""trial"",""time""
""fullscreenenter"",""1"",""9359""
","
","","","","","","4746.666666666667","audio/beep_loop.wav"," ","","","","","","","","","","","","","","","",""
"audio-button-response","4","21824","0.0-4.0","1575","2","2","""event"",""trial"",""time""
""fullscreenenter"",""1"",""9359""
","
","
","""event"",""trial"",""time""
""fullscreenenter"",""1"",""9359""
","
","","","","","","2485","audio/shark.wav","4","","","","","","","","","","","","","","","",""
"audio-button-response","5","24280","0.0-5.0","1575","2","2","""event"",""trial"",""time""
""fullscreenenter"",""1"",""9359""
","
","
","""event"",""trial"",""time""
""fullscreenenter"",""1"",""9359""
","
","","","","","","1451","audio/turtle.wav","1","","","","","","","","","","","","","","","",""
"preload","6","28894","0.0-6.0","1575","2","2","""event"",""trial"",""time""
""fullscreenenter"",""1"",""9359""
","
","
","""event"",""trial"",""time""
""fullscreenenter"",""1"",""9359""
","
","true","false","[]","[]","[]","","","","","","","","","","","","","","","","","","",""
"html-keyboard-response","7","33046","0.0-7.0","1575","2","2","""event"",""trial"",""time""
""fullscreenenter"",""1"",""9359""
","
","
","""event"",""trial"",""time""
""fullscreenenter"",""1"",""9359""
","
","","","","","","4149.70000000007","Welcome to the experiment. Press any key to begin and to advance the instructions."," ","","","","","","","","","","","","","","","",""
"learning-instructions","8","43771","0.0-8.0-0.0-0.0","1575","2","2","""event"",""trial"",""time""
""fullscreenenter"",""1"",""9359""
","
","
","""event"",""trial"",""time""
""fullscreenenter"",""1"",""9359""
","
","","","","","","2967","<p> Welcome! Today you are going to play 6 different rounds of a decision-making game. </p><p> Use the mouse to click next to continue. </p>","","0","instructions","","","","","","","","","","","","","",""
"learning-instructions","9","47780","0.0-8.0-0.0-0.1","1575","2","2","""event"",""trial"",""time""
""fullscreenenter"",""1"",""9359""
","
","
","""event"",""trial"",""time""
""fullscreenenter"",""1"",""9359""
","
","","","","","","1011.1999999999534","<p> You will start with a practice round to learn the rules. </p>","","0","instructions","","","","","","","","","","","","","",""
"learning-instructions","10","56431","0.0-8.0-0.0-0.2","1575","2","2","""event"",""trial"",""time""
""fullscreenenter"",""1"",""9359""
","
","
","""event"",""trial"",""time""
""fullscreenenter"",""1"",""9359""
","
","","","","","","911.3000000000466","<p> Your goal in this round is to deliver sports equipment to three different parks. </p><p> You will need to deliver many types of equipment. </p></div>","","0","instructions","","","","","","","","","","","","","",""
"learning-instructions","11","65479","0.0-8.0-0.0-0.3","1575","2","2","""event"",""trial"",""time""
""fullscreenenter"",""1"",""9359""
","
","
","""event"",""trial"",""time""
""fullscreenenter"",""1"",""9359""
","
","","","","","","557","<p> On each turn, you will see one piece of sports equipment and three different parks.  </p><p> You need to select which park to deliver the equipment to.  </p>","","0","instructions","","","","","","","","","","","","","",""
"learning-instructions","12","85119","0.0-8.0-0.0-0.4","1575","2","2","""event"",""trial"",""time""
""fullscreenenter"",""1"",""9359""
","
","
","""event"",""trial"",""time""
""fullscreenenter"",""1"",""9359""
","
","","","","","","6344.099999999977","<p> You can select the park on the left by pressing the '1' key on your keyboard. <br>You can select the park in the middle by pressing the '2' key on your keyboard. <br>You can select the park on the right by pressing the '3' key on your keyboard.  </p><br><div class=""choice-instructions-grid""> <div class=""choice-option""><img src=""images/park1.png"" class=""choice-option-img"" stage=""instructions"" position=""0"" ><div class=""choice-option-text""> Press ""1."" </div></div><div class=""choice-option""><img src=""images/park2.png"" class=""choice-option-img"" stage=""instructions"" position=""1"" ><div class=""choice-option-text""> Press ""2."" </div></div><div class=""choice-option""><img src=""images/park3.png"" class=""choice-option-img"" stage=""instructions"" position=""2"" ><div class=""choice-option-text""> Press ""3."" </div></div></div>","","0","instructions","","","","","","","","","","","","","",""
"learning-instructions","13","91463","0.0-8.0-0.0-0.5","1575","2","2","""event"",""trial"",""time""
""fullscreenenter"",""1"",""9359""
","
","
","""event"",""trial"",""time""
""fullscreenenter"",""1"",""9359""
","
","","","","","","959.1999999999534","<p> If the kids in the park you chose like the equipment, they will be very happy! </p><div style='float: center;'><img src='images/check.png' width = '200' height = '200'></img>","","0","instructions","","","","","","","","","","","","","",""
"learning-instructions","14","98521","0.0-8.0-0.0-0.6","1575","2","2","""event"",""trial"",""time""
""fullscreenenter"",""1"",""9359""
","
","
","""event"",""trial"",""time""
""fullscreenenter"",""1"",""9359""
","
","","","","","","1475.8999999999069","<p> But, if the kids in the park you chose do not like the equipment, they will be sad. </p><div style='float: center;'><img src='images/x.png' width = '200' height = '200'></img>","","0","instructions","","","","","","","","","","","","","",""
"learning-instructions","15","106068","0.0-8.0-0.0-0.7","1575","2","2","""event"",""trial"",""time""
""fullscreenenter"",""1"",""9359""
","
","
","""event"",""trial"",""time""
""fullscreenenter"",""1"",""9359""
","
","","","","","","1115.1000000000931","<p> Importantly, the kids in each park like some pieces of sports equipment more than others. </p>","","0","instructions","","","","","","","","","","","","","",""
"learning-instructions","16","113038","0.0-8.0-0.0-0.8","1575","2","2","""event"",""trial"",""time""
""fullscreenenter"",""1"",""9359""
","
","
","""event"",""trial"",""time""
""fullscreenenter"",""1"",""9359""
","
","","","","","","913.2000000000698","<p> If you choose the best park for each piece of equipment, the kids there will usually be happy. </p>","","0","instructions","","","","","","","","","","","","","",""
"learning-instructions","17","121194","0.0-8.0-0.0-0.9","1575","2","2","""event"",""trial"",""time""
""fullscreenenter"",""1"",""9359""
","
","
","""event"",""trial"",""time""
""fullscreenenter"",""1"",""9359""
","
","","","","","","1513.5999999999767","<p> However, even if you choose the best park for the equipment, the kids may sometimes be sad. </p>","","0","instructions","","","","","","","","","","","","","",""
"learning-instructions","18","129038","0.0-8.0-0.0-0.10","1575","2","2","""event"",""trial"",""time""
""fullscreenenter"",""1"",""9359""
","
","
","""event"",""trial"",""time""
""fullscreenenter"",""1"",""9359""
","
","","","","","","616.5999999999767","<p> Similarly, even if you choose the <i>wrong</i> park for the equipment, the kids may still be happy sometimes.","","0","instructions","","","","","","","","","","","","","",""
"learning-instructions","19","134956","0.0-8.0-0.0-0.11","1575","2","2","""event"",""trial"",""time""
""fullscreenenter"",""1"",""9359""
","
","
","""event"",""trial"",""time""
""fullscreenenter"",""1"",""9359""
","
","","","","","","868","<p> For example, the best park for this soccer ball is this one.<div style='float: center;'><img src='images/i1.png' width = '500' height = '268'></img>","","0","instructions","","","","","","","","","","","","","",""
"learning-instructions","20","140823","0.0-8.0-0.0-0.12","1575","2","2","""event"",""trial"",""time""
""fullscreenenter"",""1"",""9359""
","
","
","""event"",""trial"",""time""
""fullscreenenter"",""1"",""9359""
","
","","","","","","577.0999999999767","<p> Let's see what happens if you choose this park for the soccer ball five times.","","0","instructions","","","","","","","","","","","","","",""
"learning-instructions","21","143660","0.0-8.0-0.0-0.13","1575","2","2","""event"",""trial"",""time""
""fullscreenenter"",""1"",""9359""
","
","
","""event"",""trial"",""time""
""fullscreenenter"",""1"",""9359""
","
","","","","","","671.5","<p> The kids are happy.<div style='float: left;'><img src='images/i2.png' width = '640' height = '360'></img>","","0","instructions","","","","","","","","","","","","","",""
"learning-instructions","22","146420","0.0-8.0-0.0-0.14","1575","2","2","""event"",""trial"",""time""
""fullscreenenter"",""1"",""9359""
","
","
","""event"",""trial"",""time""
""fullscreenenter"",""1"",""9359""
","
","","","","","","593","<p> The kids are happy.<div style='float: left;'><img src='images/i3.png' width = '640' height = '360'></img>","","0","instructions","","","","","","","","","","","","","",""
"learning-instructions","23","149738","0.0-8.0-0.0-0.15","1575","2","2","""event"",""trial"",""time""
""fullscreenenter"",""1"",""9359""
","
","
","""event"",""trial"",""time""
""fullscreenenter"",""1"",""9359""
","
","","","","","","1146.8000000000466","<p> The kids are happy.<div style='float: left;'><img src='images/i4.png' width = '640' height = '360'></img>","","0","instructions","","","","","","","","","","","","","",""
"learning-instructions","24","158632","0.0-8.0-0.0-0.16","1575","2","2","""event"",""trial"",""time""
""fullscreenenter"",""1"",""9359""
","
","
","""event"",""trial"",""time""
""fullscreenenter"",""1"",""9359""
","
","","","","","","6690","<p> The kids are sad.<div style='float: left;'><img src='images/i5.png' width = '640' height = '360'></img>","","0","instructions","","","","","","","","","","","","","",""
"learning-instructions","25","177845","0.0-8.0-0.0-0.17","1575","2","2","""event"",""trial"",""time""
""fullscreenenter"",""1"",""9359""
","
","
","""event"",""trial"",""time""
""fullscreenenter"",""1"",""9359""
","
","","","","","","17045","<p> The kids are happy.<div style='float: left;'><img src='images/i6.png' width = '640' height = '360'></img>","","0","instructions","","","","","","","","","","","","","",""
"learning-instructions","26","203669","0.0-8.0-0.0-0.18","1575","2","2","""event"",""trial"",""time""
""fullscreenenter"",""1"",""9359""
","
","
","""event"",""trial"",""time""
""fullscreenenter"",""1"",""9359""
","
","","","","","","18559.099999999977","<p> As you can see, selecting that park for the soccer ball made the kids happy most of the time, but not all the time.","","0","instructions","","","","","","","","","","","","","",""
"learning-instructions","27","210132","0.0-8.0-0.0-0.19","1575","2","2","""event"",""trial"",""time""
""fullscreenenter"",""1"",""9359""
","
","
","""event"",""trial"",""time""
""fullscreenenter"",""1"",""9359""
","
","","","","","","465.80000000004657","<p> Now let's see what happens if you choose a DIFFERENT park for the soccer ball 5 times.","","0","instructions","","","","","","","","","","","","","",""
"learning-instructions","28","212971","0.0-8.0-0.0-0.20","1575","2","2","""event"",""trial"",""time""
""fullscreenenter"",""1"",""9359""
","
","
","""event"",""trial"",""time""
""fullscreenenter"",""1"",""9359""
","
","","","","","","636.4000000000233","<p> The kids are sad.<div style='float: left;'><img src='images/i7.png' width = '640' height = '360'></img>","","0","instructions","","","","","","","","","","","","","",""
"learning-instructions","29","215637","0.0-8.0-0.0-0.21","1575","2","2","""event"",""trial"",""time""
""fullscreenenter"",""1"",""9359""
","
","
","""event"",""trial"",""time""
""fullscreenenter"",""1"",""9359""
","
","","","","","","463","<p> The kids are sad.<div style='float: left;'><img src='images/i8.png' width = '640' height = '360'></img>","","0","instructions","","","","","","","","","","","","","",""
"learning-instructions","30","218576","0.0-8.0-0.0-0.22","1575","2","2","""event"",""trial"",""time""
""fullscreenenter"",""1"",""9359""
","
","
","""event"",""trial"",""time""
""fullscreenenter"",""1"",""9359""
","
","","","","","","766.0999999999767","<p> The kids are happy.<div style='float: left;'><img src='images/i9.png' width = '640' height = '360'></img>","","0","instructions","","","","","","","","","","","","","",""
"learning-instructions","31","222879","0.0-8.0-0.0-0.23","1575","2","2","""event"",""trial"",""time""
""fullscreenenter"",""1"",""9359""
","
","
","""event"",""trial"",""time""
""fullscreenenter"",""1"",""9359""
","
","","","","","","2102.4000000000233","<p> The kids are sad.<div style='float: left;'><img src='images/i10.png' width = '640' height = '360'></img>","","0","instructions","","","","","","","","","","","","","",""
"learning-instructions","32","226020","0.0-8.0-0.0-0.24","1575","2","2","""event"",""trial"",""time""
""fullscreenenter"",""1"",""9359""
","
","
","""event"",""trial"",""time""
""fullscreenenter"",""1"",""9359""
","
","","","","","","942.1999999999534","<p> The kids are sad.<div style='float: left;'><img src='images/i11.png' width = '640' height = '360'></img>","","0","instructions","","","","","","","","","","","","","",""
"learning-instructions","33","234702","0.0-8.0-0.0-0.25","1575","2","2","""event"",""trial"",""time""
""fullscreenenter"",""1"",""9359""
","
","
","""event"",""trial"",""time""
""fullscreenenter"",""1"",""9359""
","
","","","","","","553.6999999999534","<p> As you can see, selecting the wrong park for the soccer ball made the kids sad most of the time, but not all the time.","","0","instructions","","","","","","","","","","","","","",""
"learning-instructions","34","244728","0.0-8.0-0.0-0.26","1575","2","2","""event"",""trial"",""time""
""fullscreenenter"",""1"",""9359""
","
","
","""event"",""trial"",""time""
""fullscreenenter"",""1"",""9359""
","
","","","","","","909.5","<p> The different pieces of equipment belong in different parks. You need to try to learn which is the best park for each piece of equipment.","","0","instructions","","","","","","","","","","","","","",""
"learning-instructions","35","262609","0.0-8.0-0.0-0.27","1575","2","2","""event"",""trial"",""time""
""fullscreenenter"",""1"",""9359""
","
","
","""event"",""trial"",""time""
""fullscreenenter"",""1"",""9359""
","
","","","","","","1482.2999999999302","<p> Try to choose the best park for each piece of equipment, because you will <b> WIN </b> 1 point for each time you make the kids happy and <b>LOSE</b> 1 point for each time you make them sad. </p><p> Remember, if you make the best choice, you will win 1 point most of the time, but not all the time. </p>","","0","instructions","","","","","","","","","","","","","",""
"learning-instructions","36","269259","0.0-8.0-0.0-0.28","1575","2","2","""event"",""trial"",""time""
""fullscreenenter"",""1"",""9359""
","
","
","""event"",""trial"",""time""
""fullscreenenter"",""1"",""9359""
","
","","","","","","1173.2999999999302","<p> This is just a practice round, but in the real game, your bonus payment will depend on your total number of points.","","0","instructions","","","","","","","","","","","","","",""
"learning-instructions","37","280519","0.0-8.0-0.0-0.29","1575","2","2","""event"",""trial"",""time""
""fullscreenenter"",""1"",""9359""
","
","
","""event"",""trial"",""time""
""fullscreenenter"",""1"",""9359""
","
","","","","","","940.6999999999534","<p> The position where each park appears will change throughout the game. </p><p> The position where the park appears <i> does not </i> influence how likely the kids are to be happy or sad. </p>","","0","instructions","","","","","","","","","","","","","",""
"learning-instructions","38","291950","0.0-8.0-0.0-0.30","1575","2","2","""event"",""trial"",""time""
""fullscreenenter"",""1"",""9359""
","
","
","""event"",""trial"",""time""
""fullscreenenter"",""1"",""9359""
","
","","","","","","1176.9000000000233","<p> You will have 4 seconds to make each choice. Try to respond before time runs out! </p><p> You will lose 1 point each time you do not make a response. </p>","","0","instructions","","","","","","","","","","","","","",""
"learning-instructions","39","300084","0.0-8.0-0.0-0.31","1575","2","2","""event"",""trial"",""time""
""fullscreenenter"",""1"",""9359""
","
","
","""event"",""trial"",""time""
""fullscreenenter"",""1"",""9359""
","
","","","","","","1337.0999999999767","<p> Remember, you should use the 1, 2, and 3 keys to select the park for each piece of equipment. </p><br><div class=""choice-instructions-grid""> <div class=""choice-option""><img src=""images/park1.png"" class=""choice-option-img"" stage=""instructions"" position=""0"" ><div class=""choice-option-text""> Press ""1."" </div></div><div class=""choice-option""><img src=""images/park2.png"" class=""choice-option-img"" stage=""instructions"" position=""1"" ><div class=""choice-option-text""> Press ""2."" </div></div><div class=""choice-option""><img src=""images/park3.png"" class=""choice-option-img"" stage=""instructions"" position=""2"" ><div class=""choice-option-text""> Press ""3."" </div></div></div>","","0","instructions","","","","","","","","","","","","","",""
"html-button-response","40","301596","0.0-8.0-1.0","1575","2","2","""event"",""trial"",""time""
""fullscreenenter"",""1"",""9359""
","
","
","""event"",""trial"",""time""
""fullscreenenter"",""1"",""9359""
","
","","","","","","1409.6000000000931","<p> Ready to practice? </p>","0","","","","","","","","","","","","","","","",""
"html-keyboard-response","41","302200","0.0-8.0-2.0-0.0","1575","2","2","""event"",""trial"",""time""
""fullscreenenter"",""1"",""9359""
","
","
","""event"",""trial"",""time""
""fullscreenenter"",""1"",""9359""
","
","","","","","","null","<div style=""font-size:60px;"">+</div>","null","","fixation","","","","","","","","","","","","","",""
"learning-trial","42","306204","0.0-8.0-2.0-1.0","1575","2","2","""event"",""trial"",""time""
""fullscreenenter"",""1"",""9359""
","
","
","""event"",""trial"",""time""
""fullscreenenter"",""1"",""9359""
","
","","","","","","2983.5","images/racket1.png","","","practice","images/park3.png","images/park1.png","images/park2.png","[2,0,1]","0","1","2","images/park1.png","1","practice","","","",""
"html-keyboard-response","43","306706","0.0-8.0-2.0-0.1","1575","2","2","""event"",""trial"",""time""
""fullscreenenter"",""1"",""9359""
","
","
","""event"",""trial"",""time""
""fullscreenenter"",""1"",""9359""
","
","","","","","","null","<div style=""font-size:60px;"">+</div>","null","","fixation","","","","","","","","","","","","","",""
"learning-trial","44","310709","0.0-8.0-2.0-1.1","1575","2","2","""event"",""trial"",""time""
""fullscreenenter"",""1"",""9359""
","
","
","""event"",""trial"",""time""
""fullscreenenter"",""1"",""9359""
","
","","","","","","2629.70000000007","images/racket2.png","","","practice","images/park1.png","images/park2.png","images/park3.png","[0,1,2]","2","2","2","images/park2.png","-1","practice","","","",""
"html-keyboard-response","45","311211","0.0-8.0-2.0-0.2","1575","2","2","""event"",""trial"",""time""
""fullscreenenter"",""1"",""9359""
","
","
","""event"",""trial"",""time""
""fullscreenenter"",""1"",""9359""
","
","","","","","","null","<div style=""font-size:60px;"">+</div>","null","","fixation","","","","","","","","","","","","","",""
"learning-trial","46","315215","0.0-8.0-2.0-1.2","1575","2","2","""event"",""trial"",""time""
""fullscreenenter"",""1"",""9359""
","
","
","""event"",""trial"",""time""
""fullscreenenter"",""1"",""9359""
","
","","","","","","1192.1999999999534","images/racket2.png","","","practice","images/park3.png","images/park2.png","images/park1.png","[2,1,0]","2","0","1","images/park3.png","1","practice","","","",""
"html-keyboard-response","47","315716","0.0-8.0-2.0-0.3","1575","2","2","""event"",""trial"",""time""
""fullscreenenter"",""1"",""9359""
","
","
","""event"",""trial"",""time""
""fullscreenenter"",""1"",""9359""
","
","","","","","","null","<div style=""font-size:60px;"">+</div>","null","","fixation","","","","","","","","","","","","","",""
"learning-trial","48","319720","0.0-8.0-2.0-1.3","1575","2","2","""event"",""trial"",""time""
""fullscreenenter"",""1"",""9359""
","
","
","""event"",""trial"",""time""
""fullscreenenter"",""1"",""9359""
","
","","","","","","537.5","images/racket4.png","","","practice","images/park3.png","images/park2.png","images/park1.png","[2,1,0]","2","0","1","images/park3.png","1","practice","","","",""
"html-keyboard-response","49","320222","0.0-8.0-2.0-0.4","1575","2","2","""event"",""trial"",""time""
""fullscreenenter"",""1"",""9359""
","
","
","""event"",""trial"",""time""
""fullscreenenter"",""1"",""9359""
","
","","","","","","null","<div style=""font-size:60px;"">+</div>","null","","fixation","","","","","","","","","","","","","",""
"learning-trial","50","324226","0.0-8.0-2.0-1.4","1575","2","2","""event"",""trial"",""time""
""fullscreenenter"",""1"",""9359""
","
","
","""event"",""trial"",""time""
""fullscreenenter"",""1"",""9359""
","
","","","","","","1926.4000000000233","images/ball3.png","","","practice","images/park1.png","images/park2.png","images/park3.png","[0,1,2]","0","0","3","images/park3.png","-1","practice","","","",""
"html-keyboard-response","51","324728","0.0-8.0-2.0-0.5","1575","2","2","""event"",""trial"",""time""
""fullscreenenter"",""1"",""9359""
","
","
","""event"",""trial"",""time""
""fullscreenenter"",""1"",""9359""
","
","","","","","","null","<div style=""font-size:60px;"">+</div>","null","","fixation","","","","","","","","","","","","","",""
"learning-trial","52","328731","0.0-8.0-2.0-1.5","1575","2","2","""event"",""trial"",""time""
""fullscreenenter"",""1"",""9359""
","
","
","""event"",""trial"",""time""
""fullscreenenter"",""1"",""9359""
","
","","","","","","1854.0999999999767","images/racket3.png","","","practice","images/park2.png","images/park1.png","images/park3.png","[1,0,2]","1","0","3","images/park3.png","1","practice","","","",""
"html-keyboard-response","53","329233","0.0-8.0-2.0-0.6","1575","2","2","""event"",""trial"",""time""
""fullscreenenter"",""1"",""9359""
","
","
","""event"",""trial"",""time""
""fullscreenenter"",""1"",""9359""
","
","","","","","","null","<div style=""font-size:60px;"">+</div>","null","","fixation","","","","","","","","","","","","","",""
"learning-trial","54","333238","0.0-8.0-2.0-1.6","1575","2","2","""event"",""trial"",""time""
""fullscreenenter"",""1"",""9359""
","
","
","""event"",""trial"",""time""
""fullscreenenter"",""1"",""9359""
","
","","","","","","1741.8000000000466","images/racket3.png","","","practice","images/park3.png","images/park1.png","images/park2.png","[2,0,1]","1","2","3","images/park2.png","1","practice","","","",""
"html-keyboard-response","55","333740","0.0-8.0-2.0-0.7","1575","2","2","""event"",""trial"",""time""
""fullscreenenter"",""1"",""9359""
","
","
","""event"",""trial"",""time""
""fullscreenenter"",""1"",""9359""
","
","","","","","","null","<div style=""font-size:60px;"">+</div>","null","","fixation","","","","","","","","","","","","","",""
"learning-trial","56","337744","0.0-8.0-2.0-1.7","1575","2","2","""event"",""trial"",""time""
""fullscreenenter"",""1"",""9359""
","
","
","""event"",""trial"",""time""
""fullscreenenter"",""1"",""9359""
","
","","","","","","1295.9000000000233","images/ball3.png","","","practice","images/park1.png","images/park3.png","images/park2.png","[0,2,1]","0","0","2","images/park3.png","-1","practice","","","",""
"html-keyboard-response","57","338247","0.0-8.0-2.0-0.8","1575","2","2","""event"",""trial"",""time""
""fullscreenenter"",""1"",""9359""
","
","
","""event"",""trial"",""time""
""fullscreenenter"",""1"",""9359""
","
","","","","","","null","<div style=""font-size:60px;"">+</div>","null","","fixation","","","","","","","","","","","","","",""
"learning-trial","58","342251","0.0-8.0-2.0-1.8","1575","2","2","""event"",""trial"",""time""
""fullscreenenter"",""1"",""9359""
","
","
","""event"",""trial"",""time""
""fullscreenenter"",""1"",""9359""
","
","","","","","","1130","images/racket4.png","","","practice","images/park2.png","images/park1.png","images/park3.png","[1,0,2]","2","2","1","images/park2.png","-1","practice","","","",""
"html-keyboard-response","59","342753","0.0-8.0-2.0-0.9","1575","2","2","""event"",""trial"",""time""
""fullscreenenter"",""1"",""9359""
","
","
","""event"",""trial"",""time""
""fullscreenenter"",""1"",""9359""
","
","","","","","","null","<div style=""font-size:60px;"">+</div>","null","","fixation","","","","","","","","","","","","","",""
"learning-trial","60","346758","0.0-8.0-2.0-1.9","1575","2","2","""event"",""trial"",""time""
""fullscreenenter"",""1"",""9359""
","
","
","""event"",""trial"",""time""
""fullscreenenter"",""1"",""9359""
","
","","","","","","421.5","images/racket1.png","","","practice","images/park3.png","images/park2.png","images/park1.png","[2,1,0]","0","2","2","images/park2.png","-1","practice","","","",""
"html-keyboard-response","61","347260","0.0-8.0-2.0-0.10","1575","2","2","""event"",""trial"",""time""
""fullscreenenter"",""1"",""9359""
","
","
","""event"",""trial"",""time""
""fullscreenenter"",""1"",""9359""
","
","","","","","","null","<div style=""font-size:60px;"">+</div>","null","","fixation","","","","","","","","","","","","","",""
"learning-trial","62","351263","0.0-8.0-2.0-1.10","1575","2","2","""event"",""trial"",""time""
""fullscreenenter"",""1"",""9359""
","
","
","""event"",""trial"",""time""
""fullscreenenter"",""1"",""9359""
","
","","","","","","1760.0999999999767","images/ball4.png","","","practice","images/park2.png","images/park1.png","images/park3.png","[1,0,2]","1","0","2","images/park1.png","-1","practice","","","",""
"html-keyboard-response","63","351766","0.0-8.0-2.0-0.11","1575","2","2","""event"",""trial"",""time""
""fullscreenenter"",""1"",""9359""
","
","
","""event"",""trial"",""time""
""fullscreenenter"",""1"",""9359""
","
","","","","","","null","<div style=""font-size:60px;"">+</div>","null","","fixation","","","","","","","","","","","","","",""
"learning-trial","64","355769","0.0-8.0-2.0-1.11","1575","2","2","""event"",""trial"",""time""
""fullscreenenter"",""1"",""9359""
","
","
","""event"",""trial"",""time""
""fullscreenenter"",""1"",""9359""
","
","","","","","","1347.5999999999767","images/ball4.png","","","practice","images/park1.png","images/park2.png","images/park3.png","[0,1,2]","1","1","1","images/park1.png","1","practice","","","",""
"html-button-response","65","357842","0.0-8.0-3.0","1575","2","2","""event"",""trial"",""time""
""fullscreenenter"",""1"",""9359""
""fullscreenexit"",""66"",""366301""
","
","
","""event"",""trial"",""time""
""fullscreenenter"",""1"",""9359""
","""event"",""trial"",""time""
""fullscreenexit"",""66"",""366301""
","","","","","","2070.1999999999534","<p> You earned 0 points in the practice round! </p>","0","","break","","","","","","","","","","","","","",""
"learning-instructions","66","374706","0.0-8.0-4.0-0.0","1575","2","2","""event"",""trial"",""time""
""fullscreenenter"",""1"",""9359""
""fullscreenexit"",""66"",""366301""
","
","
","""event"",""trial"",""time""
""fullscreenenter"",""1"",""9359""
","""event"",""trial"",""time""
""fullscreenexit"",""66"",""366301""
","","","","","","9104","<p> It's almost time to start the real game. </p><p> Before you start, we're going to ask you a few questions about how the game works. </p>","","0","instructions","","","","","","","","","","","","","",""
"preload","67","376311","0.0-8.0-5.0","1575","2","2","""event"",""trial"",""time""
""fullscreenenter"",""1"",""9359""
""fullscreenexit"",""66"",""366301""
","
","
","""event"",""trial"",""time""
""fullscreenenter"",""1"",""9359""
","""event"",""trial"",""time""
""fullscreenexit"",""66"",""366301""
","true","false","[]","[]","[]","","","","","","","","","","","","","","","","","","",""
"comp-q","68","382587","0.0-8.0-6.0-0.0","1575","2","2","""event"",""trial"",""time""
""fullscreenenter"",""1"",""9359""
""fullscreenexit"",""66"",""366301""
","
","
","""event"",""trial"",""time""
""fullscreenenter"",""1"",""9359""
","""event"",""trial"",""time""
""fullscreenexit"",""66"",""366301""
","","","","","","826.1999999999534","<p> <b> True or False? </b> </p><p> If you choose the best option, you will always earn 1 point. </p>","","0","comp_question","","","","","","","","","","","false","","",""
"comp-q","69","389439","0.0-8.0-6.0-1.0","1575","2","2","""event"",""trial"",""time""
""fullscreenenter"",""1"",""9359""
""fullscreenexit"",""66"",""366301""
","
","
","""event"",""trial"",""time""
""fullscreenenter"",""1"",""9359""
","""event"",""trial"",""time""
""fullscreenexit"",""66"",""366301""
","","","","","","1297.1000000000931","<p><b> Incorrect. </b> Sometimes you will lose 1 point, even if you choose the best option. </p>","","0","comp_answer","","","","","","","","","","","","","",""
"comp-q","70","394747","0.0-8.0-6.0-0.1","1575","2","2","""event"",""trial"",""time""
""fullscreenenter"",""1"",""9359""
""fullscreenexit"",""66"",""366301""
","
","
","""event"",""trial"",""time""
""fullscreenenter"",""1"",""9359""
","""event"",""trial"",""time""
""fullscreenexit"",""66"",""366301""
","","","","","","672.4000000000233","<p> <b> True or False? </b> </p><p> You will have as much time as you want to make each choice. </p>","","1","comp_question","","","","","","","","","","","true","","",""
"comp-q","71","400488","0.0-8.0-6.0-1.1","1575","2","2","""event"",""trial"",""time""
""fullscreenenter"",""1"",""9359""
""fullscreenexit"",""66"",""366301""
","
","
","""event"",""trial"",""time""
""fullscreenenter"",""1"",""9359""
","""event"",""trial"",""time""
""fullscreenexit"",""66"",""366301""
","","","","","","926.3999999999069","<p> <b> That's right! </b> You will only have 4 seconds to make each choice. </p>","","0","comp_answer","","","","","","","","","","","","","",""
"comp-q","72","407365","0.0-8.0-6.0-0.2","1575","2","2","""event"",""trial"",""time""
""fullscreenenter"",""1"",""9359""
""fullscreenexit"",""66"",""366301""
","
","
","""event"",""trial"",""time""
""fullscreenenter"",""1"",""9359""
","""event"",""trial"",""time""
""fullscreenexit"",""66"",""366301""
","","","","","","728.5","<p> <b> True or False? </b> </p><p> You should use the '1', '2', and '3' keys to make your choices. </p>","","0","comp_question","","","","","","","","","","","true","","",""
"comp-q","73","413383","0.0-8.0-6.0-1.2","1575","2","2","""event"",""trial"",""time""
""fullscreenenter"",""1"",""9359""
""fullscreenexit"",""66"",""366301""
","
","
","""event"",""trial"",""time""
""fullscreenenter"",""1"",""9359""
","""event"",""trial"",""time""
""fullscreenexit"",""66"",""366301""
","","","","","","1165","<p> <b> That's right! </b> You should use the '1', '2', and '3' keys to make each choice. </p>","","0","comp_answer","","","","","","","","","","","","","",""
"learning-instructions","74","423576","0.0-8.0-7.0-0.0","1575","2","2","""event"",""trial"",""time""
""fullscreenenter"",""1"",""9359""
""fullscreenexit"",""66"",""366301""
","
","
","""event"",""trial"",""time""
""fullscreenenter"",""1"",""9359""
","""event"",""trial"",""time""
""fullscreenexit"",""66"",""366301""
","","","","","","1699.5999999999767","<p> It's now time to start the real game. </p>Do your best, because the points you earn in the next rounds will influence your bonus payment. </p>","","0","instructions","","","","","","","","","","","","","",""
"preload","75","425898","0.0-9.0-0.0","1575","2","2","""event"",""trial"",""time""
""fullscreenenter"",""1"",""9359""
""fullscreenexit"",""66"",""366301""
","
","
","""event"",""trial"",""time""
""fullscreenenter"",""1"",""9359""
","""event"",""trial"",""time""
""fullscreenexit"",""66"",""366301""
","true","false","[]","[]","[]","","","","","","","","","","","","","","","","","","",""
"learning-instructions","76","435981","0.0-9.0-1.0-0.0","1575","2","2","""event"",""trial"",""time""
""fullscreenenter"",""1"",""9359""
""fullscreenexit"",""66"",""366301""
","
","
","""event"",""trial"",""time""
""fullscreenenter"",""1"",""9359""
","""event"",""trial"",""time""
""fullscreenexit"",""66"",""366301""
","","","","","","2419","<p> Your goal in this round is to return farm animals to the barns where they live. </p><p>  Different animals wandered away from different barns! </p></div>","","0","instructions","","","","","","","","","","","","","",""
"learning-instructions","77","445549","0.0-9.0-1.0-0.1","1575","2","2","""event"",""trial"",""time""
""fullscreenenter"",""1"",""9359""
""fullscreenexit"",""66"",""366301""
","
","
","""event"",""trial"",""time""
""fullscreenenter"",""1"",""9359""
","""event"",""trial"",""time""
""fullscreenexit"",""66"",""366301""
","","","","","","941.9000000000233","<p> On each turn, you will see a picture of a farm animal and three different barns.  </p><p> You need to select the barn where each animal lives.  </p>","","0","instructions","","","","","","","","","","","","","",""
"learning-instructions","78","453423","0.0-9.0-1.0-0.2","1575","2","2","""event"",""trial"",""time""
""fullscreenenter"",""1"",""9359""
""fullscreenexit"",""66"",""366301""
","
","
","""event"",""trial"",""time""
""fullscreenenter"",""1"",""9359""
","""event"",""trial"",""time""
""fullscreenexit"",""66"",""366301""
","","","","","","682.8000000000466","<p> You can select the barn on the left by pressing 1, the barn in the middle by pressing 2, and the barn on the right by pressing 3. </p><br><div class=""choice-instructions-grid""> <div class=""choice-option""><img src=""images/animals_choice1.png"" class=""choice-option-img"" stage=""instructions"" position=""0"" ><div class=""choice-option-text""> Press ""1."" </div></div><div class=""choice-option""><img src=""images/animals_choice2.png"" class=""choice-option-img"" stage=""instructions"" position=""1"" ><div class=""choice-option-text""> Press ""2."" </div></div><div class=""choice-option""><img src=""images/animals_choice3.png"" class=""choice-option-img"" stage=""instructions"" position=""2"" ><div class=""choice-option-text""> Press ""3."" </div></div></div>","","0","instructions","","","","","","","","","","","","","",""
"learning-instructions","79","459427","0.0-9.0-1.0-0.3","1575","2","2","""event"",""trial"",""time""
""fullscreenenter"",""1"",""9359""
""fullscreenexit"",""66"",""366301""
","
","
","""event"",""trial"",""time""
""fullscreenenter"",""1"",""9359""
","""event"",""trial"",""time""
""fullscreenexit"",""66"",""366301""
","","","","","","870.5999999999767","<p> If you return the farm animal to the correct barn, it will usually be happy! </p><div style='float: center;'><img src='images/check.png' width = '200' height = '200'></img>","","0","instructions","","","","","","","","","","","","","",""
"learning-instructions","80","465643","0.0-9.0-1.0-0.4","1575","2","2","""event"",""trial"",""time""
""fullscreenenter"",""1"",""9359""
""fullscreenexit"",""66"",""366301""
","
","
","""event"",""trial"",""time""
""fullscreenenter"",""1"",""9359""
","""event"",""trial"",""time""
""fullscreenexit"",""66"",""366301""
","","","","","","918.9000000000233","<p> But, if you return the farm animal to the wrong barn, it will usually be sad. </p><div style='float: center;'><img src='images/x.png' width = '200' height = '200'></img>","","0","instructions","","","","","","","","","","","","","",""
"learning-instructions","81","477281","0.0-9.0-1.0-0.5","1575","2","2","""event"",""trial"",""time""
""fullscreenenter"",""1"",""9359""
""fullscreenexit"",""66"",""366301""
","
","
","""event"",""trial"",""time""
""fullscreenenter"",""1"",""9359""
","""event"",""trial"",""time""
""fullscreenexit"",""66"",""366301""
","","","","","","1084.5999999999767","<p> Importantly, each farm animal belongs in one of the barns. </p><p> If you choose the correct barn, the farm animal will return home safely and will be more likely to be happy! </p>","","0","instructions","","","","","","","","","","","","","",""
"learning-instructions","82","488366","0.0-9.0-1.0-0.6","1575","2","2","""event"",""trial"",""time""
""fullscreenenter"",""1"",""9359""
""fullscreenexit"",""66"",""366301""
","
","
","""event"",""trial"",""time""
""fullscreenenter"",""1"",""9359""
","""event"",""trial"",""time""
""fullscreenexit"",""66"",""366301""
","","","","","","558.5999999999767","<p> However, even if you choose the correct barn for the farm animal, it might still feel sad. </p><p> Similarly, even if you choose the <i>wrong</i> barn, it might still feel happy.","","0","instructions","","","","","","","","","","","","","",""
"learning-instructions","83","502688","0.0-9.0-1.0-0.7","1575","2","2","""event"",""trial"",""time""
""fullscreenenter"",""1"",""9359""
""fullscreenexit"",""66"",""366301""
","
","
","""event"",""trial"",""time""
""fullscreenenter"",""1"",""9359""
","""event"",""trial"",""time""
""fullscreenexit"",""66"",""366301""
","","","","","","611.6999999999534","<p> Try to choose the correct barn for each farm animal, because you will <b> WIN </b> 1 point for each farm animal you make happy and <b>LOSE</b> 1 point for each farm animal you make sad. </p><p> Your bonus payment will depend on your total number of points.","","0","instructions","","","","","","","","","","","","","",""
"learning-instructions","84","511310","0.0-9.0-1.0-0.8","1575","2","2","""event"",""trial"",""time""
""fullscreenenter"",""1"",""9359""
""fullscreenexit"",""66"",""366301""
","
","
","""event"",""trial"",""time""
""fullscreenenter"",""1"",""9359""
","""event"",""trial"",""time""
""fullscreenexit"",""66"",""366301""
","","","","","","504.5999999998603","<p> The position of each barn will change throughout the round. </p><p> The barn's position <i> does not </i> influence how likely it is to be the correct one. </p>","","0","instructions","","","","","","","","","","","","","",""
"learning-instructions","85","521178","0.0-9.0-1.0-0.9","1575","2","2","""event"",""trial"",""time""
""fullscreenenter"",""1"",""9359""
""fullscreenexit"",""66"",""366301""
","
","
","""event"",""trial"",""time""
""fullscreenenter"",""1"",""9359""
","""event"",""trial"",""time""
""fullscreenexit"",""66"",""366301""
","","","","","","565.1999999999534","<p> You will have 4 seconds to make each choice. Try to respond before time runs out! </p><p> You will lose 1 point each time you do not make a response. </p>","","0","instructions","","","","","","","","","","","","","",""
"html-keyboard-response","86","521781","0.0-9.0-2.0-0.0","1575","2","2","""event"",""trial"",""time""
""fullscreenenter"",""1"",""9359""
""fullscreenexit"",""66"",""366301""
","
","
","""event"",""trial"",""time""
""fullscreenenter"",""1"",""9359""
","""event"",""trial"",""time""
""fullscreenexit"",""66"",""366301""
","","","","","","null","<div style=""font-size:60px;"">+</div>","null","","fixation","","","","","","","","","","","","","",""
"learning-trial","87","525785","0.0-9.0-2.0-1.0","1575","2","2","""event"",""trial"",""time""
""fullscreenenter"",""1"",""9359""
""fullscreenexit"",""66"",""366301""
","
","
","""event"",""trial"",""time""
""fullscreenenter"",""1"",""9359""
","""event"",""trial"",""time""
""fullscreenexit"",""66"",""366301""
","","","","","","2048.3000000000466","images/cow5.png","","","learning","images/animals_choice1.png","images/animals_choice3.png","images/animals_choice2.png","[0,2,1]","0","0","1","images/animals_choice1.png","1","animals","","cow","2","0"
"html-keyboard-response","88","526286","0.0-9.0-2.0-0.1","1575","2","2","""event"",""trial"",""time""
""fullscreenenter"",""1"",""9359""
""fullscreenexit"",""66"",""366301""
","
","
","""event"",""trial"",""time""
""fullscreenenter"",""1"",""9359""
","""event"",""trial"",""time""
""fullscreenexit"",""66"",""366301""
","","","","","","null","<div style=""font-size:60px;"">+</div>","null","","fixation","","","","","","","","","","","","","",""
"learning-trial","89","530291","0.0-9.0-2.0-1.1","1575","2","2","""event"",""trial"",""time""
""fullscreenenter"",""1"",""9359""
""fullscreenexit"",""66"",""366301""
","
","
","""event"",""trial"",""time""
""fullscreenenter"",""1"",""9359""
","""event"",""trial"",""time""
""fullscreenexit"",""66"",""366301""
","","","","","","1160.1000000000931","images/cow5.png","","","learning","images/animals_choice1.png","images/animals_choice3.png","images/animals_choice2.png","[0,2,1]","0","0","1","images/animals_choice1.png","-1","animals","","cow","2","0"
"html-keyboard-response","90","530792","0.0-9.0-2.0-0.2","1575","2","2","""event"",""trial"",""time""
""fullscreenenter"",""1"",""9359""
""fullscreenexit"",""66"",""366301""
","
","
","""event"",""trial"",""time""
""fullscreenenter"",""1"",""9359""
","""event"",""trial"",""time""
""fullscreenexit"",""66"",""366301""
","","","","","","null","<div style=""font-size:60px;"">+</div>","null","","fixation","","","","","","","","","","","","","",""
"learning-trial","91","534796","0.0-9.0-2.0-1.2","1575","2","2","""event"",""trial"",""time""
""fullscreenenter"",""1"",""9359""
""fullscreenexit"",""66"",""366301""
","
","
","""event"",""trial"",""time""
""fullscreenenter"",""1"",""9359""
","""event"",""trial"",""time""
""fullscreenexit"",""66"",""366301""
","","","","","","604.8000000000466","images/cow5.png","","","learning","images/animals_choice1.png","images/animals_choice2.png","images/animals_choice3.png","[0,1,2]","0","0","1","images/animals_choice1.png","1","animals","","cow","2","0"
"html-keyboard-response","92","535298","0.0-9.0-2.0-0.3","1575","2","2","""event"",""trial"",""time""
""fullscreenenter"",""1"",""9359""
""fullscreenexit"",""66"",""366301""
","
","
","""event"",""trial"",""time""
""fullscreenenter"",""1"",""9359""
","""event"",""trial"",""time""
""fullscreenexit"",""66"",""366301""
","","","","","","null","<div style=""font-size:60px;"">+</div>","null","","fixation","","","","","","","","","","","","","",""
"learning-trial","93","539302","0.0-9.0-2.0-1.3","1575","2","2","""event"",""trial"",""time""
""fullscreenenter"",""1"",""9359""
""fullscreenexit"",""66"",""366301""
","
","
","""event"",""trial"",""time""
""fullscreenenter"",""1"",""9359""
","""event"",""trial"",""time""
""fullscreenexit"",""66"",""366301""
","","","","","","2766.9000000001397","images/horse1.png","","","learning","images/animals_choice2.png","images/animals_choice3.png","images/animals_choice1.png","[1,2,0]","1","0","2","images/animals_choice3.png","-1","animals","","horse","2","0"
"html-keyboard-response","94","539804","0.0-9.0-2.0-0.4","1575","2","2","""event"",""trial"",""time""
""fullscreenenter"",""1"",""9359""
""fullscreenexit"",""66"",""366301""
","
","
","""event"",""trial"",""time""
""fullscreenenter"",""1"",""9359""
","""event"",""trial"",""time""
""fullscreenexit"",""66"",""366301""
","","","","","","null","<div style=""font-size:60px;"">+</div>","null","","fixation","","","","","","","","","","","","","",""
"learning-trial","95","543808","0.0-9.0-2.0-1.4","1575","2","2","""event"",""trial"",""time""
""fullscreenenter"",""1"",""9359""
""fullscreenexit"",""66"",""366301""
","
","
","""event"",""trial"",""time""
""fullscreenenter"",""1"",""9359""
","""event"",""trial"",""time""
""fullscreenexit"",""66"",""366301""
","","","","","","1365.1000000000931","images/horse5.png","","","learning","images/animals_choice2.png","images/animals_choice1.png","images/animals_choice3.png","[1,0,2]","2","2","1","images/animals_choice2.png","1","animals","","horse","2","0"
"html-keyboard-response","96","544310","0.0-9.0-2.0-0.5","1575","2","2","""event"",""trial"",""time""
""fullscreenenter"",""1"",""9359""
""fullscreenexit"",""66"",""366301""
","
","
","""event"",""trial"",""time""
""fullscreenenter"",""1"",""9359""
","""event"",""trial"",""time""
""fullscreenexit"",""66"",""366301""
","","","","","","null","<div style=""font-size:60px;"">+</div>","null","","fixation","","","","","","","","","","","","","",""
"learning-trial","97","548314","0.0-9.0-2.0-1.5","1575","2","2","""event"",""trial"",""time""
""fullscreenenter"",""1"",""9359""
""fullscreenexit"",""66"",""366301""
","
","
","""event"",""trial"",""time""
""fullscreenenter"",""1"",""9359""
","""event"",""trial"",""time""
""fullscreenexit"",""66"",""366301""
","","","","","","875.1000000000931","images/sheep5.png","","","learning","images/animals_choice2.png","images/animals_choice1.png","images/animals_choice3.png","[1,0,2]","1","0","2","images/animals_choice1.png","-1","animals","","sheep","2","0"
"html-keyboard-response","98","548816","0.0-9.0-2.0-0.6","1575","2","2","""event"",""trial"",""time""
""fullscreenenter"",""1"",""9359""
""fullscreenexit"",""66"",""366301""
","
","
","""event"",""trial"",""time""
""fullscreenenter"",""1"",""9359""
","""event"",""trial"",""time""
""fullscreenexit"",""66"",""366301""
","","","","","","null","<div style=""font-size:60px;"">+</div>","null","","fixation","","","","","","","","","","","","","",""
"learning-trial","99","552819","0.0-9.0-2.0-1.6","1575","2","2","""event"",""trial"",""time""
""fullscreenenter"",""1"",""9359""
""fullscreenexit"",""66"",""366301""
","
","
","""event"",""trial"",""time""
""fullscreenenter"",""1"",""9359""
","""event"",""trial"",""time""
""fullscreenexit"",""66"",""366301""
","","","","","","1331","images/sheep3.png","","","learning","images/animals_choice1.png","images/animals_choice3.png","images/animals_choice2.png","[0,2,1]","2","1","3","images/animals_choice2.png","-1","animals","","sheep","2","0"
"html-keyboard-response","100","553320","0.0-9.0-2.0-0.7","1575","2","2","""event"",""trial"",""time""
""fullscreenenter"",""1"",""9359""
""fullscreenexit"",""66"",""366301""
","
","
","""event"",""trial"",""time""
""fullscreenenter"",""1"",""9359""
","""event"",""trial"",""time""
""fullscreenexit"",""66"",""366301""
","","","","","","null","<div style=""font-size:60px;"">+</div>","null","","fixation","","","","","","","","","","","","","",""
"learning-trial","101","557323","0.0-9.0-2.0-1.7","1575","2","2","""event"",""trial"",""time""
""fullscreenenter"",""1"",""9359""
""fullscreenexit"",""66"",""366301""
","
","
","""event"",""trial"",""time""
""fullscreenenter"",""1"",""9359""
","""event"",""trial"",""time""
""fullscreenexit"",""66"",""366301""
","","","","","","1263.3000000000466","images/sheep5.png","","","learning","images/animals_choice3.png","images/animals_choice1.png","images/animals_choice2.png","[2,0,1]","1","2","3","images/animals_choice2.png","1","animals","","sheep","2","0"
"html-keyboard-response","102","557825","0.0-9.0-2.0-0.8","1575","2","2","""event"",""trial"",""time""
""fullscreenenter"",""1"",""9359""
""fullscreenexit"",""66"",""366301""
","
","
","""event"",""trial"",""time""
""fullscreenenter"",""1"",""9359""
","""event"",""trial"",""time""
""fullscreenexit"",""66"",""366301""
","","","","","","null","<div style=""font-size:60px;"">+</div>","null","","fixation","","","","","","","","","","","","","",""
"learning-trial","103","561828","0.0-9.0-2.0-1.8","1575","2","2","""event"",""trial"",""time""
""fullscreenenter"",""1"",""9359""
""fullscreenexit"",""66"",""366301""
","
","
","""event"",""trial"",""time""
""fullscreenenter"",""1"",""9359""
","""event"",""trial"",""time""
""fullscreenexit"",""66"",""366301""
","","","","","","1316.6999999999534","images/horse1.png","","","learning","images/animals_choice1.png","images/animals_choice2.png","images/animals_choice3.png","[0,1,2]","1","1","1","images/animals_choice1.png","-1","animals","","horse","2","0"
"html-keyboard-response","104","562329","0.0-9.0-2.0-0.9","1575","2","2","""event"",""trial"",""time""
""fullscreenenter"",""1"",""9359""
""fullscreenexit"",""66"",""366301""
","
","
","""event"",""trial"",""time""
""fullscreenenter"",""1"",""9359""
","""event"",""trial"",""time""
""fullscreenexit"",""66"",""366301""
","","","","","","null","<div style=""font-size:60px;"">+</div>","null","","fixation","","","","","","","","","","","","","",""
"learning-trial","105","566333","0.0-9.0-2.0-1.9","1575","2","2","""event"",""trial"",""time""
""fullscreenenter"",""1"",""9359""
""fullscreenexit"",""66"",""366301""
","
","
","""event"",""trial"",""time""
""fullscreenenter"",""1"",""9359""
","""event"",""trial"",""time""
""fullscreenexit"",""66"",""366301""
","","","","","","1906.1999999999534","images/cow5.png","","","learning","images/animals_choice3.png","images/animals_choice2.png","images/animals_choice1.png","[2,1,0]","0","2","3","images/animals_choice1.png","1","animals","","cow","2","0"
"html-keyboard-response","106","566835","0.0-9.0-2.0-0.10","1575","2","2","""event"",""trial"",""time""
""fullscreenenter"",""1"",""9359""
""fullscreenexit"",""66"",""366301""
","
","
","""event"",""trial"",""time""
""fullscreenenter"",""1"",""9359""
","""event"",""trial"",""time""
""fullscreenexit"",""66"",""366301""
","","","","","","null","<div style=""font-size:60px;"">+</div>","null","","fixation","","","","","","","","","","","","","",""
"learning-trial","107","570838","0.0-9.0-2.0-1.10","1575","2","2","""event"",""trial"",""time""
""fullscreenenter"",""1"",""9359""
""fullscreenexit"",""66"",""366301""
","
","
","""event"",""trial"",""time""
""fullscreenenter"",""1"",""9359""
","""event"",""trial"",""time""
""fullscreenexit"",""66"",""366301""
","","","","","","1448.8000000000466","images/cow4.png","","","learning","images/animals_choice3.png","images/animals_choice1.png","images/animals_choice2.png","[2,0,1]","2","0","3","images/animals_choice2.png","-1","animals","","cow","2","0"
"html-keyboard-response","108","571339","0.0-9.0-2.0-0.11","1575","2","2","""event"",""trial"",""time""
""fullscreenenter"",""1"",""9359""
""fullscreenexit"",""66"",""366301""
","
","
","""event"",""trial"",""time""
""fullscreenenter"",""1"",""9359""
","""event"",""trial"",""time""
""fullscreenexit"",""66"",""366301""
","","","","","","null","<div style=""font-size:60px;"">+</div>","null","","fixation","","","","","","","","","","","","","",""
"learning-trial","109","575342","0.0-9.0-2.0-1.11","1575","2","2","""event"",""trial"",""time""
""fullscreenenter"",""1"",""9359""
""fullscreenexit"",""66"",""366301""
","
","
","""event"",""trial"",""time""
""fullscreenenter"",""1"",""9359""
","""event"",""trial"",""time""
""fullscreenexit"",""66"",""366301""
","","","","","","1767.3999999999069","images/sheep5.png","","","learning","images/animals_choice1.png","images/animals_choice3.png","images/animals_choice2.png","[0,2,1]","1","2","3","images/animals_choice2.png","1","animals","","sheep","2","0"
"html-keyboard-response","110","575844","0.0-9.0-2.0-0.12","1575","2","2","""event"",""trial"",""time""
""fullscreenenter"",""1"",""9359""
""fullscreenexit"",""66"",""366301""
","
","
","""event"",""trial"",""time""
""fullscreenenter"",""1"",""9359""
","""event"",""trial"",""time""
""fullscreenexit"",""66"",""366301""
","","","","","","null","<div style=""font-size:60px;"">+</div>","null","","fixation","","","","","","","","","","","","","",""
"learning-trial","111","579847","0.0-9.0-2.0-1.12","1575","2","2","""event"",""trial"",""time""
""fullscreenenter"",""1"",""9359""
""fullscreenexit"",""66"",""366301""
","
","
","""event"",""trial"",""time""
""fullscreenenter"",""1"",""9359""
","""event"",""trial"",""time""
""fullscreenexit"",""66"",""366301""
","","","","","","1006.1999999999534","images/sheep3.png","","","learning","images/animals_choice3.png","images/animals_choice2.png","images/animals_choice1.png","[2,1,0]","2","0","1","images/animals_choice3.png","1","animals","","sheep","2","0"
"html-keyboard-response","112","580349","0.0-9.0-2.0-0.13","1575","2","2","""event"",""trial"",""time""
""fullscreenenter"",""1"",""9359""
""fullscreenexit"",""66"",""366301""
","
","
","""event"",""trial"",""time""
""fullscreenenter"",""1"",""9359""
","""event"",""trial"",""time""
""fullscreenexit"",""66"",""366301""
","","","","","","null","<div style=""font-size:60px;"">+</div>","null","","fixation","","","","","","","","","","","","","",""
"learning-trial","113","584352","0.0-9.0-2.0-1.13","1575","2","2","""event"",""trial"",""time""
""fullscreenenter"",""1"",""9359""
""fullscreenexit"",""66"",""366301""
","
","
","""event"",""trial"",""time""
""fullscreenenter"",""1"",""9359""
","""event"",""trial"",""time""
""fullscreenexit"",""66"",""366301""
","","","","","","2003.2999999998137","images/horse1.png","","","learning","images/animals_choice2.png","images/animals_choice1.png","images/animals_choice3.png","[1,0,2]","1","0","2","images/animals_choice1.png","-1","animals","","horse","2","0"
"html-keyboard-response","114","584854","0.0-9.0-2.0-0.14","1575","2","2","""event"",""trial"",""time""
""fullscreenenter"",""1"",""9359""
""fullscreenexit"",""66"",""366301""
","
","
","""event"",""trial"",""time""
""fullscreenenter"",""1"",""9359""
","""event"",""trial"",""time""
""fullscreenexit"",""66"",""366301""
","","","","","","null","<div style=""font-size:60px;"">+</div>","null","","fixation","","","","","","","","","","","","","",""
"learning-trial","115","588857","0.0-9.0-2.0-1.14","1575","2","2","""event"",""trial"",""time""
""fullscreenenter"",""1"",""9359""
""fullscreenexit"",""66"",""366301""
","
","
","""event"",""trial"",""time""
""fullscreenenter"",""1"",""9359""
","""event"",""trial"",""time""
""fullscreenexit"",""66"",""366301""
","","","","","","1073","images/horse1.png","","","learning","images/animals_choice3.png","images/animals_choice2.png","images/animals_choice1.png","[2,1,0]","1","1","3","images/animals_choice1.png","-1","animals","","horse","2","0"
"html-keyboard-response","116","589359","0.0-9.0-2.0-0.15","1575","2","2","""event"",""trial"",""time""
""fullscreenenter"",""1"",""9359""
""fullscreenexit"",""66"",""366301""
","
","
","""event"",""trial"",""time""
""fullscreenenter"",""1"",""9359""
","""event"",""trial"",""time""
""fullscreenexit"",""66"",""366301""
","","","","","","null","<div style=""font-size:60px;"">+</div>","null","","fixation","","","","","","","","","","","","","",""
"learning-trial","117","593362","0.0-9.0-2.0-1.15","1575","2","2","""event"",""trial"",""time""
""fullscreenenter"",""1"",""9359""
""fullscreenexit"",""66"",""366301""
","
","
","""event"",""trial"",""time""
""fullscreenenter"",""1"",""9359""
","""event"",""trial"",""time""
""fullscreenexit"",""66"",""366301""
","","","","","","1676.8000000000466","images/sheep5.png","","","learning","images/animals_choice1.png","images/animals_choice3.png","images/animals_choice2.png","[0,2,1]","1","2","3","images/animals_choice2.png","1","animals","","sheep","2","0"
"html-keyboard-response","118","593863","0.0-9.0-2.0-0.16","1575","2","2","""event"",""trial"",""time""
""fullscreenenter"",""1"",""9359""
""fullscreenexit"",""66"",""366301""
","
","
","""event"",""trial"",""time""
""fullscreenenter"",""1"",""9359""
","""event"",""trial"",""time""
""fullscreenexit"",""66"",""366301""
","","","","","","null","<div style=""font-size:60px;"">+</div>","null","","fixation","","","","","","","","","","","","","",""
"learning-trial","119","597866","0.0-9.0-2.0-1.16","1575","2","2","""event"",""trial"",""time""
""fullscreenenter"",""1"",""9359""
""fullscreenexit"",""66"",""366301""
","
","
","""event"",""trial"",""time""
""fullscreenenter"",""1"",""9359""
","""event"",""trial"",""time""
""fullscreenexit"",""66"",""366301""
","","","","","","2233.6999999999534","images/cow1.png","","","learning","images/animals_choice2.png","images/animals_choice3.png","images/animals_choice1.png","[1,2,0]","1","0","3","images/animals_choice1.png","-1","animals","","cow","2","0"
"html-keyboard-response","120","598368","0.0-9.0-2.0-0.17","1575","2","2","""event"",""trial"",""time""
""fullscreenenter"",""1"",""9359""
""fullscreenexit"",""66"",""366301""
","
","
","""event"",""trial"",""time""
""fullscreenenter"",""1"",""9359""
","""event"",""trial"",""time""
""fullscreenexit"",""66"",""366301""
","","","","","","null","<div style=""font-size:60px;"">+</div>","null","","fixation","","","","","","","","","","","","","",""
"learning-trial","121","602372","0.0-9.0-2.0-1.17","1575","2","2","""event"",""trial"",""time""
""fullscreenenter"",""1"",""9359""
""fullscreenexit"",""66"",""366301""
","
","
","""event"",""trial"",""time""
""fullscreenenter"",""1"",""9359""
","""event"",""trial"",""time""
""fullscreenexit"",""66"",""366301""
","","","","","","1400.4000000001397","images/sheep2.png","","","learning","images/animals_choice3.png","images/animals_choice2.png","images/animals_choice1.png","[2,1,0]","0","2","1","images/animals_choice3.png","-1","animals","","sheep","2","0"
"html-keyboard-response","122","602874","0.0-9.0-2.0-0.18","1575","2","2","""event"",""trial"",""time""
""fullscreenenter"",""1"",""9359""
""fullscreenexit"",""66"",""366301""
","
","
","""event"",""trial"",""time""
""fullscreenenter"",""1"",""9359""
","""event"",""trial"",""time""
""fullscreenexit"",""66"",""366301""
","","","","","","null","<div style=""font-size:60px;"">+</div>","null","","fixation","","","","","","","","","","","","","",""
"learning-trial","123","606877","0.0-9.0-2.0-1.18","1575","2","2","""event"",""trial"",""time""
""fullscreenenter"",""1"",""9359""
""fullscreenexit"",""66"",""366301""
","
","
","""event"",""trial"",""time""
""fullscreenenter"",""1"",""9359""
","""event"",""trial"",""time""
""fullscreenexit"",""66"",""366301""
","","","","","","1597.1000000000931","images/sheep5.png","","","learning","images/animals_choice3.png","images/animals_choice2.png","images/animals_choice1.png","[2,1,0]","1","1","1","images/animals_choice3.png","-1","animals","","sheep","2","0"
"html-keyboard-response","124","607378","0.0-9.0-2.0-0.19","1575","2","2","""event"",""trial"",""time""
""fullscreenenter"",""1"",""9359""
""fullscreenexit"",""66"",""366301""
","
","
","""event"",""trial"",""time""
""fullscreenenter"",""1"",""9359""
","""event"",""trial"",""time""
""fullscreenexit"",""66"",""366301""
","","","","","","null","<div style=""font-size:60px;"">+</div>","null","","fixation","","","","","","","","","","","","","",""
"learning-trial","125","611383","0.0-9.0-2.0-1.19","1575","2","2","""event"",""trial"",""time""
""fullscreenenter"",""1"",""9359""
""fullscreenexit"",""66"",""366301""
","
","
","""event"",""trial"",""time""
""fullscreenenter"",""1"",""9359""
","""event"",""trial"",""time""
""fullscreenexit"",""66"",""366301""
","","","","","","1022.2999999998137","images/cow4.png","","","learning","images/animals_choice2.png","images/animals_choice3.png","images/animals_choice1.png","[1,2,0]","2","1","3","images/animals_choice1.png","-1","animals","","cow","2","0"
"html-keyboard-response","126","611884","0.0-9.0-2.0-0.20","1575","2","2","""event"",""trial"",""time""
""fullscreenenter"",""1"",""9359""
""fullscreenexit"",""66"",""366301""
","
","
","""event"",""trial"",""time""
""fullscreenenter"",""1"",""9359""
","""event"",""trial"",""time""
""fullscreenexit"",""66"",""366301""
","","","","","","null","<div style=""font-size:60px;"">+</div>","null","","fixation","","","","","","","","","","","","","",""
"learning-trial","127","615888","0.0-9.0-2.0-1.20","1575","2","2","""event"",""trial"",""time""
""fullscreenenter"",""1"",""9359""
""fullscreenexit"",""66"",""366301""
","
","
","""event"",""trial"",""time""
""fullscreenenter"",""1"",""9359""
","""event"",""trial"",""time""
""fullscreenexit"",""66"",""366301""
","","","","","","879.5","images/cow1.png","","","learning","images/animals_choice3.png","images/animals_choice1.png","images/animals_choice2.png","[2,0,1]","1","2","3","images/animals_choice2.png","1","animals","","cow","2","0"
"html-keyboard-response","128","616390","0.0-9.0-2.0-0.21","1575","2","2","""event"",""trial"",""time""
""fullscreenenter"",""1"",""9359""
""fullscreenexit"",""66"",""366301""
","
","
","""event"",""trial"",""time""
""fullscreenenter"",""1"",""9359""
","""event"",""trial"",""time""
""fullscreenexit"",""66"",""366301""
","","","","","","null","<div style=""font-size:60px;"">+</div>","null","","fixation","","","","","","","","","","","","","",""
"learning-trial","129","620393","0.0-9.0-2.0-1.21","1575","2","2","""event"",""trial"",""time""
""fullscreenenter"",""1"",""9359""
""fullscreenexit"",""66"",""366301""
","
","
","""event"",""trial"",""time""
""fullscreenenter"",""1"",""9359""
","""event"",""trial"",""time""
""fullscreenexit"",""66"",""366301""
","","","","","","659.8999999999069","images/cow1.png","","","learning","images/animals_choice3.png","images/animals_choice2.png","images/animals_choice1.png","[2,1,0]","1","1","2","images/animals_choice2.png","1","animals","","cow","2","0"
"html-keyboard-response","130","620895","0.0-9.0-2.0-0.22","1575","2","2","""event"",""trial"",""time""
""fullscreenenter"",""1"",""9359""
""fullscreenexit"",""66"",""366301""
","
","
","""event"",""trial"",""time""
""fullscreenenter"",""1"",""9359""
","""event"",""trial"",""time""
""fullscreenexit"",""66"",""366301""
","","","","","","null","<div style=""font-size:60px;"">+</div>","null","","fixation","","","","","","","","","","","","","",""
"learning-trial","131","624898","0.0-9.0-2.0-1.22","1575","2","2","""event"",""trial"",""time""
""fullscreenenter"",""1"",""9359""
""fullscreenexit"",""66"",""366301""
","
","
","""event"",""trial"",""time""
""fullscreenenter"",""1"",""9359""
","""event"",""trial"",""time""
""fullscreenexit"",""66"",""366301""
","","","","","","1595.9000000001397","images/sheep5.png","","","learning","images/animals_choice2.png","images/animals_choice3.png","images/animals_choice1.png","[1,2,0]","1","0","3","images/animals_choice1.png","-1","animals","","sheep","2","0"
"html-keyboard-response","132","625399","0.0-9.0-2.0-0.23","1575","2","2","""event"",""trial"",""time""
""fullscreenenter"",""1"",""9359""
""fullscreenexit"",""66"",""366301""
","
","
","""event"",""trial"",""time""
""fullscreenenter"",""1"",""9359""
","""event"",""trial"",""time""
""fullscreenexit"",""66"",""366301""
","","","","","","null","<div style=""font-size:60px;"">+</div>","null","","fixation","","","","","","","","","","","","","",""
"learning-trial","133","629403","0.0-9.0-2.0-1.23","1575","2","2","""event"",""trial"",""time""
""fullscreenenter"",""1"",""9359""
""fullscreenexit"",""66"",""366301""
","
","
","""event"",""trial"",""time""
""fullscreenenter"",""1"",""9359""
","""event"",""trial"",""time""
""fullscreenexit"",""66"",""366301""
","","","","","","2048.5","images/cow5.png","","","learning","images/animals_choice2.png","images/animals_choice3.png","images/animals_choice1.png","[1,2,0]","0","2","2","images/animals_choice3.png","-1","animals","","cow","2","0"
"html-keyboard-response","134","629905","0.0-9.0-2.0-0.24","1575","2","2","""event"",""trial"",""time""
""fullscreenenter"",""1"",""9359""
""fullscreenexit"",""66"",""366301""
","
","
","""event"",""trial"",""time""
""fullscreenenter"",""1"",""9359""
","""event"",""trial"",""time""
""fullscreenexit"",""66"",""366301""
","","","","","","null","<div style=""font-size:60px;"">+</div>","null","","fixation","","","","","","","","","","","","","",""
"learning-trial","135","633908","0.0-9.0-2.0-1.24","1575","2","2","""event"",""trial"",""time""
""fullscreenenter"",""1"",""9359""
""fullscreenexit"",""66"",""366301""
","
","
","""event"",""trial"",""time""
""fullscreenenter"",""1"",""9359""
","""event"",""trial"",""time""
""fullscreenexit"",""66"",""366301""
","","","","","","762.7999999998137","images/sheep2.png","","","learning","images/animals_choice1.png","images/animals_choice2.png","images/animals_choice3.png","[0,1,2]","0","0","1","images/animals_choice1.png","1","animals","","sheep","2","0"
"html-keyboard-response","136","634410","0.0-9.0-2.0-0.25","1575","2","2","""event"",""trial"",""time""
""fullscreenenter"",""1"",""9359""
""fullscreenexit"",""66"",""366301""
","
","
","""event"",""trial"",""time""
""fullscreenenter"",""1"",""9359""
","""event"",""trial"",""time""
""fullscreenexit"",""66"",""366301""
","","","","","","null","<div style=""font-size:60px;"">+</div>","null","","fixation","","","","","","","","","","","","","",""
"learning-trial","137","638415","0.0-9.0-2.0-1.25","1575","2","2","""event"",""trial"",""time""
""fullscreenenter"",""1"",""9359""
""fullscreenexit"",""66"",""366301""
","
","
","""event"",""trial"",""time""
""fullscreenenter"",""1"",""9359""
","""event"",""trial"",""time""
""fullscreenexit"",""66"",""366301""
","","","","","","660","images/horse5.png","","","learning","images/animals_choice1.png","images/animals_choice2.png","images/animals_choice3.png","[0,1,2]","2","2","2","images/animals_choice2.png","-1","animals","","horse","2","0"
"html-keyboard-response","138","638917","0.0-9.0-2.0-0.26","1575","2","2","""event"",""trial"",""time""
""fullscreenenter"",""1"",""9359""
""fullscreenexit"",""66"",""366301""
","
","
","""event"",""trial"",""time""
""fullscreenenter"",""1"",""9359""
","""event"",""trial"",""time""
""fullscreenexit"",""66"",""366301""
","","","","","","null","<div style=""font-size:60px;"">+</div>","null","","fixation","","","","","","","","","","","","","",""
"learning-trial","139","642920","0.0-9.0-2.0-1.26","1575","2","2","""event"",""trial"",""time""
""fullscreenenter"",""1"",""9359""
""fullscreenexit"",""66"",""366301""
","
","
","""event"",""trial"",""time""
""fullscreenenter"",""1"",""9359""
","""event"",""trial"",""time""
""fullscreenexit"",""66"",""366301""
","","","","","","509.29999999981374","images/horse5.png","","","learning","images/animals_choice3.png","images/animals_choice2.png","images/animals_choice1.png","[2,1,0]","2","0","2","images/animals_choice2.png","-1","animals","","horse","2","0"
"html-keyboard-response","140","643422","0.0-9.0-2.0-0.27","1575","2","2","""event"",""trial"",""time""
""fullscreenenter"",""1"",""9359""
""fullscreenexit"",""66"",""366301""
","
","
","""event"",""trial"",""time""
""fullscreenenter"",""1"",""9359""
","""event"",""trial"",""time""
""fullscreenexit"",""66"",""366301""
","","","","","","null","<div style=""font-size:60px;"">+</div>","null","","fixation","","","","","","","","","","","","","",""
"learning-trial","141","647426","0.0-9.0-2.0-1.27","1575","2","2","""event"",""trial"",""time""
""fullscreenenter"",""1"",""9359""
""fullscreenexit"",""66"",""366301""
","
","
","""event"",""trial"",""time""
""fullscreenenter"",""1"",""9359""
","""event"",""trial"",""time""
""fullscreenexit"",""66"",""366301""
","","","","","","574.1000000000931","images/horse3.png","","","learning","images/animals_choice3.png","images/animals_choice2.png","images/animals_choice1.png","[2,1,0]","0","2","3","images/animals_choice1.png","1","animals","","horse","2","0"
"html-keyboard-response","142","647927","0.0-9.0-2.0-0.28","1575","2","2","""event"",""trial"",""time""
""fullscreenenter"",""1"",""9359""
""fullscreenexit"",""66"",""366301""
","
","
","""event"",""trial"",""time""
""fullscreenenter"",""1"",""9359""
","""event"",""trial"",""time""
""fullscreenexit"",""66"",""366301""
","","","","","","null","<div style=""font-size:60px;"">+</div>","null","","fixation","","","","","","","","","","","","","",""
"learning-trial","143","651931","0.0-9.0-2.0-1.28","1575","2","2","""event"",""trial"",""time""
""fullscreenenter"",""1"",""9359""
""fullscreenexit"",""66"",""366301""
","
","
","""event"",""trial"",""time""
""fullscreenenter"",""1"",""9359""
","""event"",""trial"",""time""
""fullscreenexit"",""66"",""366301""
","","","","","","451.30000000004657","images/cow5.png","","","learning","images/animals_choice3.png","images/animals_choice1.png","images/animals_choice2.png","[2,0,1]","0","1","2","images/animals_choice1.png","1","animals","","cow","2","0"
"html-keyboard-response","144","652433","0.0-9.0-2.0-0.29","1575","2","2","""event"",""trial"",""time""
""fullscreenenter"",""1"",""9359""
""fullscreenexit"",""66"",""366301""
","
","
","""event"",""trial"",""time""
""fullscreenenter"",""1"",""9359""
","""event"",""trial"",""time""
""fullscreenexit"",""66"",""366301""
","","","","","","null","<div style=""font-size:60px;"">+</div>","null","","fixation","","","","","","","","","","","","","",""
"learning-trial","145","656436","0.0-9.0-2.0-1.29","1575","2","2","""event"",""trial"",""time""
""fullscreenenter"",""1"",""9359""
""fullscreenexit"",""66"",""366301""
","
","
","""event"",""trial"",""time""
""fullscreenenter"",""1"",""9359""
","""event"",""trial"",""time""
""fullscreenexit"",""66"",""366301""
","","","","","","385.69999999995343","images/sheep5.png","","","learning","images/animals_choice3.png","images/animals_choice2.png","images/animals_choice1.png","[2,1,0]","1","1","3","images/animals_choice1.png","-1","animals","","sheep","2","0"
"html-keyboard-response","146","656938","0.0-9.0-2.0-0.30","1575","2","2","""event"",""trial"",""time""
""fullscreenenter"",""1"",""9359""
""fullscreenexit"",""66"",""366301""
","
","
","""event"",""trial"",""time""
""fullscreenenter"",""1"",""9359""
","""event"",""trial"",""time""
""fullscreenexit"",""66"",""366301""
","","","","","","null","<div style=""font-size:60px;"">+</div>","null","","fixation","","","","","","","","","","","","","",""
"learning-trial","147","660941","0.0-9.0-2.0-1.30","1575","2","2","""event"",""trial"",""time""
""fullscreenenter"",""1"",""9359""
""fullscreenexit"",""66"",""366301""
","
","
","""event"",""trial"",""time""
""fullscreenenter"",""1"",""9359""
","""event"",""trial"",""time""
""fullscreenexit"",""66"",""366301""
","","","","","","320.60000000009313","images/sheep3.png","","","learning","images/animals_choice1.png","images/animals_choice3.png","images/animals_choice2.png","[0,2,1]","2","1","1","images/animals_choice1.png","-1","animals","","sheep","2","0"
"html-keyboard-response","148","661443","0.0-9.0-2.0-0.31","1575","2","2","""event"",""trial"",""time""
""fullscreenenter"",""1"",""9359""
""fullscreenexit"",""66"",""366301""
","
","
","""event"",""trial"",""time""
""fullscreenenter"",""1"",""9359""
","""event"",""trial"",""time""
""fullscreenexit"",""66"",""366301""
","","","","","","null","<div style=""font-size:60px;"">+</div>","null","","fixation","","","","","","","","","","","","","",""
"learning-trial","149","665447","0.0-9.0-2.0-1.31","1575","2","2","""event"",""trial"",""time""
""fullscreenenter"",""1"",""9359""
""fullscreenexit"",""66"",""366301""
","
","
","""event"",""trial"",""time""
""fullscreenenter"",""1"",""9359""
","""event"",""trial"",""time""
""fullscreenexit"",""66"",""366301""
","","","","","","97.60000000009313","images/horse3.png","","","learning","images/animals_choice2.png","images/animals_choice3.png","images/animals_choice1.png","[1,2,0]","0","2","2","images/animals_choice3.png","-1","animals","","horse","2","0"
"html-keyboard-response","150","665948","0.0-9.0-2.0-0.32","1575","2","2","""event"",""trial"",""time""
""fullscreenenter"",""1"",""9359""
""fullscreenexit"",""66"",""366301""
","
","
","""event"",""trial"",""time""
""fullscreenenter"",""1"",""9359""
","""event"",""trial"",""time""
""fullscreenexit"",""66"",""366301""
","","","","","","null","<div style=""font-size:60px;"">+</div>","null","","fixation","","","","","","","","","","","","","",""
"learning-trial","151","669952","0.0-9.0-2.0-1.32","1575","2","2","""event"",""trial"",""time""
""fullscreenenter"",""1"",""9359""
""fullscreenexit"",""66"",""366301""
","
","
","""event"",""trial"",""time""
""fullscreenenter"",""1"",""9359""
","""event"",""trial"",""time""
""fullscreenexit"",""66"",""366301""
","","","","","","333.80000000004657","images/horse5.png","","","learning","images/animals_choice3.png","images/animals_choice1.png","images/animals_choice2.png","[2,0,1]","2","0","3","images/animals_choice2.png","-1","animals","","horse","2","0"
"html-keyboard-response","152","670454","0.0-9.0-2.0-0.33","1575","2","2","""event"",""trial"",""time""
""fullscreenenter"",""1"",""9359""
""fullscreenexit"",""66"",""366301""
","
","
","""event"",""trial"",""time""
""fullscreenenter"",""1"",""9359""
","""event"",""trial"",""time""
""fullscreenexit"",""66"",""366301""
","","","","","","null","<div style=""font-size:60px;"">+</div>","null","","fixation","","","","","","","","","","","","","",""
"learning-trial","153","674458","0.0-9.0-2.0-1.33","1575","2","2","""event"",""trial"",""time""
""fullscreenenter"",""1"",""9359""
""fullscreenexit"",""66"",""366301""
","
","
","""event"",""trial"",""time""
""fullscreenenter"",""1"",""9359""
","""event"",""trial"",""time""
""fullscreenexit"",""66"",""366301""
","","","","","","314.0999999998603","images/cow1.png","","","learning","images/animals_choice3.png","images/animals_choice1.png","images/animals_choice2.png","[2,0,1]","1","2","1","images/animals_choice3.png","-1","animals","","cow","2","0"
"html-keyboard-response","154","674959","0.0-9.0-2.0-0.34","1575","2","2","""event"",""trial"",""time""
""fullscreenenter"",""1"",""9359""
""fullscreenexit"",""66"",""366301""
","
","
","""event"",""trial"",""time""
""fullscreenenter"",""1"",""9359""
","""event"",""trial"",""time""
""fullscreenexit"",""66"",""366301""
","","","","","","null","<div style=""font-size:60px;"">+</div>","null","","fixation","","","","","","","","","","","","","",""
"learning-trial","155","678963","0.0-9.0-2.0-1.34","1575","2","2","""event"",""trial"",""time""
""fullscreenenter"",""1"",""9359""
""fullscreenexit"",""66"",""366301""
","
","
","""event"",""trial"",""time""
""fullscreenenter"",""1"",""9359""
","""event"",""trial"",""time""
""fullscreenexit"",""66"",""366301""
","","","","","","338.70000000018626","images/sheep3.png","","","learning","images/animals_choice1.png","images/animals_choice2.png","images/animals_choice3.png","[0,1,2]","2","2","2","images/animals_choice2.png","-1","animals","","sheep","2","0"
"html-keyboard-response","156","679465","0.0-9.0-2.0-0.35","1575","2","2","""event"",""trial"",""time""
""fullscreenenter"",""1"",""9359""
""fullscreenexit"",""66"",""366301""
","
","
","""event"",""trial"",""time""
""fullscreenenter"",""1"",""9359""
","""event"",""trial"",""time""
""fullscreenexit"",""66"",""366301""
","","","","","","null","<div style=""font-size:60px;"">+</div>","null","","fixation","","","","","","","","","","","","","",""
"learning-trial","157","683468","0.0-9.0-2.0-1.35","1575","2","2","""event"",""trial"",""time""
""fullscreenenter"",""1"",""9359""
""fullscreenexit"",""66"",""366301""
","
","
","""event"",""trial"",""time""
""fullscreenenter"",""1"",""9359""
","""event"",""trial"",""time""
""fullscreenexit"",""66"",""366301""
","","","","","","182.60000000009313","images/horse1.png","","","learning","images/animals_choice3.png","images/animals_choice1.png","images/animals_choice2.png","[2,0,1]","1","2","3","images/animals_choice2.png","-1","animals","","horse","2","0"
"html-keyboard-response","158","683970","0.0-9.0-2.0-0.36","1575","2","2","""event"",""trial"",""time""
""fullscreenenter"",""1"",""9359""
""fullscreenexit"",""66"",""366301""
","
","
","""event"",""trial"",""time""
""fullscreenenter"",""1"",""9359""
","""event"",""trial"",""time""
""fullscreenexit"",""66"",""366301""
","","","","","","null","<div style=""font-size:60px;"">+</div>","null","","fixation","","","","","","","","","","","","","",""
"learning-trial","159","687974","0.0-9.0-2.0-1.36","1575","2","2","""event"",""trial"",""time""
""fullscreenenter"",""1"",""9359""
""fullscreenexit"",""66"",""366301""
","
","
","""event"",""trial"",""time""
""fullscreenenter"",""1"",""9359""
","""event"",""trial"",""time""
""fullscreenexit"",""66"",""366301""
","","","","","","620.5","images/horse1.png","","","learning","images/animals_choice2.png","images/animals_choice3.png","images/animals_choice1.png","[1,2,0]","1","0","2","images/animals_choice3.png","-1","animals","","horse","2","0"
"html-keyboard-response","160","688475","0.0-9.0-2.0-0.37","1575","2","2","""event"",""trial"",""time""
""fullscreenenter"",""1"",""9359""
""fullscreenexit"",""66"",""366301""
","
","
","""event"",""trial"",""time""
""fullscreenenter"",""1"",""9359""
","""event"",""trial"",""time""
""fullscreenexit"",""66"",""366301""
","","","","","","null","<div style=""font-size:60px;"">+</div>","null","","fixation","","","","","","","","","","","","","",""
"learning-trial","161","692479","0.0-9.0-2.0-1.37","1575","2","2","""event"",""trial"",""time""
""fullscreenenter"",""1"",""9359""
""fullscreenexit"",""66"",""366301""
","
","
","""event"",""trial"",""time""
""fullscreenenter"",""1"",""9359""
","""event"",""trial"",""time""
""fullscreenexit"",""66"",""366301""
","","","","","","436.39999999990687","images/sheep2.png","","","learning","images/animals_choice2.png","images/animals_choice3.png","images/animals_choice1.png","[1,2,0]","0","2","1","images/animals_choice2.png","-1","animals","","sheep","2","0"
"html-keyboard-response","162","692980","0.0-9.0-2.0-0.38","1575","2","2","""event"",""trial"",""time""
""fullscreenenter"",""1"",""9359""
""fullscreenexit"",""66"",""366301""
","
","
","""event"",""trial"",""time""
""fullscreenenter"",""1"",""9359""
","""event"",""trial"",""time""
""fullscreenexit"",""66"",""366301""
","","","","","","null","<div style=""font-size:60px;"">+</div>","null","","fixation","","","","","","","","","","","","","",""
"learning-trial","163","696983","0.0-9.0-2.0-1.38","1575","2","2","""event"",""trial"",""time""
""fullscreenenter"",""1"",""9359""
""fullscreenexit"",""66"",""366301""
","
","
","""event"",""trial"",""time""
""fullscreenenter"",""1"",""9359""
","""event"",""trial"",""time""
""fullscreenexit"",""66"",""366301""
","","","","","","454","images/cow1.png","","","learning","images/animals_choice1.png","images/animals_choice2.png","images/animals_choice3.png","[0,1,2]","1","1","3","images/animals_choice3.png","-1","animals","","cow","2","0"
"html-keyboard-response","164","697485","0.0-9.0-2.0-0.39","1575","2","2","""event"",""trial"",""time""
""fullscreenenter"",""1"",""9359""
""fullscreenexit"",""66"",""366301""
","
","
","""event"",""trial"",""time""
""fullscreenenter"",""1"",""9359""
","""event"",""trial"",""time""
""fullscreenexit"",""66"",""366301""
","","","","","","null","<div style=""font-size:60px;"">+</div>","null","","fixation","","","","","","","","","","","","","",""
"learning-trial","165","701489","0.0-9.0-2.0-1.39","1575","2","2","""event"",""trial"",""time""
""fullscreenenter"",""1"",""9359""
""fullscreenexit"",""66"",""366301""
","
","
","""event"",""trial"",""time""
""fullscreenenter"",""1"",""9359""
","""event"",""trial"",""time""
""fullscreenexit"",""66"",""366301""
","","","","","","1091.3999999999069","images/sheep2.png","","","learning","images/animals_choice3.png","images/animals_choice2.png","images/animals_choice1.png","[2,1,0]","0","2","3","images/animals_choice1.png","1","animals","","sheep","2","0"
"html-keyboard-response","166","701990","0.0-9.0-2.0-0.40","1575","2","2","""event"",""trial"",""time""
""fullscreenenter"",""1"",""9359""
""fullscreenexit"",""66"",""366301""
","
","
","""event"",""trial"",""time""
""fullscreenenter"",""1"",""9359""
","""event"",""trial"",""time""
""fullscreenexit"",""66"",""366301""
","","","","","","null","<div style=""font-size:60px;"">+</div>","null","","fixation","","","","","","","","","","","","","",""
"learning-trial","167","705994","0.0-9.0-2.0-1.40","1575","2","2","""event"",""trial"",""time""
""fullscreenenter"",""1"",""9359""
""fullscreenexit"",""66"",""366301""
","
","
","""event"",""trial"",""time""
""fullscreenenter"",""1"",""9359""
","""event"",""trial"",""time""
""fullscreenexit"",""66"",""366301""
","","","","","","551.1000000000931","images/cow4.png","","","learning","images/animals_choice2.png","images/animals_choice3.png","images/animals_choice1.png","[1,2,0]","2","1","1","images/animals_choice2.png","-1","animals","","cow","2","0"
"html-keyboard-response","168","706495","0.0-9.0-2.0-0.41","1575","2","2","""event"",""trial"",""time""
""fullscreenenter"",""1"",""9359""
""fullscreenexit"",""66"",""366301""
","
","
","""event"",""trial"",""time""
""fullscreenenter"",""1"",""9359""
","""event"",""trial"",""time""
""fullscreenexit"",""66"",""366301""
","","","","","","null","<div style=""font-size:60px;"">+</div>","null","","fixation","","","","","","","","","","","","","",""
"learning-trial","169","710499","0.0-9.0-2.0-1.41","1575","2","2","""event"",""trial"",""time""
""fullscreenenter"",""1"",""9359""
""fullscreenexit"",""66"",""366301""
","
","
","""event"",""trial"",""time""
""fullscreenenter"",""1"",""9359""
","""event"",""trial"",""time""
""fullscreenexit"",""66"",""366301""
","","","","","","157.60000000009313","images/horse3.png","","","learning","images/animals_choice1.png","images/animals_choice2.png","images/animals_choice3.png","[0,1,2]","0","0","2","images/animals_choice2.png","-1","animals","","horse","2","0"
"html-keyboard-response","170","711000","0.0-9.0-2.0-0.42","1575","2","2","""event"",""trial"",""time""
""fullscreenenter"",""1"",""9359""
""fullscreenexit"",""66"",""366301""
","
","
","""event"",""trial"",""time""
""fullscreenenter"",""1"",""9359""
","""event"",""trial"",""time""
""fullscreenexit"",""66"",""366301""
","","","","","","null","<div style=""font-size:60px;"">+</div>","null","","fixation","","","","","","","","","","","","","",""
"learning-trial","171","715004","0.0-9.0-2.0-1.42","1575","2","2","""event"",""trial"",""time""
""fullscreenenter"",""1"",""9359""
""fullscreenexit"",""66"",""366301""
","
","
","""event"",""trial"",""time""
""fullscreenenter"",""1"",""9359""
","""event"",""trial"",""time""
""fullscreenexit"",""66"",""366301""
","","","","","","79.0999999998603","images/sheep3.png","","","learning","images/animals_choice1.png","images/animals_choice3.png","images/animals_choice2.png","[0,2,1]","2","1","3","images/animals_choice2.png","-1","animals","","sheep","2","0"
"html-keyboard-response","172","715506","0.0-9.0-2.0-0.43","1575","2","2","""event"",""trial"",""time""
""fullscreenenter"",""1"",""9359""
""fullscreenexit"",""66"",""366301""
","
","
","""event"",""trial"",""time""
""fullscreenenter"",""1"",""9359""
","""event"",""trial"",""time""
""fullscreenexit"",""66"",""366301""
","","","","","","null","<div style=""font-size:60px;"">+</div>","null","","fixation","","","","","","","","","","","","","",""
"learning-trial","173","719510","0.0-9.0-2.0-1.43","1575","2","2","""event"",""trial"",""time""
""fullscreenenter"",""1"",""9359""
""fullscreenexit"",""66"",""366301""
","
","
","""event"",""trial"",""time""
""fullscreenenter"",""1"",""9359""
","""event"",""trial"",""time""
""fullscreenexit"",""66"",""366301""
","","","","","","116.89999999990687","images/sheep3.png","","","learning","images/animals_choice1.png","images/animals_choice2.png","images/animals_choice3.png","[0,1,2]","2","2","1","images/animals_choice1.png","-1","animals","","sheep","2","0"
"html-keyboard-response","174","720011","0.0-9.0-2.0-0.44","1575","2","2","""event"",""trial"",""time""
""fullscreenenter"",""1"",""9359""
""fullscreenexit"",""66"",""366301""
","
","
","""event"",""trial"",""time""
""fullscreenenter"",""1"",""9359""
","""event"",""trial"",""time""
""fullscreenexit"",""66"",""366301""
","","","","","","null","<div style=""font-size:60px;"">+</div>","null","","fixation","","","","","","","","","","","","","",""
"learning-trial","175","724015","0.0-9.0-2.0-1.44","1575","2","2","""event"",""trial"",""time""
""fullscreenenter"",""1"",""9359""
""fullscreenexit"",""66"",""366301""
","
","
","""event"",""trial"",""time""
""fullscreenenter"",""1"",""9359""
","""event"",""trial"",""time""
""fullscreenexit"",""66"",""366301""
","","","","","","140","images/cow1.png","","","learning","images/animals_choice1.png","images/animals_choice2.png","images/animals_choice3.png","[0,1,2]","1","1","3","images/animals_choice3.png","1","animals","","cow","2","0"
"html-keyboard-response","176","724516","0.0-9.0-2.0-0.45","1575","2","2","""event"",""trial"",""time""
""fullscreenenter"",""1"",""9359""
""fullscreenexit"",""66"",""366301""
","
","
","""event"",""trial"",""time""
""fullscreenenter"",""1"",""9359""
","""event"",""trial"",""time""
""fullscreenexit"",""66"",""366301""
","","","","","","null","<div style=""font-size:60px;"">+</div>","null","","fixation","","","","","","","","","","","","","",""
"learning-trial","177","728520","0.0-9.0-2.0-1.45","1575","2","2","""event"",""trial"",""time""
""fullscreenenter"",""1"",""9359""
""fullscreenexit"",""66"",""366301""
","
","
","""event"",""trial"",""time""
""fullscreenenter"",""1"",""9359""
","""event"",""trial"",""time""
""fullscreenexit"",""66"",""366301""
","","","","","","752.1999999999534","images/sheep2.png","","","learning","images/animals_choice2.png","images/animals_choice3.png","images/animals_choice1.png","[1,2,0]","0","2","2","images/animals_choice3.png","-1","animals","","sheep","2","0"
"html-keyboard-response","178","729021","0.0-9.0-2.0-0.46","1575","2","2","""event"",""trial"",""time""
""fullscreenenter"",""1"",""9359""
""fullscreenexit"",""66"",""366301""
","
","
","""event"",""trial"",""time""
""fullscreenenter"",""1"",""9359""
","""event"",""trial"",""time""
""fullscreenexit"",""66"",""366301""
","","","","","","null","<div style=""font-size:60px;"">+</div>","null","","fixation","","","","","","","","","","","","","",""
"learning-trial","179","733025","0.0-9.0-2.0-1.46","1575","2","2","""event"",""trial"",""time""
""fullscreenenter"",""1"",""9359""
""fullscreenexit"",""66"",""366301""
","
","
","""event"",""trial"",""time""
""fullscreenenter"",""1"",""9359""
","""event"",""trial"",""time""
""fullscreenexit"",""66"",""366301""
","","","","","","24","images/horse3.png","","","learning","images/animals_choice1.png","images/animals_choice3.png","images/animals_choice2.png","[0,2,1]","0","0","1","images/animals_choice1.png","-1","animals","","horse","2","0"
"html-keyboard-response","180","733526","0.0-9.0-2.0-0.47","1575","2","2","""event"",""trial"",""time""
""fullscreenenter"",""1"",""9359""
""fullscreenexit"",""66"",""366301""
","
","
","""event"",""trial"",""time""
""fullscreenenter"",""1"",""9359""
","""event"",""trial"",""time""
""fullscreenexit"",""66"",""366301""
","","","","","","null","<div style=""font-size:60px;"">+</div>","null","","fixation","","","","","","","","","","","","","",""
"learning-trial","181","737530","0.0-9.0-2.0-1.47","1575","2","2","""event"",""trial"",""time""
""fullscreenenter"",""1"",""9359""
""fullscreenexit"",""66"",""366301""
","
","
","""event"",""trial"",""time""
""fullscreenenter"",""1"",""9359""
","""event"",""trial"",""time""
""fullscreenexit"",""66"",""366301""
","","","","","","165.5999999998603","images/sheep2.png","","","learning","images/animals_choice2.png","images/animals_choice3.png","images/animals_choice1.png","[1,2,0]","0","2","2","images/animals_choice3.png","-1","animals","","sheep","2","0"
"html-keyboard-response","182","738032","0.0-9.0-2.0-0.48","1575","2","2","""event"",""trial"",""time""
""fullscreenenter"",""1"",""9359""
""fullscreenexit"",""66"",""366301""
","
","
","""event"",""trial"",""time""
""fullscreenenter"",""1"",""9359""
","""event"",""trial"",""time""
""fullscreenexit"",""66"",""366301""
","","","","","","null","<div style=""font-size:60px;"">+</div>","null","","fixation","","","","","","","","","","","","","",""
"learning-trial","183","742035","0.0-9.0-2.0-1.48","1575","2","2","""event"",""trial"",""time""
""fullscreenenter"",""1"",""9359""
""fullscreenexit"",""66"",""366301""
","
","
","""event"",""trial"",""time""
""fullscreenenter"",""1"",""9359""
","""event"",""trial"",""time""
""fullscreenexit"",""66"",""366301""
","","","","","","56.0999999998603","images/horse3.png","","","learning","images/animals_choice1.png","images/animals_choice2.png","images/animals_choice3.png","[0,1,2]","0","0","3","images/animals_choice3.png","-1","animals","","horse","2","0"
"html-keyboard-response","184","742537","0.0-9.0-2.0-0.49","1575","2","2","""event"",""trial"",""time""
""fullscreenenter"",""1"",""9359""
""fullscreenexit"",""66"",""366301""
","
","
","""event"",""trial"",""time""
""fullscreenenter"",""1"",""9359""
","""event"",""trial"",""time""
""fullscreenexit"",""66"",""366301""
","","","","","","null","<div style=""font-size:60px;"">+</div>","null","","fixation","","","","","","","","","","","","","",""
"learning-trial","185","746541","0.0-9.0-2.0-1.49","1575","2","2","""event"",""trial"",""time""
""fullscreenenter"",""1"",""9359""
""fullscreenexit"",""66"",""366301""
","
","
","""event"",""trial"",""time""
""fullscreenenter"",""1"",""9359""
","""event"",""trial"",""time""
""fullscreenexit"",""66"",""366301""
","","","","","","68.89999999990687","images/horse5.png","","","learning","images/animals_choice2.png","images/animals_choice3.png","images/animals_choice1.png","[1,2,0]","2","1","1","images/animals_choice2.png","-1","animals","","horse","2","0"
"html-keyboard-response","186","747044","0.0-9.0-2.0-0.50","1575","2","2","""event"",""trial"",""time""
""fullscreenenter"",""1"",""9359""
""fullscreenexit"",""66"",""366301""
","
","
","""event"",""trial"",""time""
""fullscreenenter"",""1"",""9359""
","""event"",""trial"",""time""
""fullscreenexit"",""66"",""366301""
","","","","","","null","<div style=""font-size:60px;"">+</div>","null","","fixation","","","","","","","","","","","","","",""
"learning-trial","187","751048","0.0-9.0-2.0-1.50","1575","2","2","""event"",""trial"",""time""
""fullscreenenter"",""1"",""9359""
""fullscreenexit"",""66"",""366301""
","
","
","""event"",""trial"",""time""
""fullscreenenter"",""1"",""9359""
","""event"",""trial"",""time""
""fullscreenexit"",""66"",""366301""
","","","","","","200.10000000009313","images/cow4.png","","","learning","images/animals_choice2.png","images/animals_choice3.png","images/animals_choice1.png","[1,2,0]","2","1","1","images/animals_choice2.png","-1","animals","","cow","2","0"
"html-keyboard-response","188","751550","0.0-9.0-2.0-0.51","1575","2","2","""event"",""trial"",""time""
""fullscreenenter"",""1"",""9359""
""fullscreenexit"",""66"",""366301""
","
","
","""event"",""trial"",""time""
""fullscreenenter"",""1"",""9359""
","""event"",""trial"",""time""
""fullscreenexit"",""66"",""366301""
","","","","","","null","<div style=""font-size:60px;"">+</div>","null","","fixation","","","","","","","","","","","","","",""
"learning-trial","189","755553","0.0-9.0-2.0-1.51","1575","2","2","""event"",""trial"",""time""
""fullscreenenter"",""1"",""9359""
""fullscreenexit"",""66"",""366301""
","
","
","""event"",""trial"",""time""
""fullscreenenter"",""1"",""9359""
","""event"",""trial"",""time""
""fullscreenexit"",""66"",""366301""
","","","","","","190.0999999998603","images/horse5.png","","","learning","images/animals_choice3.png","images/animals_choice2.png","images/animals_choice1.png","[2,1,0]","2","0","2","images/animals_choice2.png","-1","animals","","horse","2","0"
"html-keyboard-response","190","756055","0.0-9.0-2.0-0.52","1575","2","2","""event"",""trial"",""time""
""fullscreenenter"",""1"",""9359""
""fullscreenexit"",""66"",""366301""
","
","
","""event"",""trial"",""time""
""fullscreenenter"",""1"",""9359""
","""event"",""trial"",""time""
""fullscreenexit"",""66"",""366301""
","","","","","","null","<div style=""font-size:60px;"">+</div>","null","","fixation","","","","","","","","","","","","","",""
"learning-trial","191","760058","0.0-9.0-2.0-1.52","1575","2","2","""event"",""trial"",""time""
""fullscreenenter"",""1"",""9359""
""fullscreenexit"",""66"",""366301""
","
","
","""event"",""trial"",""time""
""fullscreenenter"",""1"",""9359""
","""event"",""trial"",""time""
""fullscreenexit"",""66"",""366301""
","","","","","","42.199999999953434","images/cow4.png","","","learning","images/animals_choice1.png","images/animals_choice2.png","images/animals_choice3.png","[0,1,2]","2","2","3","images/animals_choice3.png","1","animals","","cow","2","0"
"html-keyboard-response","192","760560","0.0-9.0-2.0-0.53","1575","2","2","""event"",""trial"",""time""
""fullscreenenter"",""1"",""9359""
""fullscreenexit"",""66"",""366301""
","
","
","""event"",""trial"",""time""
""fullscreenenter"",""1"",""9359""
","""event"",""trial"",""time""
""fullscreenexit"",""66"",""366301""
","","","","","","null","<div style=""font-size:60px;"">+</div>","null","","fixation","","","","","","","","","","","","","",""
"learning-trial","193","764564","0.0-9.0-2.0-1.53","1575","2","2","""event"",""trial"",""time""
""fullscreenenter"",""1"",""9359""
""fullscreenexit"",""66"",""366301""
","
","
","""event"",""trial"",""time""
""fullscreenenter"",""1"",""9359""
","""event"",""trial"",""time""
""fullscreenexit"",""66"",""366301""
","","","","","","118.39999999990687","images/sheep2.png","","","learning","images/animals_choice1.png","images/animals_choice2.png","images/animals_choice3.png","[0,1,2]","0","0","3","images/animals_choice3.png","-1","animals","","sheep","2","0"
"html-keyboard-response","194","765065","0.0-9.0-2.0-0.54","1575","2","2","""event"",""trial"",""time""
""fullscreenenter"",""1"",""9359""
""fullscreenexit"",""66"",""366301""
","
","
","""event"",""trial"",""time""
""fullscreenenter"",""1"",""9359""
","""event"",""trial"",""time""
""fullscreenexit"",""66"",""366301""
","","","","","","null","<div style=""font-size:60px;"">+</div>","null","","fixation","","","","","","","","","","","","","",""
"learning-trial","195","769069","0.0-9.0-2.0-1.54","1575","2","2","""event"",""trial"",""time""
""fullscreenenter"",""1"",""9359""
""fullscreenexit"",""66"",""366301""
","
","
","""event"",""trial"",""time""
""fullscreenenter"",""1"",""9359""
","""event"",""trial"",""time""
""fullscreenexit"",""66"",""366301""
","","","","","","75.30000000004657","images/horse3.png","","","learning","images/animals_choice2.png","images/animals_choice1.png","images/animals_choice3.png","[1,0,2]","0","1","1","images/animals_choice2.png","-1","animals","","horse","2","0"
"html-keyboard-response","196","769571","0.0-9.0-2.0-0.55","1575","2","2","""event"",""trial"",""time""
""fullscreenenter"",""1"",""9359""
""fullscreenexit"",""66"",""366301""
","
","
","""event"",""trial"",""time""
""fullscreenenter"",""1"",""9359""
","""event"",""trial"",""time""
""fullscreenexit"",""66"",""366301""
","","","","","","null","<div style=""font-size:60px;"">+</div>","null","","fixation","","","","","","","","","","","","","",""
"learning-trial","197","773575","0.0-9.0-2.0-1.55","1575","2","2","""event"",""trial"",""time""
""fullscreenenter"",""1"",""9359""
""fullscreenexit"",""66"",""366301""
","
","
","""event"",""trial"",""time""
""fullscreenenter"",""1"",""9359""
","""event"",""trial"",""time""
""fullscreenexit"",""66"",""366301""
","","","","","","76.5999999998603","images/sheep3.png","","","learning","images/animals_choice3.png","images/animals_choice2.png","images/animals_choice1.png","[2,1,0]","2","0","3","images/animals_choice1.png","-1","animals","","sheep","2","0"
"html-keyboard-response","198","774076","0.0-9.0-2.0-0.56","1575","2","2","""event"",""trial"",""time""
""fullscreenenter"",""1"",""9359""
""fullscreenexit"",""66"",""366301""
","
","
","""event"",""trial"",""time""
""fullscreenenter"",""1"",""9359""
","""event"",""trial"",""time""
""fullscreenexit"",""66"",""366301""
","","","","","","null","<div style=""font-size:60px;"">+</div>","null","","fixation","","","","","","","","","","","","","",""
"learning-trial","199","778080","0.0-9.0-2.0-1.56","1575","2","2","""event"",""trial"",""time""
""fullscreenenter"",""1"",""9359""
""fullscreenexit"",""66"",""366301""
","
","
","""event"",""trial"",""time""
""fullscreenenter"",""1"",""9359""
","""event"",""trial"",""time""
""fullscreenexit"",""66"",""366301""
","","","","","","187.89999999990687","images/horse1.png","","","learning","images/animals_choice1.png","images/animals_choice2.png","images/animals_choice3.png","[0,1,2]","1","1","1","images/animals_choice1.png","-1","animals","","horse","2","0"
"html-keyboard-response","200","778581","0.0-9.0-2.0-0.57","1575","2","2","""event"",""trial"",""time""
""fullscreenenter"",""1"",""9359""
""fullscreenexit"",""66"",""366301""
","
","
","""event"",""trial"",""time""
""fullscreenenter"",""1"",""9359""
","""event"",""trial"",""time""
""fullscreenexit"",""66"",""366301""
","","","","","","null","<div style=""font-size:60px;"">+</div>","null","","fixation","","","","","","","","","","","","","",""
"learning-trial","201","782586","0.0-9.0-2.0-1.57","1575","2","2","""event"",""trial"",""time""
""fullscreenenter"",""1"",""9359""
""fullscreenexit"",""66"",""366301""
","
","
","""event"",""trial"",""time""
""fullscreenenter"",""1"",""9359""
","""event"",""trial"",""time""
""fullscreenexit"",""66"",""366301""
","","","","","","182.4000000001397","images/cow5.png","","","learning","images/animals_choice3.png","images/animals_choice2.png","images/animals_choice1.png","[2,1,0]","0","2","1","images/animals_choice3.png","-1","animals","","cow","2","0"
"html-keyboard-response","202","783088","0.0-9.0-2.0-0.58","1575","2","2","""event"",""trial"",""time""
""fullscreenenter"",""1"",""9359""
""fullscreenexit"",""66"",""366301""
","
","
","""event"",""trial"",""time""
""fullscreenenter"",""1"",""9359""
