"trial_type","trial_index","time_elapsed","internal_node_id","subject_id","condition","task_version","interactions","blur_events","focus_events","fullscreenenter_events","fullscreenexit_events","success","timeout","failed_images","failed_audio","failed_video","rt","stimulus","response","button_pressed","task_part","left_choice","middle_choice","right_choice","choice_positions","correct_response","correct_position","key_press","option_selected","points","task_block","correct","stim_cat","block_condition","block_number"
"pavlovia","0","10","0.0-0.0","1615","2","2","""event"",""trial"",""time""
""fullscreenenter"",""1"",""7327""
","
","
","""event"",""trial"",""time""
""fullscreenenter"",""1"",""7327""
","
","","","","","","","","","","","","","","","","","","","","","","","",""
"fullscreen","1","8079","0.0-1.0","1615","2","2","""event"",""trial"",""time""
""fullscreenenter"",""1"",""7327""
","
","
","""event"",""trial"",""time""
""fullscreenenter"",""1"",""7327""
","
","true","","","","","","","","","","","","","","","","","","","","","","",""
"preload","2","24795","0.0-2.0","1615","2","2","""event"",""trial"",""time""
""fullscreenenter"",""1"",""7327""
","
","
","""event"",""trial"",""time""
""fullscreenenter"",""1"",""7327""
","
","true","false","[]","[]","[]","","","","","","","","","","","","","","","","","","",""
"audio-keyboard-response","3","28375","0.0-3.0","1615","2","2","""event"",""trial"",""time""
""fullscreenenter"",""1"",""7327""
","
","
","""event"",""trial"",""time""
""fullscreenenter"",""1"",""7327""
","
","","","","","","3578.666666666667","audio/beep_loop.wav"," ","","","","","","","","","","","","","","","",""
"audio-button-response","4","31019","0.0-4.0","1615","2","2","""event"",""trial"",""time""
""fullscreenenter"",""1"",""7327""
","
","
","""event"",""trial"",""time""
""fullscreenenter"",""1"",""7327""
","
","","","","","","2651","audio/shark.wav","4","","","","","","","","","","","","","","","",""
"audio-button-response","5","34015","0.0-5.0","1615","2","2","""event"",""trial"",""time""
""fullscreenenter"",""1"",""7327""
","
","
","""event"",""trial"",""time""
""fullscreenenter"",""1"",""7327""
","
","","","","","","1989","audio/turtle.wav","1","","","","","","","","","","","","","","","",""
"preload","6","40665","0.0-6.0","1615","2","2","""event"",""trial"",""time""
""fullscreenenter"",""1"",""7327""
","
","
","""event"",""trial"",""time""
""fullscreenenter"",""1"",""7327""
","
","true","false","[]","[]","[]","","","","","","","","","","","","","","","","","","",""
"html-keyboard-response","7","43754","0.0-7.0","1615","2","2","""event"",""trial"",""time""
""fullscreenenter"",""1"",""7327""
","
","
","""event"",""trial"",""time""
""fullscreenenter"",""1"",""7327""
","
","","","","","","3088","Welcome to the experiment. Press any key to begin and to advance the instructions."," ","","","","","","","","","","","","","","","",""
"learning-instructions","8","54078","0.0-8.0-0.0-0.0","1615","2","2","""event"",""trial"",""time""
""fullscreenenter"",""1"",""7327""
","
","
","""event"",""trial"",""time""
""fullscreenenter"",""1"",""7327""
","
","","","","","","2569","<p> Welcome! Today you are going to play 6 different rounds of a decision-making game. </p><p> Use the mouse to click next to continue. </p>","","0","instructions","","","","","","","","","","","","","",""
"learning-instructions","9","59321","0.0-8.0-0.0-0.1","1615","2","2","""event"",""trial"",""time""
""fullscreenenter"",""1"",""7327""
","
","
","""event"",""trial"",""time""
""fullscreenenter"",""1"",""7327""
","
","","","","","","2221","<p> You will start with a practice round to learn the rules. </p>","","0","instructions","","","","","","","","","","","","","",""
"learning-instructions","10","68687","0.0-8.0-0.0-0.2","1615","2","2","""event"",""trial"",""time""
""fullscreenenter"",""1"",""7327""
","
","
","""event"",""trial"",""time""
""fullscreenenter"",""1"",""7327""
","
","","","","","","1617","<p> Your goal in this round is to deliver sports equipment to three different parks. </p><p> You will need to deliver many types of equipment. </p></div>","","0","instructions","","","","","","","","","","","","","",""
"learning-instructions","11","77966","0.0-8.0-0.0-0.3","1615","2","2","""event"",""trial"",""time""
""fullscreenenter"",""1"",""7327""
","
","
","""event"",""trial"",""time""
""fullscreenenter"",""1"",""7327""
","
","","","","","","778","<p> On each turn, you will see one piece of sports equipment and three different parks.  </p><p> You need to select which park to deliver the equipment to.  </p>","","0","instructions","","","","","","","","","","","","","",""
"learning-instructions","12","92926","0.0-8.0-0.0-0.4","1615","2","2","""event"",""trial"",""time""
""fullscreenenter"",""1"",""7327""
","
","
","""event"",""trial"",""time""
""fullscreenenter"",""1"",""7327""
","
","","","","","","1667","<p> You can select the park on the left by pressing the '1' key on your keyboard. <br>You can select the park in the middle by pressing the '2' key on your keyboard. <br>You can select the park on the right by pressing the '3' key on your keyboard.  </p><br><div class=""choice-instructions-grid""> <div class=""choice-option""><img src=""images/park1.png"" class=""choice-option-img"" stage=""instructions"" position=""0"" ><div class=""choice-option-text""> Press ""1."" </div></div><div class=""choice-option""><img src=""images/park2.png"" class=""choice-option-img"" stage=""instructions"" position=""1"" ><div class=""choice-option-text""> Press ""2."" </div></div><div class=""choice-option""><img src=""images/park3.png"" class=""choice-option-img"" stage=""instructions"" position=""2"" ><div class=""choice-option-text""> Press ""3."" </div></div></div>","","0","instructions","","","","","","","","","","","","","",""
"learning-instructions","13","99738","0.0-8.0-0.0-0.5","1615","2","2","""event"",""trial"",""time""
""fullscreenenter"",""1"",""7327""
","
","
","""event"",""trial"",""time""
""fullscreenenter"",""1"",""7327""
","
","","","","","","1410","<p> If the kids in the park you chose like the equipment, they will be very happy! </p><div style='float: center;'><img src='images/check.png' width = '200' height = '200'></img>","","0","instructions","","","","","","","","","","","","","",""
"learning-instructions","14","106933","0.0-8.0-0.0-0.6","1615","2","2","""event"",""trial"",""time""
""fullscreenenter"",""1"",""7327""
","
","
","""event"",""trial"",""time""
""fullscreenenter"",""1"",""7327""
","
","","","","","","1585","<p> But, if the kids in the park you chose do not like the equipment, they will be sad. </p><div style='float: center;'><img src='images/x.png' width = '200' height = '200'></img>","","0","instructions","","","","","","","","","","","","","",""
"learning-instructions","15","116965","0.0-8.0-0.0-0.7","1615","2","2","""event"",""trial"",""time""
""fullscreenenter"",""1"",""7327""
""blur"",""16"",""119157""
""focus"",""16"",""122809""
","""event"",""trial"",""time""
""blur"",""16"",""119157""
","""event"",""trial"",""time""
""focus"",""16"",""122809""
","""event"",""trial"",""time""
""fullscreenenter"",""1"",""7327""
","
","","","","","","3597","<p> Importantly, the kids in each park like some pieces of sports equipment more than others. </p>","","0","instructions","","","","","","","","","","","","","",""
"learning-instructions","16","124826","0.0-8.0-0.0-0.8","1615","2","2","""event"",""trial"",""time""
""fullscreenenter"",""1"",""7327""
""blur"",""16"",""119157""
""focus"",""16"",""122809""
","""event"",""trial"",""time""
""blur"",""16"",""119157""
","""event"",""trial"",""time""
""focus"",""16"",""122809""
","""event"",""trial"",""time""
""fullscreenenter"",""1"",""7327""
","
","","","","","","1787","<p> If you choose the best park for each piece of equipment, the kids there will usually be happy. </p>","","0","instructions","","","","","","","","","","","","","",""
"learning-instructions","17","134463","0.0-8.0-0.0-0.9","1615","2","2","""event"",""trial"",""time""
""fullscreenenter"",""1"",""7327""
""blur"",""16"",""119157""
""focus"",""16"",""122809""
","""event"",""trial"",""time""
""blur"",""16"",""119157""
","""event"",""trial"",""time""
""focus"",""16"",""122809""
","""event"",""trial"",""time""
""fullscreenenter"",""1"",""7327""
","
","","","","","","2983","<p> However, even if you choose the best park for the equipment, the kids may sometimes be sad. </p>","","0","instructions","","","","","","","","","","","","","",""
"learning-instructions","18","142834","0.0-8.0-0.0-0.10","1615","2","2","""event"",""trial"",""time""
""fullscreenenter"",""1"",""7327""
""blur"",""16"",""119157""
""focus"",""16"",""122809""
","""event"",""trial"",""time""
""blur"",""16"",""119157""
","""event"",""trial"",""time""
""focus"",""16"",""122809""
","""event"",""trial"",""time""
""fullscreenenter"",""1"",""7327""
","
","","","","","","1125","<p> Similarly, even if you choose the <i>wrong</i> park for the equipment, the kids may still be happy sometimes.","","0","instructions","","","","","","","","","","","","","",""
"learning-instructions","19","151287","0.0-8.0-0.0-0.11","1615","2","2","""event"",""trial"",""time""
""fullscreenenter"",""1"",""7327""
""blur"",""16"",""119157""
""focus"",""16"",""122809""
","""event"",""trial"",""time""
""blur"",""16"",""119157""
","""event"",""trial"",""time""
""focus"",""16"",""122809""
","""event"",""trial"",""time""
""fullscreenenter"",""1"",""7327""
","
","","","","","","3379","<p> For example, the best park for this soccer ball is this one.<div style='float: center;'><img src='images/i1.png' width = '500' height = '268'></img>","","0","instructions","","","","","","","","","","","","","",""
"learning-instructions","20","158767","0.0-8.0-0.0-0.12","1615","2","2","""event"",""trial"",""time""
""fullscreenenter"",""1"",""7327""
""blur"",""16"",""119157""
""focus"",""16"",""122809""
","""event"",""trial"",""time""
""blur"",""16"",""119157""
","""event"",""trial"",""time""
""focus"",""16"",""122809""
","""event"",""trial"",""time""
""fullscreenenter"",""1"",""7327""
","
","","","","","","2168","<p> Let's see what happens if you choose this park for the soccer ball five times.","","0","instructions","","","","","","","","","","","","","",""
"learning-instructions","21","164520","0.0-8.0-0.0-0.13","1615","2","2","""event"",""trial"",""time""
""fullscreenenter"",""1"",""7327""
""blur"",""16"",""119157""
""focus"",""16"",""122809""
","""event"",""trial"",""time""
""blur"",""16"",""119157""
","""event"",""trial"",""time""
""focus"",""16"",""122809""
","""event"",""trial"",""time""
""fullscreenenter"",""1"",""7327""
","
","","","","","","3582","<p> The kids are happy.<div style='float: left;'><img src='images/i2.png' width = '640' height = '360'></img>","","0","instructions","","","","","","","","","","","","","",""
"learning-instructions","22","168755","0.0-8.0-0.0-0.14","1615","2","2","""event"",""trial"",""time""
""fullscreenenter"",""1"",""7327""
""blur"",""16"",""119157""
""focus"",""16"",""122809""
","""event"",""trial"",""time""
""blur"",""16"",""119157""
","""event"",""trial"",""time""
""focus"",""16"",""122809""
","""event"",""trial"",""time""
""fullscreenenter"",""1"",""7327""
","
","","","","","","2056","<p> The kids are happy.<div style='float: left;'><img src='images/i3.png' width = '640' height = '360'></img>","","0","instructions","","","","","","","","","","","","","",""
"learning-instructions","23","173946","0.0-8.0-0.0-0.15","1615","2","2","""event"",""trial"",""time""
""fullscreenenter"",""1"",""7327""
""blur"",""16"",""119157""
""focus"",""16"",""122809""
","""event"",""trial"",""time""
""blur"",""16"",""119157""
","""event"",""trial"",""time""
""focus"",""16"",""122809""
","""event"",""trial"",""time""
""fullscreenenter"",""1"",""7327""
","
","","","","","","3007","<p> The kids are happy.<div style='float: left;'><img src='images/i4.png' width = '640' height = '360'></img>","","0","instructions","","","","","","","","","","","","","",""
"learning-instructions","24","177003","0.0-8.0-0.0-0.16","1615","2","2","""event"",""trial"",""time""
""fullscreenenter"",""1"",""7327""
""blur"",""16"",""119157""
""focus"",""16"",""122809""
","""event"",""trial"",""time""
""blur"",""16"",""119157""
","""event"",""trial"",""time""
""focus"",""16"",""122809""
","""event"",""trial"",""time""
""fullscreenenter"",""1"",""7327""
","
","","","","","","835","<p> The kids are sad.<div style='float: left;'><img src='images/i5.png' width = '640' height = '360'></img>","","0","instructions","","","","","","","","","","","","","",""
"learning-instructions","25","180523","0.0-8.0-0.0-0.17","1615","2","2","""event"",""trial"",""time""
""fullscreenenter"",""1"",""7327""
""blur"",""16"",""119157""
""focus"",""16"",""122809""
","""event"",""trial"",""time""
""blur"",""16"",""119157""
","""event"",""trial"",""time""
""focus"",""16"",""122809""
","""event"",""trial"",""time""
""fullscreenenter"",""1"",""7327""
","
","","","","","","1343","<p> The kids are happy.<div style='float: left;'><img src='images/i6.png' width = '640' height = '360'></img>","","0","instructions","","","","","","","","","","","","","",""
"learning-instructions","26","188412","0.0-8.0-0.0-0.18","1615","2","2","""event"",""trial"",""time""
""fullscreenenter"",""1"",""7327""
""blur"",""16"",""119157""
""focus"",""16"",""122809""
","""event"",""trial"",""time""
""blur"",""16"",""119157""
","""event"",""trial"",""time""
""focus"",""16"",""122809""
","""event"",""trial"",""time""
""fullscreenenter"",""1"",""7327""
","
","","","","","","604","<p> As you can see, selecting that park for the soccer ball made the kids happy most of the time, but not all the time.","","0","instructions","","","","","","","","","","","","","",""
"learning-instructions","27","196647","0.0-8.0-0.0-0.19","1615","2","2","""event"",""trial"",""time""
""fullscreenenter"",""1"",""7327""
""blur"",""16"",""119157""
""focus"",""16"",""122809""
","""event"",""trial"",""time""
""blur"",""16"",""119157""
","""event"",""trial"",""time""
""focus"",""16"",""122809""
","""event"",""trial"",""time""
""fullscreenenter"",""1"",""7327""
","
","","","","","","2218","<p> Now let's see what happens if you choose a DIFFERENT park for the soccer ball 5 times.","","0","instructions","","","","","","","","","","","","","",""
"learning-instructions","28","199686","0.0-8.0-0.0-0.20","1615","2","2","""event"",""trial"",""time""
""fullscreenenter"",""1"",""7327""
""blur"",""16"",""119157""
""focus"",""16"",""122809""
","""event"",""trial"",""time""
""blur"",""16"",""119157""
","""event"",""trial"",""time""
""focus"",""16"",""122809""
","""event"",""trial"",""time""
""fullscreenenter"",""1"",""7327""
","
","","","","","","818","<p> The kids are sad.<div style='float: left;'><img src='images/i7.png' width = '640' height = '360'></img>","","0","instructions","","","","","","","","","","","","","",""
"learning-instructions","29","202429","0.0-8.0-0.0-0.21","1615","2","2","""event"",""trial"",""time""
""fullscreenenter"",""1"",""7327""
""blur"",""16"",""119157""
""focus"",""16"",""122809""
","""event"",""trial"",""time""
""blur"",""16"",""119157""
","""event"",""trial"",""time""
""focus"",""16"",""122809""
","""event"",""trial"",""time""
""fullscreenenter"",""1"",""7327""
","
","","","","","","521","<p> The kids are sad.<div style='float: left;'><img src='images/i8.png' width = '640' height = '360'></img>","","0","instructions","","","","","","","","","","","","","",""
"learning-instructions","30","206084","0.0-8.0-0.0-0.22","1615","2","2","""event"",""trial"",""time""
""fullscreenenter"",""1"",""7327""
""blur"",""16"",""119157""
""focus"",""16"",""122809""
","""event"",""trial"",""time""
""blur"",""16"",""119157""
","""event"",""trial"",""time""
""focus"",""16"",""122809""
","""event"",""trial"",""time""
""fullscreenenter"",""1"",""7327""
","
","","","","","","1475","<p> The kids are happy.<div style='float: left;'><img src='images/i9.png' width = '640' height = '360'></img>","","0","instructions","","","","","","","","","","","","","",""
"learning-instructions","31","208859","0.0-8.0-0.0-0.23","1615","2","2","""event"",""trial"",""time""
""fullscreenenter"",""1"",""7327""
""blur"",""16"",""119157""
""focus"",""16"",""122809""
","""event"",""trial"",""time""
""blur"",""16"",""119157""
","""event"",""trial"",""time""
""focus"",""16"",""122809""
","""event"",""trial"",""time""
""fullscreenenter"",""1"",""7327""
","
","","","","","","549","<p> The kids are sad.<div style='float: left;'><img src='images/i10.png' width = '640' height = '360'></img>","","0","instructions","","","","","","","","","","","","","",""
"learning-instructions","32","213820","0.0-8.0-0.0-0.24","1615","2","2","""event"",""trial"",""time""
""fullscreenenter"",""1"",""7327""
""blur"",""16"",""119157""
""focus"",""16"",""122809""
","""event"",""trial"",""time""
""blur"",""16"",""119157""
","""event"",""trial"",""time""
""focus"",""16"",""122809""
","""event"",""trial"",""time""
""fullscreenenter"",""1"",""7327""
","
","","","","","","2752","<p> The kids are sad.<div style='float: left;'><img src='images/i11.png' width = '640' height = '360'></img>","","0","instructions","","","","","","","","","","","","","",""
"learning-instructions","33","222530","0.0-8.0-0.0-0.25","1615","2","2","""event"",""trial"",""time""
""fullscreenenter"",""1"",""7327""
""blur"",""16"",""119157""
""focus"",""16"",""122809""
","""event"",""trial"",""time""
""blur"",""16"",""119157""
","""event"",""trial"",""time""
""focus"",""16"",""122809""
","""event"",""trial"",""time""
""fullscreenenter"",""1"",""7327""
","
","","","","","","582","<p> As you can see, selecting the wrong park for the soccer ball made the kids sad most of the time, but not all the time.","","0","instructions","","","","","","","","","","","","","",""
"learning-instructions","34","232216","0.0-8.0-0.0-0.26","1615","2","2","""event"",""trial"",""time""
""fullscreenenter"",""1"",""7327""
""blur"",""16"",""119157""
""focus"",""16"",""122809""
","""event"",""trial"",""time""
""blur"",""16"",""119157""
","""event"",""trial"",""time""
""focus"",""16"",""122809""
","""event"",""trial"",""time""
""fullscreenenter"",""1"",""7327""
","
","","","","","","569","<p> The different pieces of equipment belong in different parks. You need to try to learn which is the best park for each piece of equipment.","","0","instructions","","","","","","","","","","","","","",""
"learning-instructions","35","249250","0.0-8.0-0.0-0.27","1615","2","2","""event"",""trial"",""time""
""fullscreenenter"",""1"",""7327""
""blur"",""16"",""119157""
""focus"",""16"",""122809""
","""event"",""trial"",""time""
""blur"",""16"",""119157""
","""event"",""trial"",""time""
""focus"",""16"",""122809""
","""event"",""trial"",""time""
""fullscreenenter"",""1"",""7327""
","
","","","","","","643","<p> Try to choose the best park for each piece of equipment, because you will <b> WIN </b> 1 point for each time you make the kids happy and <b>LOSE</b> 1 point for each time you make them sad. </p><p> Remember, if you make the best choice, you will win 1 point most of the time, but not all the time. </p>","","0","instructions","","","","","","","","","","","","","",""
"learning-instructions","36","257237","0.0-8.0-0.0-0.28","1615","2","2","""event"",""trial"",""time""
""fullscreenenter"",""1"",""7327""
""blur"",""16"",""119157""
""focus"",""16"",""122809""
","""event"",""trial"",""time""
""blur"",""16"",""119157""
","""event"",""trial"",""time""
""focus"",""16"",""122809""
","""event"",""trial"",""time""
""fullscreenenter"",""1"",""7327""
","
","","","","","","2488","<p> This is just a practice round, but in the real game, your bonus payment will depend on your total number of points.","","0","instructions","","","","","","","","","","","","","",""
"learning-instructions","37","268560","0.0-8.0-0.0-0.29","1615","2","2","""event"",""trial"",""time""
""fullscreenenter"",""1"",""7327""
""blur"",""16"",""119157""
""focus"",""16"",""122809""
","""event"",""trial"",""time""
""blur"",""16"",""119157""
","""event"",""trial"",""time""
""focus"",""16"",""122809""
","""event"",""trial"",""time""
""fullscreenenter"",""1"",""7327""
","
","","","","","","991","<p> The position where each park appears will change throughout the game. </p><p> The position where the park appears <i> does not </i> influence how likely the kids are to be happy or sad. </p>","","0","instructions","","","","","","","","","","","","","",""
"learning-instructions","38","281303","0.0-8.0-0.0-0.30","1615","2","2","""event"",""trial"",""time""
""fullscreenenter"",""1"",""7327""
""blur"",""16"",""119157""
""focus"",""16"",""122809""
","""event"",""trial"",""time""
""blur"",""16"",""119157""
","""event"",""trial"",""time""
""focus"",""16"",""122809""
","""event"",""trial"",""time""
""fullscreenenter"",""1"",""7327""
","
","","","","","","1454","<p> You will have 4 seconds to make each choice. Try to respond before time runs out! </p><p> You will lose 1 point each time you do not make a response. </p>","","0","instructions","","","","","","","","","","","","","",""
"learning-instructions","39","291977","0.0-8.0-0.0-0.31","1615","2","2","""event"",""trial"",""time""
""fullscreenenter"",""1"",""7327""
""blur"",""16"",""119157""
""focus"",""16"",""122809""
","""event"",""trial"",""time""
""blur"",""16"",""119157""
","""event"",""trial"",""time""
""focus"",""16"",""122809""
","""event"",""trial"",""time""
""fullscreenenter"",""1"",""7327""
","
","","","","","","3876","<p> Remember, you should use the 1, 2, and 3 keys to select the park for each piece of equipment. </p><br><div class=""choice-instructions-grid""> <div class=""choice-option""><img src=""images/park1.png"" class=""choice-option-img"" stage=""instructions"" position=""0"" ><div class=""choice-option-text""> Press ""1."" </div></div><div class=""choice-option""><img src=""images/park2.png"" class=""choice-option-img"" stage=""instructions"" position=""1"" ><div class=""choice-option-text""> Press ""2."" </div></div><div class=""choice-option""><img src=""images/park3.png"" class=""choice-option-img"" stage=""instructions"" position=""2"" ><div class=""choice-option-text""> Press ""3."" </div></div></div>","","0","instructions","","","","","","","","","","","","","",""
"html-button-response","40","297042","0.0-8.0-1.0","1615","2","2","""event"",""trial"",""time""
""fullscreenenter"",""1"",""7327""
""blur"",""16"",""119157""
""focus"",""16"",""122809""
","""event"",""trial"",""time""
""blur"",""16"",""119157""
","""event"",""trial"",""time""
""focus"",""16"",""122809""
","""event"",""trial"",""time""
""fullscreenenter"",""1"",""7327""
","
","","","","","","4955","<p> Ready to practice? </p>","0","","","","","","","","","","","","","","","",""
"html-keyboard-response","41","297651","0.0-8.0-2.0-0.0","1615","2","2","""event"",""trial"",""time""
""fullscreenenter"",""1"",""7327""
""blur"",""16"",""119157""
""focus"",""16"",""122809""
","""event"",""trial"",""time""
""blur"",""16"",""119157""
","""event"",""trial"",""time""
""focus"",""16"",""122809""
","""event"",""trial"",""time""
""fullscreenenter"",""1"",""7327""
","
","","","","","","null","<div style=""font-size:60px;"">+</div>","null","","fixation","","","","","","","","","","","","","",""
"learning-trial","42","301666","0.0-8.0-2.0-1.0","1615","2","2","""event"",""trial"",""time""
""fullscreenenter"",""1"",""7327""
""blur"",""16"",""119157""
""focus"",""16"",""122809""
","""event"",""trial"",""time""
""blur"",""16"",""119157""
","""event"",""trial"",""time""
""focus"",""16"",""122809""
","""event"",""trial"",""time""
""fullscreenenter"",""1"",""7327""
","
","","","","","","2437","images/racket4.png","","","practice","images/park1.png","images/park3.png","images/park2.png","[0,2,1]","0","0","2","images/park3.png","-1","practice","","","",""
"html-keyboard-response","43","302171","0.0-8.0-2.0-0.1","1615","2","2","""event"",""trial"",""time""
""fullscreenenter"",""1"",""7327""
""blur"",""16"",""119157""
""focus"",""16"",""122809""
","""event"",""trial"",""time""
""blur"",""16"",""119157""
","""event"",""trial"",""time""
""focus"",""16"",""122809""
","""event"",""trial"",""time""
""fullscreenenter"",""1"",""7327""
","
","","","","","","null","<div style=""font-size:60px;"">+</div>","null","","fixation","","","","","","","","","","","","","",""
"learning-trial","44","306175","0.0-8.0-2.0-1.1","1615","2","2","""event"",""trial"",""time""
""fullscreenenter"",""1"",""7327""
""blur"",""16"",""119157""
""focus"",""16"",""122809""
","""event"",""trial"",""time""
""blur"",""16"",""119157""
","""event"",""trial"",""time""
""focus"",""16"",""122809""
","""event"",""trial"",""time""
""fullscreenenter"",""1"",""7327""
","
","","","","","","2451","images/racket2.png","","","practice","images/park2.png","images/park3.png","images/park1.png","[1,2,0]","2","1","1","images/park2.png","-1","practice","","","",""
"html-keyboard-response","45","306680","0.0-8.0-2.0-0.2","1615","2","2","""event"",""trial"",""time""
""fullscreenenter"",""1"",""7327""
""blur"",""16"",""119157""
""focus"",""16"",""122809""
","""event"",""trial"",""time""
""blur"",""16"",""119157""
","""event"",""trial"",""time""
""focus"",""16"",""122809""
","""event"",""trial"",""time""
""fullscreenenter"",""1"",""7327""
","
","","","","","","null","<div style=""font-size:60px;"">+</div>","null","","fixation","","","","","","","","","","","","","",""
"learning-trial","46","310694","0.0-8.0-2.0-1.2","1615","2","2","""event"",""trial"",""time""
""fullscreenenter"",""1"",""7327""
""blur"",""16"",""119157""
""focus"",""16"",""122809""
","""event"",""trial"",""time""
""blur"",""16"",""119157""
","""event"",""trial"",""time""
""focus"",""16"",""122809""
","""event"",""trial"",""time""
""fullscreenenter"",""1"",""7327""
","
","","","","","","2387","images/ball2.png","","","practice","images/park2.png","images/park1.png","images/park3.png","[1,0,2]","2","2","2","images/park1.png","-1","practice","","","",""
"html-keyboard-response","47","311205","0.0-8.0-2.0-0.3","1615","2","2","""event"",""trial"",""time""
""fullscreenenter"",""1"",""7327""
""blur"",""16"",""119157""
""focus"",""16"",""122809""
","""event"",""trial"",""time""
""blur"",""16"",""119157""
","""event"",""trial"",""time""
""focus"",""16"",""122809""
","""event"",""trial"",""time""
""fullscreenenter"",""1"",""7327""
","
","","","","","","null","<div style=""font-size:60px;"">+</div>","null","","fixation","","","","","","","","","","","","","",""
"learning-trial","48","315211","0.0-8.0-2.0-1.3","1615","2","2","""event"",""trial"",""time""
""fullscreenenter"",""1"",""7327""
""blur"",""16"",""119157""
""focus"",""16"",""122809""
","""event"",""trial"",""time""
""blur"",""16"",""119157""
","""event"",""trial"",""time""
""focus"",""16"",""122809""
","""event"",""trial"",""time""
""fullscreenenter"",""1"",""7327""
","
","","","","","","2435","images/ball4.png","","","practice","images/park3.png","images/park1.png","images/park2.png","[2,0,1]","1","2","3","images/park2.png","1","practice","","","",""
"html-keyboard-response","49","315715","0.0-8.0-2.0-0.4","1615","2","2","""event"",""trial"",""time""
""fullscreenenter"",""1"",""7327""
""blur"",""16"",""119157""
""focus"",""16"",""122809""
","""event"",""trial"",""time""
""blur"",""16"",""119157""
","""event"",""trial"",""time""
""focus"",""16"",""122809""
","""event"",""trial"",""time""
""fullscreenenter"",""1"",""7327""
","
","","","","","","null","<div style=""font-size:60px;"">+</div>","null","","fixation","","","","","","","","","","","","","",""
"learning-trial","50","319726","0.0-8.0-2.0-1.4","1615","2","2","""event"",""trial"",""time""
""fullscreenenter"",""1"",""7327""
""blur"",""16"",""119157""
""focus"",""16"",""122809""
","""event"",""trial"",""time""
""blur"",""16"",""119157""
","""event"",""trial"",""time""
""focus"",""16"",""122809""
","""event"",""trial"",""time""
""fullscreenenter"",""1"",""7327""
","
","","","","","","1862","images/ball1.png","","","practice","images/park2.png","images/park3.png","images/park1.png","[1,2,0]","0","2","2","images/park3.png","-1","practice","","","",""
"html-keyboard-response","51","320240","0.0-8.0-2.0-0.5","1615","2","2","""event"",""trial"",""time""
""fullscreenenter"",""1"",""7327""
""blur"",""16"",""119157""
""focus"",""16"",""122809""
","""event"",""trial"",""time""
""blur"",""16"",""119157""
","""event"",""trial"",""time""
""focus"",""16"",""122809""
","""event"",""trial"",""time""
""fullscreenenter"",""1"",""7327""
","
","","","","","","null","<div style=""font-size:60px;"">+</div>","null","","fixation","","","","","","","","","","","","","",""
"learning-trial","52","324247","0.0-8.0-2.0-1.5","1615","2","2","""event"",""trial"",""time""
""fullscreenenter"",""1"",""7327""
""blur"",""16"",""119157""
""focus"",""16"",""122809""
","""event"",""trial"",""time""
""blur"",""16"",""119157""
","""event"",""trial"",""time""
""focus"",""16"",""122809""
","""event"",""trial"",""time""
""fullscreenenter"",""1"",""7327""
","
","","","","","","1984","images/racket2.png","","","practice","images/park3.png","images/park2.png","images/park1.png","[2,1,0]","2","0","1","images/park3.png","1","practice","","","",""
"html-keyboard-response","53","324761","0.0-8.0-2.0-0.6","1615","2","2","""event"",""trial"",""time""
""fullscreenenter"",""1"",""7327""
""blur"",""16"",""119157""
""focus"",""16"",""122809""
","""event"",""trial"",""time""
""blur"",""16"",""119157""
","""event"",""trial"",""time""
""focus"",""16"",""122809""
","""event"",""trial"",""time""
""fullscreenenter"",""1"",""7327""
","
","","","","","","null","<div style=""font-size:60px;"">+</div>","null","","fixation","","","","","","","","","","","","","",""
"learning-trial","54","328777","0.0-8.0-2.0-1.6","1615","2","2","""event"",""trial"",""time""
""fullscreenenter"",""1"",""7327""
""blur"",""16"",""119157""
""focus"",""16"",""122809""
","""event"",""trial"",""time""
""blur"",""16"",""119157""
","""event"",""trial"",""time""
""focus"",""16"",""122809""
","""event"",""trial"",""time""
""fullscreenenter"",""1"",""7327""
","
","","","","","","2117","images/racket4.png","","","practice","images/park1.png","images/park2.png","images/park3.png","[0,1,2]","0","0","2","images/park2.png","-1","practice","","","",""
"html-keyboard-response","55","329281","0.0-8.0-2.0-0.7","1615","2","2","""event"",""trial"",""time""
""fullscreenenter"",""1"",""7327""
""blur"",""16"",""119157""
""focus"",""16"",""122809""
","""event"",""trial"",""time""
""blur"",""16"",""119157""
","""event"",""trial"",""time""
""focus"",""16"",""122809""
","""event"",""trial"",""time""
""fullscreenenter"",""1"",""7327""
","
","","","","","","null","<div style=""font-size:60px;"">+</div>","null","","fixation","","","","","","","","","","","","","",""
"learning-trial","56","333286","0.0-8.0-2.0-1.7","1615","2","2","""event"",""trial"",""time""
""fullscreenenter"",""1"",""7327""
""blur"",""16"",""119157""
""focus"",""16"",""122809""
","""event"",""trial"",""time""
""blur"",""16"",""119157""
","""event"",""trial"",""time""
""focus"",""16"",""122809""
","""event"",""trial"",""time""
""fullscreenenter"",""1"",""7327""
","
","","","","","","2157","images/ball4.png","","","practice","images/park1.png","images/park2.png","images/park3.png","[0,1,2]","1","1","2","images/park2.png","1","practice","","","",""
"html-keyboard-response","57","333790","0.0-8.0-2.0-0.8","1615","2","2","""event"",""trial"",""time""
""fullscreenenter"",""1"",""7327""
""blur"",""16"",""119157""
""focus"",""16"",""122809""
","""event"",""trial"",""time""
""blur"",""16"",""119157""
","""event"",""trial"",""time""
""focus"",""16"",""122809""
","""event"",""trial"",""time""
""fullscreenenter"",""1"",""7327""
","
","","","","","","null","<div style=""font-size:60px;"">+</div>","null","","fixation","","","","","","","","","","","","","",""
"learning-trial","58","337801","0.0-8.0-2.0-1.8","1615","2","2","""event"",""trial"",""time""
""fullscreenenter"",""1"",""7327""
""blur"",""16"",""119157""
""focus"",""16"",""122809""
","""event"",""trial"",""time""
""blur"",""16"",""119157""
","""event"",""trial"",""time""
""focus"",""16"",""122809""
","""event"",""trial"",""time""
""fullscreenenter"",""1"",""7327""
","
","","","","","","2247","images/racket3.png","","","practice","images/park3.png","images/park1.png","images/park2.png","[2,0,1]","1","2","2","images/park1.png","-1","practice","","","",""
"html-keyboard-response","59","338310","0.0-8.0-2.0-0.9","1615","2","2","""event"",""trial"",""time""
""fullscreenenter"",""1"",""7327""
""blur"",""16"",""119157""
""focus"",""16"",""122809""
","""event"",""trial"",""time""
""blur"",""16"",""119157""
","""event"",""trial"",""time""
""focus"",""16"",""122809""
","""event"",""trial"",""time""
""fullscreenenter"",""1"",""7327""
","
","","","","","","null","<div style=""font-size:60px;"">+</div>","null","","fixation","","","","","","","","","","","","","",""
"learning-trial","60","342326","0.0-8.0-2.0-1.9","1615","2","2","""event"",""trial"",""time""
""fullscreenenter"",""1"",""7327""
""blur"",""16"",""119157""
""focus"",""16"",""122809""
","""event"",""trial"",""time""
""blur"",""16"",""119157""
","""event"",""trial"",""time""
""focus"",""16"",""122809""
","""event"",""trial"",""time""
""fullscreenenter"",""1"",""7327""
","
","","","","","","3038","images/ball1.png","","","practice","images/park1.png","images/park3.png","images/park2.png","[0,2,1]","0","0","3","images/park2.png","-1","practice","","","",""
"html-keyboard-response","61","342841","0.0-8.0-2.0-0.10","1615","2","2","""event"",""trial"",""time""
""fullscreenenter"",""1"",""7327""
""blur"",""16"",""119157""
""focus"",""16"",""122809""
","""event"",""trial"",""time""
""blur"",""16"",""119157""
","""event"",""trial"",""time""
""focus"",""16"",""122809""
","""event"",""trial"",""time""
""fullscreenenter"",""1"",""7327""
","
","","","","","","null","<div style=""font-size:60px;"">+</div>","null","","fixation","","","","","","","","","","","","","",""
"learning-trial","62","346845","0.0-8.0-2.0-1.10","1615","2","2","""event"",""trial"",""time""
""fullscreenenter"",""1"",""7327""
""blur"",""16"",""119157""
""focus"",""16"",""122809""
","""event"",""trial"",""time""
""blur"",""16"",""119157""
","""event"",""trial"",""time""
""focus"",""16"",""122809""
","""event"",""trial"",""time""
""fullscreenenter"",""1"",""7327""
","
","","","","","","1805","images/ball2.png","","","practice","images/park2.png","images/park3.png","images/park1.png","[1,2,0]","2","1","3","images/park1.png","-1","practice","","","",""
"html-keyboard-response","63","347351","0.0-8.0-2.0-0.11","1615","2","2","""event"",""trial"",""time""
""fullscreenenter"",""1"",""7327""
""blur"",""16"",""119157""
""focus"",""16"",""122809""
","""event"",""trial"",""time""
""blur"",""16"",""119157""
","""event"",""trial"",""time""
""focus"",""16"",""122809""
","""event"",""trial"",""time""
""fullscreenenter"",""1"",""7327""
","
","","","","","","null","<div style=""font-size:60px;"">+</div>","null","","fixation","","","","","","","","","","","","","",""
"learning-trial","64","351365","0.0-8.0-2.0-1.11","1615","2","2","""event"",""trial"",""time""
""fullscreenenter"",""1"",""7327""
""blur"",""16"",""119157""
""focus"",""16"",""122809""
","""event"",""trial"",""time""
""blur"",""16"",""119157""
","""event"",""trial"",""time""
""focus"",""16"",""122809""
","""event"",""trial"",""time""
""fullscreenenter"",""1"",""7327""
","
","","","","","","2446","images/racket3.png","","","practice","images/park2.png","images/park1.png","images/park3.png","[1,0,2]","1","0","3","images/park3.png","-1","practice","","","",""
"html-button-response","65","355505","0.0-8.0-3.0","1615","2","2","""event"",""trial"",""time""
""fullscreenenter"",""1"",""7327""
""blur"",""16"",""119157""
""focus"",""16"",""122809""
","""event"",""trial"",""time""
""blur"",""16"",""119157""
","""event"",""trial"",""time""
""focus"",""16"",""122809""
","""event"",""trial"",""time""
""fullscreenenter"",""1"",""7327""
","
","","","","","","4137","<p> You earned -6 points in the practice round! </p>","0","","break","","","","","","","","","","","","","",""
"learning-instructions","66","368879","0.0-8.0-4.0-0.0","1615","2","2","""event"",""trial"",""time""
""fullscreenenter"",""1"",""7327""
""blur"",""16"",""119157""
""focus"",""16"",""122809""
","""event"",""trial"",""time""
""blur"",""16"",""119157""
","""event"",""trial"",""time""
""focus"",""16"",""122809""
","""event"",""trial"",""time""
""fullscreenenter"",""1"",""7327""
","
","","","","","","5701","<p> It's almost time to start the real game. </p><p> Before you start, we're going to ask you a few questions about how the game works. </p>","","0","instructions","","","","","","","","","","","","","",""
"preload","67","371478","0.0-8.0-5.0","1615","2","2","""event"",""trial"",""time""
""fullscreenenter"",""1"",""7327""
""blur"",""16"",""119157""
""focus"",""16"",""122809""
","""event"",""trial"",""time""
""blur"",""16"",""119157""
","""event"",""trial"",""time""
""focus"",""16"",""122809""
","""event"",""trial"",""time""
""fullscreenenter"",""1"",""7327""
","
","true","false","[]","[]","[]","","","","","","","","","","","","","","","","","","",""
"comp-q","68","381290","0.0-8.0-6.0-0.0","1615","2","2","""event"",""trial"",""time""
""fullscreenenter"",""1"",""7327""
""blur"",""16"",""119157""
""focus"",""16"",""122809""
","""event"",""trial"",""time""
""blur"",""16"",""119157""
","""event"",""trial"",""time""
""focus"",""16"",""122809""
","""event"",""trial"",""time""
""fullscreenenter"",""1"",""7327""
","
","","","","","","4351","<p> <b> True or False? </b> </p><p> If you choose the best option, you will always earn 1 point. </p>","","0","comp_question","","","","","","","","","","","false","","",""
"comp-q","69","388426","0.0-8.0-6.0-1.0","1615","2","2","""event"",""trial"",""time""
""fullscreenenter"",""1"",""7327""
""blur"",""16"",""119157""
""focus"",""16"",""122809""
","""event"",""trial"",""time""
""blur"",""16"",""119157""
","""event"",""trial"",""time""
""focus"",""16"",""122809""
","""event"",""trial"",""time""
""fullscreenenter"",""1"",""7327""
","
","","","","","","1579","<p><b> Incorrect. </b> Sometimes you will lose 1 point, even if you choose the best option. </p>","","0","comp_answer","","","","","","","","","","","","","",""
"comp-q","70","393950","0.0-8.0-6.0-0.1","1615","2","2","""event"",""trial"",""time""
""fullscreenenter"",""1"",""7327""
""blur"",""16"",""119157""
""focus"",""16"",""122809""
","""event"",""trial"",""time""
""blur"",""16"",""119157""
","""event"",""trial"",""time""
""focus"",""16"",""122809""
","""event"",""trial"",""time""
""fullscreenenter"",""1"",""7327""
","
","","","","","","881","<p> <b> True or False? </b> </p><p> You will have as much time as you want to make each choice. </p>","","1","comp_question","","","","","","","","","","","true","","",""
"comp-q","71","400669","0.0-8.0-6.0-1.1","1615","2","2","""event"",""trial"",""time""
""fullscreenenter"",""1"",""7327""
""blur"",""16"",""119157""
""focus"",""16"",""122809""
","""event"",""trial"",""time""
""blur"",""16"",""119157""
","""event"",""trial"",""time""
""focus"",""16"",""122809""
","""event"",""trial"",""time""
""fullscreenenter"",""1"",""7327""
","
","","","","","","1881","<p> <b> That's right! </b> You will only have 4 seconds to make each choice. </p>","","0","comp_answer","","","","","","","","","","","","","",""
"comp-q","72","407924","0.0-8.0-6.0-0.2","1615","2","2","""event"",""trial"",""time""
""fullscreenenter"",""1"",""7327""
""blur"",""16"",""119157""
""focus"",""16"",""122809""
","""event"",""trial"",""time""
""blur"",""16"",""119157""
","""event"",""trial"",""time""
""focus"",""16"",""122809""
","""event"",""trial"",""time""
""fullscreenenter"",""1"",""7327""
","
","","","","","","1086","<p> <b> True or False? </b> </p><p> You should use the '1', '2', and '3' keys to make your choices. </p>","","0","comp_question","","","","","","","","","","","true","","",""
"comp-q","73","414386","0.0-8.0-6.0-1.2","1615","2","2","""event"",""trial"",""time""
""fullscreenenter"",""1"",""7327""
""blur"",""16"",""119157""
""focus"",""16"",""122809""
","""event"",""trial"",""time""
""blur"",""16"",""119157""
","""event"",""trial"",""time""
""focus"",""16"",""122809""
","""event"",""trial"",""time""
""fullscreenenter"",""1"",""7327""
","
","","","","","","1608","<p> <b> That's right! </b> You should use the '1', '2', and '3' keys to make each choice. </p>","","0","comp_answer","","","","","","","","","","","","","",""
"learning-instructions","74","424451","0.0-8.0-7.0-0.0","1615","2","2","""event"",""trial"",""time""
""fullscreenenter"",""1"",""7327""
""blur"",""16"",""119157""
""focus"",""16"",""122809""
","""event"",""trial"",""time""
""blur"",""16"",""119157""
","""event"",""trial"",""time""
""focus"",""16"",""122809""
","""event"",""trial"",""time""
""fullscreenenter"",""1"",""7327""
","
","","","","","","1552","<p> It's now time to start the real game. </p>Do your best, because the points you earn in the next rounds will influence your bonus payment. </p>","","0","instructions","","","","","","","","","","","","","",""
"preload","75","428063","0.0-9.0-0.0","1615","2","2","""event"",""trial"",""time""
""fullscreenenter"",""1"",""7327""
""blur"",""16"",""119157""
""focus"",""16"",""122809""
","""event"",""trial"",""time""
""blur"",""16"",""119157""
","""event"",""trial"",""time""
""focus"",""16"",""122809""
","""event"",""trial"",""time""
""fullscreenenter"",""1"",""7327""
","
","true","false","[]","[]","[]","","","","","","","","","","","","","","","","","","",""
"learning-instructions","76","438580","0.0-9.0-1.0-0.0","1615","2","2","""event"",""trial"",""time""
""fullscreenenter"",""1"",""7327""
""blur"",""16"",""119157""
""focus"",""16"",""122809""
","""event"",""trial"",""time""
""blur"",""16"",""119157""
","""event"",""trial"",""time""
""focus"",""16"",""122809""
","""event"",""trial"",""time""
""fullscreenenter"",""1"",""7327""
","
","","","","","","2181","<p> Your goal in this round is to travel the world by putting fuel into different vehicles. </p><p> To travel, you will need to put fuel into many different vehicles. </p></div>","","0","instructions","","","","","","","","","","","","","",""
"learning-instructions","77","448386","0.0-9.0-1.0-0.1","1615","2","2","""event"",""trial"",""time""
""fullscreenenter"",""1"",""7327""
""blur"",""16"",""119157""
""focus"",""16"",""122809""
","""event"",""trial"",""time""
""blur"",""16"",""119157""
","""event"",""trial"",""time""
""focus"",""16"",""122809""
","""event"",""trial"",""time""
""fullscreenenter"",""1"",""7327""
","
","","","","","","1017","<p> On each turn, you will see a picture of one of your vehicles and three different types of fuel.  </p><p> You need to select which kind of fuel to use.  </p>","","0","instructions","","","","","","","","","","","","","",""
"learning-instructions","78","458419","0.0-9.0-1.0-0.2","1615","2","2","""event"",""trial"",""time""
""fullscreenenter"",""1"",""7327""
""blur"",""16"",""119157""
""focus"",""16"",""122809""
","""event"",""trial"",""time""
""blur"",""16"",""119157""
","""event"",""trial"",""time""
""focus"",""16"",""122809""
","""event"",""trial"",""time""
""fullscreenenter"",""1"",""7327""
","
","","","","","","3150","<p> You can select the fuel on the left by pressing 1, the fuel in the middle by pressing 2, and the fuel on the right by pressing 3. </p><br><div class=""choice-instructions-grid""> <div class=""choice-option""><img src=""images/vehicles_choice1.png"" class=""choice-option-img"" stage=""instructions"" position=""0"" ><div class=""choice-option-text""> Press ""1."" </div></div><div class=""choice-option""><img src=""images/vehicles_choice2.png"" class=""choice-option-img"" stage=""instructions"" position=""1"" ><div class=""choice-option-text""> Press ""2."" </div></div><div class=""choice-option""><img src=""images/vehicles_choice3.png"" class=""choice-option-img"" stage=""instructions"" position=""2"" ><div class=""choice-option-text""> Press ""3."" </div></div></div>","","0","instructions","","","","","","","","","","","","","",""
"learning-instructions","79","466782","0.0-9.0-1.0-0.3","1615","2","2","""event"",""trial"",""time""
""fullscreenenter"",""1"",""7327""
""blur"",""16"",""119157""
""focus"",""16"",""122809""
","""event"",""trial"",""time""
""blur"",""16"",""119157""
","""event"",""trial"",""time""
""focus"",""16"",""122809""
","""event"",""trial"",""time""
""fullscreenenter"",""1"",""7327""
","
","","","","","","3123","<p> If the fuel you chose works for that vehicle, it will start, and </p><p> you will get to travel. </p><div style='float: center;'><img src='images/check.png' width = '200' height = '200'></img>","","0","instructions","","","","","","","","","","","","","",""
"learning-instructions","80","474015","0.0-9.0-1.0-0.4","1615","2","2","""event"",""trial"",""time""
""fullscreenenter"",""1"",""7327""
""blur"",""16"",""119157""
""focus"",""16"",""122809""
","""event"",""trial"",""time""
""blur"",""16"",""119157""
","""event"",""trial"",""time""
""focus"",""16"",""122809""
","""event"",""trial"",""time""
""fullscreenenter"",""1"",""7327""
","
","","","","","","2676","<p> But, if the fuel you chose does not work, your vehicle will not move. </p><div style='float: center;'><img src='images/x.png' width = '200' height = '200'></img>","","0","instructions","","","","","","","","","","","","","",""
"learning-instructions","81","487600","0.0-9.0-1.0-0.5","1615","2","2","""event"",""trial"",""time""
""fullscreenenter"",""1"",""7327""
""blur"",""16"",""119157""
""focus"",""16"",""122809""
","""event"",""trial"",""time""
""blur"",""16"",""119157""
","""event"",""trial"",""time""
""focus"",""16"",""122809""
","""event"",""trial"",""time""
""fullscreenenter"",""1"",""7327""
","
","","","","","","2892","<p> Importantly, each vehicle has a fuel that works best for it. </p><p> If you choose the fuel that works best for the vehicle, it will be more likely to start. </p>","","0","instructions","","","","","","","","","","","","","",""
"learning-instructions","82","498432","0.0-9.0-1.0-0.6","1615","2","2","""event"",""trial"",""time""
""fullscreenenter"",""1"",""7327""
""blur"",""16"",""119157""
""focus"",""16"",""122809""
","""event"",""trial"",""time""
""blur"",""16"",""119157""
","""event"",""trial"",""time""
""focus"",""16"",""122809""
","""event"",""trial"",""time""
""fullscreenenter"",""1"",""7327""
","
","","","","","","614","<p> However, even if you choose the best fuel for the vehicle, it may still not move. </p><p> Similarly, even if you choose the <i>wrong</i> fuel, the vehicle may still start and let you travel.","","0","instructions","","","","","","","","","","","","","",""
"learning-instructions","83","511922","0.0-9.0-1.0-0.7","1615","2","2","""event"",""trial"",""time""
""fullscreenenter"",""1"",""7327""
""blur"",""16"",""119157""
""focus"",""16"",""122809""
","""event"",""trial"",""time""
""blur"",""16"",""119157""
","""event"",""trial"",""time""
""focus"",""16"",""122809""
","""event"",""trial"",""time""
""fullscreenenter"",""1"",""7327""
","
","","","","","","1134","<p> Try to choose the best fuel for each vehicle, because you will <b> WIN </b> 1 point each time you get to travel and <b>LOSE</b> 1 point each time a vehicle does not start. </p><p> Your bonus payment will depend on your total number of points.","","0","instructions","","","","","","","","","","","","","",""
"learning-instructions","84","521296","0.0-9.0-1.0-0.8","1615","2","2","""event"",""trial"",""time""
""fullscreenenter"",""1"",""7327""
""blur"",""16"",""119157""
""focus"",""16"",""122809""
","""event"",""trial"",""time""
""blur"",""16"",""119157""
","""event"",""trial"",""time""
""focus"",""16"",""122809""
","""event"",""trial"",""time""
""fullscreenenter"",""1"",""7327""
","
","","","","","","1108","<p> The position of each type of fuel will change throughout the round. </p><p> The fuel's position <i> does not </i> influence how likely it is to make each vehicle start. </p>","","0","instructions","","","","","","","","","","","","","",""
"learning-instructions","85","531344","0.0-9.0-1.0-0.9","1615","2","2","""event"",""trial"",""time""
""fullscreenenter"",""1"",""7327""
""blur"",""16"",""119157""
""focus"",""16"",""122809""
","""event"",""trial"",""time""
""blur"",""16"",""119157""
","""event"",""trial"",""time""
""focus"",""16"",""122809""
","""event"",""trial"",""time""
""fullscreenenter"",""1"",""7327""
","
","","","","","","748","<p> You will have 4 seconds to make each choice. Try to respond before time runs out! </p><p> You will lose 1 point each time you do not make a response. </p>","","0","instructions","","","","","","","","","","","","","",""
"html-keyboard-response","86","531956","0.0-9.0-2.0-0.0","1615","2","2","""event"",""trial"",""time""
""fullscreenenter"",""1"",""7327""
""blur"",""16"",""119157""
""focus"",""16"",""122809""
","""event"",""trial"",""time""
""blur"",""16"",""119157""
","""event"",""trial"",""time""
""focus"",""16"",""122809""
","""event"",""trial"",""time""
""fullscreenenter"",""1"",""7327""
","
","","","","","","null","<div style=""font-size:60px;"">+</div>","null","","fixation","","","","","","","","","","","","","",""
"learning-trial","87","535965","0.0-9.0-2.0-1.0","1615","2","2","""event"",""trial"",""time""
""fullscreenenter"",""1"",""7327""
""blur"",""16"",""119157""
""focus"",""16"",""122809""
","""event"",""trial"",""time""
""blur"",""16"",""119157""
","""event"",""trial"",""time""
""focus"",""16"",""122809""
","""event"",""trial"",""time""
""fullscreenenter"",""1"",""7327""
","
","","","","","","2111","images/boat1.png","","","learning","images/vehicles_choice2.png","images/vehicles_choice3.png","images/vehicles_choice1.png","[1,2,0]","1","0","3","images/vehicles_choice1.png","-1","vehicles","","boat","2","0"
"html-keyboard-response","88","536476","0.0-9.0-2.0-0.1","1615","2","2","""event"",""trial"",""time""
""fullscreenenter"",""1"",""7327""
""blur"",""16"",""119157""
""focus"",""16"",""122809""
","""event"",""trial"",""time""
""blur"",""16"",""119157""
","""event"",""trial"",""time""
""focus"",""16"",""122809""
","""event"",""trial"",""time""
""fullscreenenter"",""1"",""7327""
","
","","","","","","null","<div style=""font-size:60px;"">+</div>","null","","fixation","","","","","","","","","","","","","",""
"learning-trial","89","540491","0.0-9.0-2.0-1.1","1615","2","2","""event"",""trial"",""time""
""fullscreenenter"",""1"",""7327""
""blur"",""16"",""119157""
""focus"",""16"",""122809""
","""event"",""trial"",""time""
""blur"",""16"",""119157""
","""event"",""trial"",""time""
""focus"",""16"",""122809""
","""event"",""trial"",""time""
""fullscreenenter"",""1"",""7327""
","
","","","","","","1898","images/boat4.png","","","learning","images/vehicles_choice3.png","images/vehicles_choice2.png","images/vehicles_choice1.png","[2,1,0]","2","0","1","images/vehicles_choice3.png","-1","vehicles","","boat","2","0"
"html-keyboard-response","90","541000","0.0-9.0-2.0-0.2","1615","2","2","""event"",""trial"",""time""
""fullscreenenter"",""1"",""7327""
""blur"",""16"",""119157""
""focus"",""16"",""122809""
","""event"",""trial"",""time""
""blur"",""16"",""119157""
","""event"",""trial"",""time""
""focus"",""16"",""122809""
","""event"",""trial"",""time""
""fullscreenenter"",""1"",""7327""
","
","","","","","","null","<div style=""font-size:60px;"">+</div>","null","","fixation","","","","","","","","","","","","","",""
"learning-trial","91","545001","0.0-9.0-2.0-1.2","1615","2","2","""event"",""trial"",""time""
""fullscreenenter"",""1"",""7327""
""blur"",""16"",""119157""
""focus"",""16"",""122809""
","""event"",""trial"",""time""
""blur"",""16"",""119157""
","""event"",""trial"",""time""
""focus"",""16"",""122809""
","""event"",""trial"",""time""
""fullscreenenter"",""1"",""7327""
","
","","","","","","1616","images/boat3.png","","","learning","images/vehicles_choice2.png","images/vehicles_choice1.png","images/vehicles_choice3.png","[1,0,2]","0","1","1","images/vehicles_choice2.png","-1","vehicles","","boat","2","0"
"html-keyboard-response","92","545510","0.0-9.0-2.0-0.3","1615","2","2","""event"",""trial"",""time""
""fullscreenenter"",""1"",""7327""
""blur"",""16"",""119157""
""focus"",""16"",""122809""
","""event"",""trial"",""time""
""blur"",""16"",""119157""
","""event"",""trial"",""time""
""focus"",""16"",""122809""
","""event"",""trial"",""time""
""fullscreenenter"",""1"",""7327""
","
","","","","","","null","<div style=""font-size:60px;"">+</div>","null","","fixation","","","","","","","","","","","","","",""
"learning-trial","93","549521","0.0-9.0-2.0-1.3","1615","2","2","""event"",""trial"",""time""
""fullscreenenter"",""1"",""7327""
""blur"",""16"",""119157""
""focus"",""16"",""122809""
","""event"",""trial"",""time""
""blur"",""16"",""119157""
","""event"",""trial"",""time""
""focus"",""16"",""122809""
","""event"",""trial"",""time""
""fullscreenenter"",""1"",""7327""
","
","","","","","","1911","images/train2.png","","","learning","images/vehicles_choice2.png","images/vehicles_choice3.png","images/vehicles_choice1.png","[1,2,0]","2","1","2","images/vehicles_choice3.png","1","vehicles","","train","2","0"
"html-keyboard-response","94","550026","0.0-9.0-2.0-0.4","1615","2","2","""event"",""trial"",""time""
""fullscreenenter"",""1"",""7327""
""blur"",""16"",""119157""
""focus"",""16"",""122809""
","""event"",""trial"",""time""
""blur"",""16"",""119157""
","""event"",""trial"",""time""
""focus"",""16"",""122809""
","""event"",""trial"",""time""
""fullscreenenter"",""1"",""7327""
","
","","","","","","null","<div style=""font-size:60px;"">+</div>","null","","fixation","","","","","","","","","","","","","",""
"learning-trial","95","554035","0.0-9.0-2.0-1.4","1615","2","2","""event"",""trial"",""time""
""fullscreenenter"",""1"",""7327""
""blur"",""16"",""119157""
""focus"",""16"",""122809""
","""event"",""trial"",""time""
""blur"",""16"",""119157""
","""event"",""trial"",""time""
""focus"",""16"",""122809""
","""event"",""trial"",""time""
""fullscreenenter"",""1"",""7327""
","
","","","","","","2055","images/plane3.png","","","learning","images/vehicles_choice1.png","images/vehicles_choice3.png","images/vehicles_choice2.png","[0,2,1]","2","1","1","images/vehicles_choice1.png","-1","vehicles","","plane","2","0"
"html-keyboard-response","96","554551","0.0-9.0-2.0-0.5","1615","2","2","""event"",""trial"",""time""
""fullscreenenter"",""1"",""7327""
""blur"",""16"",""119157""
""focus"",""16"",""122809""
","""event"",""trial"",""time""
""blur"",""16"",""119157""
","""event"",""trial"",""time""
""focus"",""16"",""122809""
","""event"",""trial"",""time""
""fullscreenenter"",""1"",""7327""
","
","","","","","","null","<div style=""font-size:60px;"">+</div>","null","","fixation","","","","","","","","","","","","","",""
"learning-trial","97","558565","0.0-9.0-2.0-1.5","1615","2","2","""event"",""trial"",""time""
""fullscreenenter"",""1"",""7327""
""blur"",""16"",""119157""
""focus"",""16"",""122809""
","""event"",""trial"",""time""
""blur"",""16"",""119157""
","""event"",""trial"",""time""
""focus"",""16"",""122809""
","""event"",""trial"",""time""
""fullscreenenter"",""1"",""7327""
","
","","","","","","3276","images/train2.png","","","learning","images/vehicles_choice3.png","images/vehicles_choice1.png","images/vehicles_choice2.png","[2,0,1]","2","0","1","images/vehicles_choice3.png","1","vehicles","","train","2","0"
"html-keyboard-response","98","559076","0.0-9.0-2.0-0.6","1615","2","2","""event"",""trial"",""time""
""fullscreenenter"",""1"",""7327""
""blur"",""16"",""119157""
""focus"",""16"",""122809""
","""event"",""trial"",""time""
""blur"",""16"",""119157""
","""event"",""trial"",""time""
""focus"",""16"",""122809""
","""event"",""trial"",""time""
""fullscreenenter"",""1"",""7327""
","
","","","","","","null","<div style=""font-size:60px;"">+</div>","null","","fixation","","","","","","","","","","","","","",""
"learning-trial","99","563079","0.0-9.0-2.0-1.6","1615","2","2","""event"",""trial"",""time""
""fullscreenenter"",""1"",""7327""
""blur"",""16"",""119157""
""focus"",""16"",""122809""
","""event"",""trial"",""time""
""blur"",""16"",""119157""
","""event"",""trial"",""time""
""focus"",""16"",""122809""
","""event"",""trial"",""time""
""fullscreenenter"",""1"",""7327""
","
","","","","","","2350","images/plane4.png","","","learning","images/vehicles_choice1.png","images/vehicles_choice3.png","images/vehicles_choice2.png","[0,2,1]","0","0","1","images/vehicles_choice1.png","1","vehicles","","plane","2","0"
"html-keyboard-response","100","563585","0.0-9.0-2.0-0.7","1615","2","2","""event"",""trial"",""time""
""fullscreenenter"",""1"",""7327""
""blur"",""16"",""119157""
""focus"",""16"",""122809""
","""event"",""trial"",""time""
""blur"",""16"",""119157""
","""event"",""trial"",""time""
""focus"",""16"",""122809""
","""event"",""trial"",""time""
""fullscreenenter"",""1"",""7327""
","
","","","","","","null","<div style=""font-size:60px;"">+</div>","null","","fixation","","","","","","","","","","","","","",""
"learning-trial","101","567590","0.0-9.0-2.0-1.7","1615","2","2","""event"",""trial"",""time""
""fullscreenenter"",""1"",""7327""
""blur"",""16"",""119157""
""focus"",""16"",""122809""
","""event"",""trial"",""time""
""blur"",""16"",""119157""
","""event"",""trial"",""time""
""focus"",""16"",""122809""
","""event"",""trial"",""time""
""fullscreenenter"",""1"",""7327""
","
","","","","","","1206","images/boat4.png","","","learning","images/vehicles_choice2.png","images/vehicles_choice1.png","images/vehicles_choice3.png","[1,0,2]","2","2","2","images/vehicles_choice1.png","-1","vehicles","","boat","2","0"
"html-keyboard-response","102","568093","0.0-9.0-2.0-0.8","1615","2","2","""event"",""trial"",""time""
""fullscreenenter"",""1"",""7327""
""blur"",""16"",""119157""
""focus"",""16"",""122809""
","""event"",""trial"",""time""
""blur"",""16"",""119157""
","""event"",""trial"",""time""
""focus"",""16"",""122809""
","""event"",""trial"",""time""
""fullscreenenter"",""1"",""7327""
","
","","","","","","null","<div style=""font-size:60px;"">+</div>","null","","fixation","","","","","","","","","","","","","",""
"learning-trial","103","572111","0.0-9.0-2.0-1.8","1615","2","2","""event"",""trial"",""time""
""fullscreenenter"",""1"",""7327""
""blur"",""16"",""119157""
""focus"",""16"",""122809""
","""event"",""trial"",""time""
""blur"",""16"",""119157""
","""event"",""trial"",""time""
""focus"",""16"",""122809""
","""event"",""trial"",""time""
""fullscreenenter"",""1"",""7327""
","
","","","","","","1514","images/boat1.png","","","learning","images/vehicles_choice3.png","images/vehicles_choice2.png","images/vehicles_choice1.png","[2,1,0]","1","1","3","images/vehicles_choice1.png","-1","vehicles","","boat","2","0"
"html-keyboard-response","104","572626","0.0-9.0-2.0-0.9","1615","2","2","""event"",""trial"",""time""
""fullscreenenter"",""1"",""7327""
""blur"",""16"",""119157""
""focus"",""16"",""122809""
","""event"",""trial"",""time""
""blur"",""16"",""119157""
","""event"",""trial"",""time""
""focus"",""16"",""122809""
","""event"",""trial"",""time""
""fullscreenenter"",""1"",""7327""
","
","","","","","","null","<div style=""font-size:60px;"">+</div>","null","","fixation","","","","","","","","","","","","","",""
"learning-trial","105","576640","0.0-9.0-2.0-1.9","1615","2","2","""event"",""trial"",""time""
""fullscreenenter"",""1"",""7327""
""blur"",""16"",""119157""
""focus"",""16"",""122809""
","""event"",""trial"",""time""
""blur"",""16"",""119157""
","""event"",""trial"",""time""
""focus"",""16"",""122809""
","""event"",""trial"",""time""
""fullscreenenter"",""1"",""7327""
","
","","","","","","2147","images/train2.png","","","learning","images/vehicles_choice1.png","images/vehicles_choice2.png","images/vehicles_choice3.png","[0,1,2]","2","2","3","images/vehicles_choice3.png","-1","vehicles","","train","2","0"
"html-keyboard-response","106","577156","0.0-9.0-2.0-0.10","1615","2","2","""event"",""trial"",""time""
""fullscreenenter"",""1"",""7327""
""blur"",""16"",""119157""
""focus"",""16"",""122809""
","""event"",""trial"",""time""
""blur"",""16"",""119157""
","""event"",""trial"",""time""
""focus"",""16"",""122809""
","""event"",""trial"",""time""
""fullscreenenter"",""1"",""7327""
","
","","","","","","null","<div style=""font-size:60px;"">+</div>","null","","fixation","","","","","","","","","","","","","",""
"learning-trial","107","581171","0.0-9.0-2.0-1.10","1615","2","2","""event"",""trial"",""time""
""fullscreenenter"",""1"",""7327""
""blur"",""16"",""119157""
""focus"",""16"",""122809""
","""event"",""trial"",""time""
""blur"",""16"",""119157""
","""event"",""trial"",""time""
""focus"",""16"",""122809""
","""event"",""trial"",""time""
""fullscreenenter"",""1"",""7327""
","
","","","","","","2016","images/train5.png","","","learning","images/vehicles_choice1.png","images/vehicles_choice3.png","images/vehicles_choice2.png","[0,2,1]","1","2","3","images/vehicles_choice2.png","1","vehicles","","train","2","0"
"html-keyboard-response","108","581676","0.0-9.0-2.0-0.11","1615","2","2","""event"",""trial"",""time""
""fullscreenenter"",""1"",""7327""
""blur"",""16"",""119157""
""focus"",""16"",""122809""
","""event"",""trial"",""time""
""blur"",""16"",""119157""
","""event"",""trial"",""time""
""focus"",""16"",""122809""
","""event"",""trial"",""time""
""fullscreenenter"",""1"",""7327""
","
","","","","","","null","<div style=""font-size:60px;"">+</div>","null","","fixation","","","","","","","","","","","","","",""
"learning-trial","109","585690","0.0-9.0-2.0-1.11","1615","2","2","""event"",""trial"",""time""
""fullscreenenter"",""1"",""7327""
""blur"",""16"",""119157""
""focus"",""16"",""122809""
","""event"",""trial"",""time""
""blur"",""16"",""119157""
","""event"",""trial"",""time""
""focus"",""16"",""122809""
","""event"",""trial"",""time""
""fullscreenenter"",""1"",""7327""
","
","","","","","","2501","images/boat1.png","","","learning","images/vehicles_choice2.png","images/vehicles_choice1.png","images/vehicles_choice3.png","[1,0,2]","1","0","1","images/vehicles_choice2.png","1","vehicles","","boat","2","0"
"html-keyboard-response","110","586205","0.0-9.0-2.0-0.12","1615","2","2","""event"",""trial"",""time""
""fullscreenenter"",""1"",""7327""
""blur"",""16"",""119157""
""focus"",""16"",""122809""
","""event"",""trial"",""time""
""blur"",""16"",""119157""
","""event"",""trial"",""time""
""focus"",""16"",""122809""
","""event"",""trial"",""time""
""fullscreenenter"",""1"",""7327""
","
","","","","","","null","<div style=""font-size:60px;"">+</div>","null","","fixation","","","","","","","","","","","","","",""
"learning-trial","111","590216","0.0-9.0-2.0-1.12","1615","2","2","""event"",""trial"",""time""
""fullscreenenter"",""1"",""7327""
""blur"",""16"",""119157""
""focus"",""16"",""122809""
","""event"",""trial"",""time""
""blur"",""16"",""119157""
","""event"",""trial"",""time""
""focus"",""16"",""122809""
","""event"",""trial"",""time""
""fullscreenenter"",""1"",""7327""
","
","","","","","","882","images/plane3.png","","","learning","images/vehicles_choice1.png","images/vehicles_choice3.png","images/vehicles_choice2.png","[0,2,1]","2","1","3","images/vehicles_choice2.png","-1","vehicles","","plane","2","0"
"html-keyboard-response","112","590732","0.0-9.0-2.0-0.13","1615","2","2","""event"",""trial"",""time""
""fullscreenenter"",""1"",""7327""
""blur"",""16"",""119157""
""focus"",""16"",""122809""
","""event"",""trial"",""time""
""blur"",""16"",""119157""
","""event"",""trial"",""time""
""focus"",""16"",""122809""
","""event"",""trial"",""time""
""fullscreenenter"",""1"",""7327""
","
","","","","","","null","<div style=""font-size:60px;"">+</div>","null","","fixation","","","","","","","","","","","","","",""
"learning-trial","113","594748","0.0-9.0-2.0-1.13","1615","2","2","""event"",""trial"",""time""
""fullscreenenter"",""1"",""7327""
""blur"",""16"",""119157""
""focus"",""16"",""122809""
","""event"",""trial"",""time""
""blur"",""16"",""119157""
","""event"",""trial"",""time""
""focus"",""16"",""122809""
","""event"",""trial"",""time""
""fullscreenenter"",""1"",""7327""
","
","","","","","","1805","images/train1.png","","","learning","images/vehicles_choice3.png","images/vehicles_choice2.png","images/vehicles_choice1.png","[2,1,0]","0","2","1","images/vehicles_choice3.png","-1","vehicles","","train","2","0"
"html-keyboard-response","114","595259","0.0-9.0-2.0-0.14","1615","2","2","""event"",""trial"",""time""
""fullscreenenter"",""1"",""7327""
""blur"",""16"",""119157""
""focus"",""16"",""122809""
","""event"",""trial"",""time""
""blur"",""16"",""119157""
","""event"",""trial"",""time""
""focus"",""16"",""122809""
","""event"",""trial"",""time""
""fullscreenenter"",""1"",""7327""
","
","","","","","","null","<div style=""font-size:60px;"">+</div>","null","","fixation","","","","","","","","","","","","","",""
"learning-trial","115","599276","0.0-9.0-2.0-1.14","1615","2","2","""event"",""trial"",""time""
""fullscreenenter"",""1"",""7327""
""blur"",""16"",""119157""
""focus"",""16"",""122809""
","""event"",""trial"",""time""
""blur"",""16"",""119157""
","""event"",""trial"",""time""
""focus"",""16"",""122809""
","""event"",""trial"",""time""
""fullscreenenter"",""1"",""7327""
","
","","","","","","1990","images/plane1.png","","","learning","images/vehicles_choice2.png","images/vehicles_choice1.png","images/vehicles_choice3.png","[1,0,2]","1","0","1","images/vehicles_choice2.png","1","vehicles","","plane","2","0"
"html-keyboard-response","116","599788","0.0-9.0-2.0-0.15","1615","2","2","""event"",""trial"",""time""
""fullscreenenter"",""1"",""7327""
""blur"",""16"",""119157""
""focus"",""16"",""122809""
","""event"",""trial"",""time""
""blur"",""16"",""119157""
","""event"",""trial"",""time""
""focus"",""16"",""122809""
","""event"",""trial"",""time""
""fullscreenenter"",""1"",""7327""
","
","","","","","","null","<div style=""font-size:60px;"">+</div>","null","","fixation","","","","","","","","","","","","","",""
"learning-trial","117","603802","0.0-9.0-2.0-1.15","1615","2","2","""event"",""trial"",""time""
""fullscreenenter"",""1"",""7327""
""blur"",""16"",""119157""
""focus"",""16"",""122809""
","""event"",""trial"",""time""
""blur"",""16"",""119157""
","""event"",""trial"",""time""
""focus"",""16"",""122809""
","""event"",""trial"",""time""
""fullscreenenter"",""1"",""7327""
","
","","","","","","1494","images/plane1.png","","","learning","images/vehicles_choice3.png","images/vehicles_choice1.png","images/vehicles_choice2.png","[2,0,1]","1","2","3","images/vehicles_choice2.png","1","vehicles","","plane","2","0"
"html-keyboard-response","118","604316","0.0-9.0-2.0-0.16","1615","2","2","""event"",""trial"",""time""
""fullscreenenter"",""1"",""7327""
""blur"",""16"",""119157""
""focus"",""16"",""122809""
","""event"",""trial"",""time""
""blur"",""16"",""119157""
","""event"",""trial"",""time""
""focus"",""16"",""122809""
","""event"",""trial"",""time""
""fullscreenenter"",""1"",""7327""
","
","","","","","","null","<div style=""font-size:60px;"">+</div>","null","","fixation","","","","","","","","","","","","","",""
"learning-trial","119","608326","0.0-9.0-2.0-1.16","1615","2","2","""event"",""trial"",""time""
""fullscreenenter"",""1"",""7327""
""blur"",""16"",""119157""
""focus"",""16"",""122809""
","""event"",""trial"",""time""
""blur"",""16"",""119157""
","""event"",""trial"",""time""
""focus"",""16"",""122809""
","""event"",""trial"",""time""
""fullscreenenter"",""1"",""7327""
","
","","","","","","1772","images/train1.png","","","learning","images/vehicles_choice3.png","images/vehicles_choice2.png","images/vehicles_choice1.png","[2,1,0]","0","2","3","images/vehicles_choice1.png","1","vehicles","","train","2","0"
"html-keyboard-response","120","608841","0.0-9.0-2.0-0.17","1615","2","2","""event"",""trial"",""time""
""fullscreenenter"",""1"",""7327""
""blur"",""16"",""119157""
""focus"",""16"",""122809""
","""event"",""trial"",""time""
""blur"",""16"",""119157""
","""event"",""trial"",""time""
""focus"",""16"",""122809""
","""event"",""trial"",""time""
""fullscreenenter"",""1"",""7327""
","
","","","","","","null","<div style=""font-size:60px;"">+</div>","null","","fixation","","","","","","","","","","","","","",""
"learning-trial","121","612849","0.0-9.0-2.0-1.17","1615","2","2","""event"",""trial"",""time""
""fullscreenenter"",""1"",""7327""
""blur"",""16"",""119157""
""focus"",""16"",""122809""
","""event"",""trial"",""time""
""blur"",""16"",""119157""
","""event"",""trial"",""time""
""focus"",""16"",""122809""
","""event"",""trial"",""time""
""fullscreenenter"",""1"",""7327""
","
","","","","","","1829","images/boat1.png","","","learning","images/vehicles_choice3.png","images/vehicles_choice2.png","images/vehicles_choice1.png","[2,1,0]","1","1","1","images/vehicles_choice3.png","-1","vehicles","","boat","2","0"
"html-keyboard-response","122","613350","0.0-9.0-2.0-0.18","1615","2","2","""event"",""trial"",""time""
""fullscreenenter"",""1"",""7327""
""blur"",""16"",""119157""
""focus"",""16"",""122809""
","""event"",""trial"",""time""
""blur"",""16"",""119157""
","""event"",""trial"",""time""
""focus"",""16"",""122809""
","""event"",""trial"",""time""
""fullscreenenter"",""1"",""7327""
","
","","","","","","null","<div style=""font-size:60px;"">+</div>","null","","fixation","","","","","","","","","","","","","",""
"learning-trial","123","617357","0.0-9.0-2.0-1.18","1615","2","2","""event"",""trial"",""time""
""fullscreenenter"",""1"",""7327""
""blur"",""16"",""119157""
""focus"",""16"",""122809""
","""event"",""trial"",""time""
""blur"",""16"",""119157""
","""event"",""trial"",""time""
""focus"",""16"",""122809""
","""event"",""trial"",""time""
""fullscreenenter"",""1"",""7327""
","
","","","","","","2137","images/train2.png","","","learning","images/vehicles_choice1.png","images/vehicles_choice3.png","images/vehicles_choice2.png","[0,2,1]","2","1","2","images/vehicles_choice3.png","1","vehicles","","train","2","0"
"html-keyboard-response","124","617865","0.0-9.0-2.0-0.19","1615","2","2","""event"",""trial"",""time""
""fullscreenenter"",""1"",""7327""
""blur"",""16"",""119157""
""focus"",""16"",""122809""
","""event"",""trial"",""time""
""blur"",""16"",""119157""
","""event"",""trial"",""time""
""focus"",""16"",""122809""
","""event"",""trial"",""time""
""fullscreenenter"",""1"",""7327""
","
","","","","","","null","<div style=""font-size:60px;"">+</div>","null","","fixation","","","","","","","","","","","","","",""
"learning-trial","125","621875","0.0-9.0-2.0-1.19","1615","2","2","""event"",""trial"",""time""
""fullscreenenter"",""1"",""7327""
""blur"",""16"",""119157""
""focus"",""16"",""122809""
","""event"",""trial"",""time""
""blur"",""16"",""119157""
","""event"",""trial"",""time""
""focus"",""16"",""122809""
","""event"",""trial"",""time""
""fullscreenenter"",""1"",""7327""
","
","","","","","","1739","images/plane1.png","","","learning","images/vehicles_choice1.png","images/vehicles_choice3.png","images/vehicles_choice2.png","[0,2,1]","1","2","3","images/vehicles_choice2.png","1","vehicles","","plane","2","0"
"html-keyboard-response","126","622388","0.0-9.0-2.0-0.20","1615","2","2","""event"",""trial"",""time""
""fullscreenenter"",""1"",""7327""
""blur"",""16"",""119157""
""focus"",""16"",""122809""
","""event"",""trial"",""time""
""blur"",""16"",""119157""
","""event"",""trial"",""time""
""focus"",""16"",""122809""
","""event"",""trial"",""time""
""fullscreenenter"",""1"",""7327""
","
","","","","","","null","<div style=""font-size:60px;"">+</div>","null","","fixation","","","","","","","","","","","","","",""
"learning-trial","127","626395","0.0-9.0-2.0-1.20","1615","2","2","""event"",""trial"",""time""
""fullscreenenter"",""1"",""7327""
""blur"",""16"",""119157""
""focus"",""16"",""122809""
","""event"",""trial"",""time""
""blur"",""16"",""119157""
","""event"",""trial"",""time""
""focus"",""16"",""122809""
","""event"",""trial"",""time""
""fullscreenenter"",""1"",""7327""
","
","","","","","","1629","images/plane4.png","","","learning","images/vehicles_choice1.png","images/vehicles_choice3.png","images/vehicles_choice2.png","[0,2,1]","0","0","3","images/vehicles_choice2.png","1","vehicles","","plane","2","0"
"html-keyboard-response","128","626913","0.0-9.0-2.0-0.21","1615","2","2","""event"",""trial"",""time""
""fullscreenenter"",""1"",""7327""
""blur"",""16"",""119157""
""focus"",""16"",""122809""
","""event"",""trial"",""time""
""blur"",""16"",""119157""
","""event"",""trial"",""time""
""focus"",""16"",""122809""
","""event"",""trial"",""time""
""fullscreenenter"",""1"",""7327""
","
","","","","","","null","<div style=""font-size:60px;"">+</div>","null","","fixation","","","","","","","","","","","","","",""
"learning-trial","129","630927","0.0-9.0-2.0-1.21","1615","2","2","""event"",""trial"",""time""
""fullscreenenter"",""1"",""7327""
""blur"",""16"",""119157""
""focus"",""16"",""122809""
","""event"",""trial"",""time""
""blur"",""16"",""119157""
","""event"",""trial"",""time""
""focus"",""16"",""122809""
","""event"",""trial"",""time""
""fullscreenenter"",""1"",""7327""
","
","","","","","","1804","images/plane3.png","","","learning","images/vehicles_choice1.png","images/vehicles_choice3.png","images/vehicles_choice2.png","[0,2,1]","2","1","2","images/vehicles_choice3.png","1","vehicles","","plane","2","0"
"html-keyboard-response","130","631440","0.0-9.0-2.0-0.22","1615","2","2","""event"",""trial"",""time""
""fullscreenenter"",""1"",""7327""
""blur"",""16"",""119157""
""focus"",""16"",""122809""
","""event"",""trial"",""time""
""blur"",""16"",""119157""
","""event"",""trial"",""time""
""focus"",""16"",""122809""
","""event"",""trial"",""time""
""fullscreenenter"",""1"",""7327""
","
","","","","","","null","<div style=""font-size:60px;"">+</div>","null","","fixation","","","","","","","","","","","","","",""
"learning-trial","131","635448","0.0-9.0-2.0-1.22","1615","2","2","""event"",""trial"",""time""
""fullscreenenter"",""1"",""7327""
""blur"",""16"",""119157""
""focus"",""16"",""122809""
","""event"",""trial"",""time""
""blur"",""16"",""119157""
","""event"",""trial"",""time""
""focus"",""16"",""122809""
","""event"",""trial"",""time""
""fullscreenenter"",""1"",""7327""
","
","","","","","","1339","images/boat3.png","","","learning","images/vehicles_choice3.png","images/vehicles_choice2.png","images/vehicles_choice1.png","[2,1,0]","0","2","1","images/vehicles_choice3.png","-1","vehicles","","boat","2","0"
"html-keyboard-response","132","635960","0.0-9.0-2.0-0.23","1615","2","2","""event"",""trial"",""time""
""fullscreenenter"",""1"",""7327""
""blur"",""16"",""119157""
""focus"",""16"",""122809""
","""event"",""trial"",""time""
""blur"",""16"",""119157""
","""event"",""trial"",""time""
""focus"",""16"",""122809""
","""event"",""trial"",""time""
""fullscreenenter"",""1"",""7327""
","
","","","","","","null","<div style=""font-size:60px;"">+</div>","null","","fixation","","","","","","","","","","","","","",""
"learning-trial","133","639969","0.0-9.0-2.0-1.23","1615","2","2","""event"",""trial"",""time""
""fullscreenenter"",""1"",""7327""
""blur"",""16"",""119157""
""focus"",""16"",""122809""
","""event"",""trial"",""time""
""blur"",""16"",""119157""
","""event"",""trial"",""time""
""focus"",""16"",""122809""
","""event"",""trial"",""time""
""fullscreenenter"",""1"",""7327""
","
","","","","","","1336","images/plane1.png","","","learning","images/vehicles_choice3.png","images/vehicles_choice1.png","images/vehicles_choice2.png","[2,0,1]","1","2","2","images/vehicles_choice1.png","-1","vehicles","","plane","2","0"
"html-keyboard-response","134","640479","0.0-9.0-2.0-0.24","1615","2","2","""event"",""trial"",""time""
""fullscreenenter"",""1"",""7327""
""blur"",""16"",""119157""
""focus"",""16"",""122809""
","""event"",""trial"",""time""
""blur"",""16"",""119157""
","""event"",""trial"",""time""
""focus"",""16"",""122809""
","""event"",""trial"",""time""
""fullscreenenter"",""1"",""7327""
","
","","","","","","null","<div style=""font-size:60px;"">+</div>","null","","fixation","","","","","","","","","","","","","",""
"learning-trial","135","644496","0.0-9.0-2.0-1.24","1615","2","2","""event"",""trial"",""time""
""fullscreenenter"",""1"",""7327""
""blur"",""16"",""119157""
""focus"",""16"",""122809""
","""event"",""trial"",""time""
""blur"",""16"",""119157""
","""event"",""trial"",""time""
""focus"",""16"",""122809""
","""event"",""trial"",""time""
""fullscreenenter"",""1"",""7327""
","
","","","","","","936","images/train1.png","","","learning","images/vehicles_choice1.png","images/vehicles_choice3.png","images/vehicles_choice2.png","[0,2,1]","0","0","3","images/vehicles_choice2.png","1","vehicles","","train","2","0"
"html-keyboard-response","136","645006","0.0-9.0-2.0-0.25","1615","2","2","""event"",""trial"",""time""
""fullscreenenter"",""1"",""7327""
""blur"",""16"",""119157""
""focus"",""16"",""122809""
","""event"",""trial"",""time""
""blur"",""16"",""119157""
","""event"",""trial"",""time""
""focus"",""16"",""122809""
","""event"",""trial"",""time""
""fullscreenenter"",""1"",""7327""
","
","","","","","","null","<div style=""font-size:60px;"">+</div>","null","","fixation","","","","","","","","","","","","","",""
"learning-trial","137","649014","0.0-9.0-2.0-1.25","1615","2","2","""event"",""trial"",""time""
""fullscreenenter"",""1"",""7327""
""blur"",""16"",""119157""
""focus"",""16"",""122809""
","""event"",""trial"",""time""
""blur"",""16"",""119157""
","""event"",""trial"",""time""
""focus"",""16"",""122809""
","""event"",""trial"",""time""
""fullscreenenter"",""1"",""7327""
","
","","","","","","721","images/train2.png","","","learning","images/vehicles_choice3.png","images/vehicles_choice1.png","images/vehicles_choice2.png","[2,0,1]","2","0","3","images/vehicles_choice2.png","-1","vehicles","","train","2","0"
"html-keyboard-response","138","649528","0.0-9.0-2.0-0.26","1615","2","2","""event"",""trial"",""time""
""fullscreenenter"",""1"",""7327""
""blur"",""16"",""119157""
""focus"",""16"",""122809""
","""event"",""trial"",""time""
""blur"",""16"",""119157""
","""event"",""trial"",""time""
""focus"",""16"",""122809""
","""event"",""trial"",""time""
""fullscreenenter"",""1"",""7327""
","
","","","","","","null","<div style=""font-size:60px;"">+</div>","null","","fixation","","","","","","","","","","","","","",""
"learning-trial","139","653533","0.0-9.0-2.0-1.26","1615","2","2","""event"",""trial"",""time""
""fullscreenenter"",""1"",""7327""
""blur"",""16"",""119157""
""focus"",""16"",""122809""
","""event"",""trial"",""time""
""blur"",""16"",""119157""
","""event"",""trial"",""time""
""focus"",""16"",""122809""
","""event"",""trial"",""time""
""fullscreenenter"",""1"",""7327""
","
","","","","","","1540","images/plane3.png","","","learning","images/vehicles_choice3.png","images/vehicles_choice2.png","images/vehicles_choice1.png","[2,1,0]","2","0","2","images/vehicles_choice2.png","-1","vehicles","","plane","2","0"
"html-keyboard-response","140","654043","0.0-9.0-2.0-0.27","1615","2","2","""event"",""trial"",""time""
""fullscreenenter"",""1"",""7327""
""blur"",""16"",""119157""
""focus"",""16"",""122809""
","""event"",""trial"",""time""
""blur"",""16"",""119157""
","""event"",""trial"",""time""
""focus"",""16"",""122809""
","""event"",""trial"",""time""
""fullscreenenter"",""1"",""7327""
","
","","","","","","null","<div style=""font-size:60px;"">+</div>","null","","fixation","","","","","","","","","","","","","",""
"learning-trial","141","658053","0.0-9.0-2.0-1.27","1615","2","2","""event"",""trial"",""time""
""fullscreenenter"",""1"",""7327""
""blur"",""16"",""119157""
""focus"",""16"",""122809""
","""event"",""trial"",""time""
""blur"",""16"",""119157""
","""event"",""trial"",""time""
""focus"",""16"",""122809""
","""event"",""trial"",""time""
""fullscreenenter"",""1"",""7327""
","
","","","","","","1828","images/train1.png","","","learning","images/vehicles_choice1.png","images/vehicles_choice3.png","images/vehicles_choice2.png","[0,2,1]","0","0","1","images/vehicles_choice1.png","1","vehicles","","train","2","0"
"html-keyboard-response","142","658566","0.0-9.0-2.0-0.28","1615","2","2","""event"",""trial"",""time""
""fullscreenenter"",""1"",""7327""
""blur"",""16"",""119157""
""focus"",""16"",""122809""
","""event"",""trial"",""time""
""blur"",""16"",""119157""
","""event"",""trial"",""time""
""focus"",""16"",""122809""
","""event"",""trial"",""time""
""fullscreenenter"",""1"",""7327""
","
","","","","","","null","<div style=""font-size:60px;"">+</div>","null","","fixation","","","","","","","","","","","","","",""
"learning-trial","143","662574","0.0-9.0-2.0-1.28","1615","2","2","""event"",""trial"",""time""
""fullscreenenter"",""1"",""7327""
""blur"",""16"",""119157""
""focus"",""16"",""122809""
","""event"",""trial"",""time""
""blur"",""16"",""119157""
","""event"",""trial"",""time""
""focus"",""16"",""122809""
","""event"",""trial"",""time""
""fullscreenenter"",""1"",""7327""
","
","","","","","","1711","images/boat1.png","","","learning","images/vehicles_choice1.png","images/vehicles_choice2.png","images/vehicles_choice3.png","[0,1,2]","1","1","2","images/vehicles_choice2.png","1","vehicles","","boat","2","0"
"html-keyboard-response","144","663090","0.0-9.0-2.0-0.29","1615","2","2","""event"",""trial"",""time""
""fullscreenenter"",""1"",""7327""
""blur"",""16"",""119157""
""focus"",""16"",""122809""
","""event"",""trial"",""time""
""blur"",""16"",""119157""
","""event"",""trial"",""time""
""focus"",""16"",""122809""
","""event"",""trial"",""time""
""fullscreenenter"",""1"",""7327""
","
","","","","","","null","<div style=""font-size:60px;"">+</div>","null","","fixation","","","","","","","","","","","","","",""
"learning-trial","145","667102","0.0-9.0-2.0-1.29","1615","2","2","""event"",""trial"",""time""
""fullscreenenter"",""1"",""7327""
""blur"",""16"",""119157""
""focus"",""16"",""122809""
","""event"",""trial"",""time""
""blur"",""16"",""119157""
","""event"",""trial"",""time""
""focus"",""16"",""122809""
","""event"",""trial"",""time""
""fullscreenenter"",""1"",""7327""
","
","","","","","","1576","images/train2.png","","","learning","images/vehicles_choice1.png","images/vehicles_choice2.png","images/vehicles_choice3.png","[0,1,2]","2","2","3","images/vehicles_choice3.png","1","vehicles","","train","2","0"
"html-keyboard-response","146","667612","0.0-9.0-2.0-0.30","1615","2","2","""event"",""trial"",""time""
""fullscreenenter"",""1"",""7327""
""blur"",""16"",""119157""
""focus"",""16"",""122809""
","""event"",""trial"",""time""
""blur"",""16"",""119157""
","""event"",""trial"",""time""
""focus"",""16"",""122809""
","""event"",""trial"",""time""
""fullscreenenter"",""1"",""7327""
","
","","","","","","null","<div style=""font-size:60px;"">+</div>","null","","fixation","","","","","","","","","","","","","",""
"learning-trial","147","671628","0.0-9.0-2.0-1.30","1615","2","2","""event"",""trial"",""time""
""fullscreenenter"",""1"",""7327""
""blur"",""16"",""119157""
""focus"",""16"",""122809""
","""event"",""trial"",""time""
""blur"",""16"",""119157""
","""event"",""trial"",""time""
""focus"",""16"",""122809""
","""event"",""trial"",""time""
""fullscreenenter"",""1"",""7327""
","
","","","","","","1244","images/plane4.png","","","learning","images/vehicles_choice3.png","images/vehicles_choice2.png","images/vehicles_choice1.png","[2,1,0]","0","2","2","images/vehicles_choice2.png","-1","vehicles","","plane","2","0"
"html-keyboard-response","148","672142","0.0-9.0-2.0-0.31","1615","2","2","""event"",""trial"",""time""
""fullscreenenter"",""1"",""7327""
""blur"",""16"",""119157""
""focus"",""16"",""122809""
","""event"",""trial"",""time""
""blur"",""16"",""119157""
","""event"",""trial"",""time""
""focus"",""16"",""122809""
","""event"",""trial"",""time""
""fullscreenenter"",""1"",""7327""
","
","","","","","","null","<div style=""font-size:60px;"">+</div>","null","","fixation","","","","","","","","","","","","","",""
"learning-trial","149","676147","0.0-9.0-2.0-1.31","1615","2","2","""event"",""trial"",""time""
""fullscreenenter"",""1"",""7327""
""blur"",""16"",""119157""
""focus"",""16"",""122809""
","""event"",""trial"",""time""
""blur"",""16"",""119157""
","""event"",""trial"",""time""
""focus"",""16"",""122809""
","""event"",""trial"",""time""
""fullscreenenter"",""1"",""7327""
","
","","","","","","1070","images/plane1.png","","","learning","images/vehicles_choice1.png","images/vehicles_choice2.png","images/vehicles_choice3.png","[0,1,2]","1","1","1","images/vehicles_choice1.png","-1","vehicles","","plane","2","0"
"html-keyboard-response","150","676660","0.0-9.0-2.0-0.32","1615","2","2","""event"",""trial"",""time""
""fullscreenenter"",""1"",""7327""
""blur"",""16"",""119157""
""focus"",""16"",""122809""
","""event"",""trial"",""time""
""blur"",""16"",""119157""
","""event"",""trial"",""time""
""focus"",""16"",""122809""
","""event"",""trial"",""time""
""fullscreenenter"",""1"",""7327""
","
","","","","","","null","<div style=""font-size:60px;"">+</div>","null","","fixation","","","","","","","","","","","","","",""
"learning-trial","151","680666","0.0-9.0-2.0-1.32","1615","2","2","""event"",""trial"",""time""
""fullscreenenter"",""1"",""7327""
""blur"",""16"",""119157""
""focus"",""16"",""122809""
","""event"",""trial"",""time""
""blur"",""16"",""119157""
","""event"",""trial"",""time""
""focus"",""16"",""122809""
","""event"",""trial"",""time""
""fullscreenenter"",""1"",""7327""
","
","","","","","","2148","images/boat3.png","","","learning","images/vehicles_choice1.png","images/vehicles_choice3.png","images/vehicles_choice2.png","[0,2,1]","0","0","3","images/vehicles_choice2.png","-1","vehicles","","boat","2","0"
"html-keyboard-response","152","681181","0.0-9.0-2.0-0.33","1615","2","2","""event"",""trial"",""time""
""fullscreenenter"",""1"",""7327""
""blur"",""16"",""119157""
""focus"",""16"",""122809""
","""event"",""trial"",""time""
""blur"",""16"",""119157""
","""event"",""trial"",""time""
""focus"",""16"",""122809""
","""event"",""trial"",""time""
""fullscreenenter"",""1"",""7327""
","
","","","","","","null","<div style=""font-size:60px;"">+</div>","null","","fixation","","","","","","","","","","","","","",""
"learning-trial","153","685196","0.0-9.0-2.0-1.33","1615","2","2","""event"",""trial"",""time""
""fullscreenenter"",""1"",""7327""
""blur"",""16"",""119157""
""focus"",""16"",""122809""
","""event"",""trial"",""time""
""blur"",""16"",""119157""
","""event"",""trial"",""time""
""focus"",""16"",""122809""
","""event"",""trial"",""time""
""fullscreenenter"",""1"",""7327""
","
","","","","","","2317","images/plane3.png","","","learning","images/vehicles_choice1.png","images/vehicles_choice2.png","images/vehicles_choice3.png","[0,1,2]","2","2","2","images/vehicles_choice2.png","-1","vehicles","","plane","2","0"
"html-keyboard-response","154","685705","0.0-9.0-2.0-0.34","1615","2","2","""event"",""trial"",""time""
""fullscreenenter"",""1"",""7327""
""blur"",""16"",""119157""
""focus"",""16"",""122809""
","""event"",""trial"",""time""
""blur"",""16"",""119157""
","""event"",""trial"",""time""
""focus"",""16"",""122809""
","""event"",""trial"",""time""
""fullscreenenter"",""1"",""7327""
","
","","","","","","null","<div style=""font-size:60px;"">+</div>","null","","fixation","","","","","","","","","","","","","",""
"learning-trial","155","689713","0.0-9.0-2.0-1.34","1615","2","2","""event"",""trial"",""time""
""fullscreenenter"",""1"",""7327""
""blur"",""16"",""119157""
""focus"",""16"",""122809""
","""event"",""trial"",""time""
""blur"",""16"",""119157""
","""event"",""trial"",""time""
""focus"",""16"",""122809""
","""event"",""trial"",""time""
""fullscreenenter"",""1"",""7327""
","
","","","","","","1169","images/train5.png","","","learning","images/vehicles_choice3.png","images/vehicles_choice2.png","images/vehicles_choice1.png","[2,1,0]","1","1","1","images/vehicles_choice3.png","-1","vehicles","","train","2","0"
"html-keyboard-response","156","690227","0.0-9.0-2.0-0.35","1615","2","2","""event"",""trial"",""time""
""fullscreenenter"",""1"",""7327""
""blur"",""16"",""119157""
""focus"",""16"",""122809""
","""event"",""trial"",""time""
""blur"",""16"",""119157""
","""event"",""trial"",""time""
""focus"",""16"",""122809""
","""event"",""trial"",""time""
""fullscreenenter"",""1"",""7327""
","
","","","","","","null","<div style=""font-size:60px;"">+</div>","null","","fixation","","","","","","","","","","","","","",""
"learning-trial","157","694235","0.0-9.0-2.0-1.35","1615","2","2","""event"",""trial"",""time""
""fullscreenenter"",""1"",""7327""
""blur"",""16"",""119157""
""focus"",""16"",""122809""
","""event"",""trial"",""time""
""blur"",""16"",""119157""
","""event"",""trial"",""time""
""focus"",""16"",""122809""
","""event"",""trial"",""time""
""fullscreenenter"",""1"",""7327""
","
","","","","","","889","images/boat3.png","","","learning","images/vehicles_choice1.png","images/vehicles_choice3.png","images/vehicles_choice2.png","[0,2,1]","0","0","3","images/vehicles_choice2.png","-1","vehicles","","boat","2","0"
"html-keyboard-response","158","694745","0.0-9.0-2.0-0.36","1615","2","2","""event"",""trial"",""time""
""fullscreenenter"",""1"",""7327""
""blur"",""16"",""119157""
""focus"",""16"",""122809""
","""event"",""trial"",""time""
""blur"",""16"",""119157""
","""event"",""trial"",""time""
""focus"",""16"",""122809""
","""event"",""trial"",""time""
""fullscreenenter"",""1"",""7327""
","
","","","","","","null","<div style=""font-size:60px;"">+</div>","null","","fixation","","","","","","","","","","","","","",""
"learning-trial","159","698760","0.0-9.0-2.0-1.36","1615","2","2","""event"",""trial"",""time""
""fullscreenenter"",""1"",""7327""
""blur"",""16"",""119157""
""focus"",""16"",""122809""
","""event"",""trial"",""time""
""blur"",""16"",""119157""
","""event"",""trial"",""time""
""focus"",""16"",""122809""
","""event"",""trial"",""time""
""fullscreenenter"",""1"",""7327""
","
","","","","","","1300","images/train1.png","","","learning","images/vehicles_choice2.png","images/vehicles_choice1.png","images/vehicles_choice3.png","[1,0,2]","0","1","1","images/vehicles_choice2.png","-1","vehicles","","train","2","0"
"html-keyboard-response","160","699264","0.0-9.0-2.0-0.37","1615","2","2","""event"",""trial"",""time""
""fullscreenenter"",""1"",""7327""
""blur"",""16"",""119157""
""focus"",""16"",""122809""
","""event"",""trial"",""time""
""blur"",""16"",""119157""
","""event"",""trial"",""time""
""focus"",""16"",""122809""
","""event"",""trial"",""time""
""fullscreenenter"",""1"",""7327""
","
","","","","","","null","<div style=""font-size:60px;"">+</div>","null","","fixation","","","","","","","","","","","","","",""
"learning-trial","161","703275","0.0-9.0-2.0-1.37","1615","2","2","""event"",""trial"",""time""
""fullscreenenter"",""1"",""7327""
""blur"",""16"",""119157""
""focus"",""16"",""122809""
","""event"",""trial"",""time""
""blur"",""16"",""119157""
","""event"",""trial"",""time""
""focus"",""16"",""122809""
","""event"",""trial"",""time""
""fullscreenenter"",""1"",""7327""
","
","","","","","","1956","images/plane4.png","","","learning","images/vehicles_choice3.png","images/vehicles_choice1.png","images/vehicles_choice2.png","[2,0,1]","0","1","1","images/vehicles_choice3.png","-1","vehicles","","plane","2","0"
"html-keyboard-response","162","703790","0.0-9.0-2.0-0.38","1615","2","2","""event"",""trial"",""time""
""fullscreenenter"",""1"",""7327""
""blur"",""16"",""119157""
""focus"",""16"",""122809""
","""event"",""trial"",""time""
""blur"",""16"",""119157""
","""event"",""trial"",""time""
""focus"",""16"",""122809""
","""event"",""trial"",""time""
""fullscreenenter"",""1"",""7327""
","
","","","","","","null","<div style=""font-size:60px;"">+</div>","null","","fixation","","","","","","","","","","","","","",""
"learning-trial","163","707801","0.0-9.0-2.0-1.38","1615","2","2","""event"",""trial"",""time""
""fullscreenenter"",""1"",""7327""
""blur"",""16"",""119157""
""focus"",""16"",""122809""
","""event"",""trial"",""time""
""blur"",""16"",""119157""
","""event"",""trial"",""time""
""focus"",""16"",""122809""
","""event"",""trial"",""time""
""fullscreenenter"",""1"",""7327""
","
","","","","","","2503","images/train5.png","","","learning","images/vehicles_choice2.png","images/vehicles_choice3.png","images/vehicles_choice1.png","[1,2,0]","1","0","2","images/vehicles_choice3.png","-1","vehicles","","train","2","0"
"html-keyboard-response","164","708314","0.0-9.0-2.0-0.39","1615","2","2","""event"",""trial"",""time""
""fullscreenenter"",""1"",""7327""
""blur"",""16"",""119157""
""focus"",""16"",""122809""
","""event"",""trial"",""time""
""blur"",""16"",""119157""
","""event"",""trial"",""time""
""focus"",""16"",""122809""
","""event"",""trial"",""time""
""fullscreenenter"",""1"",""7327""
","
","","","","","","null","<div style=""font-size:60px;"">+</div>","null","","fixation","","","","","","","","","","","","","",""
"learning-trial","165","712321","0.0-9.0-2.0-1.39","1615","2","2","""event"",""trial"",""time""
""fullscreenenter"",""1"",""7327""
""blur"",""16"",""119157""
""focus"",""16"",""122809""
","""event"",""trial"",""time""
""blur"",""16"",""119157""
","""event"",""trial"",""time""
""focus"",""16"",""122809""
","""event"",""trial"",""time""
""fullscreenenter"",""1"",""7327""
","
","","","","","","1607","images/train5.png","","","learning","images/vehicles_choice1.png","images/vehicles_choice2.png","images/vehicles_choice3.png","[0,1,2]","1","1","2","images/vehicles_choice2.png","1","vehicles","","train","2","0"
"html-keyboard-response","166","712831","0.0-9.0-2.0-0.40","1615","2","2","""event"",""trial"",""time""
""fullscreenenter"",""1"",""7327""
""blur"",""16"",""119157""
""focus"",""16"",""122809""
","""event"",""trial"",""time""
""blur"",""16"",""119157""
","""event"",""trial"",""time""
""focus"",""16"",""122809""
","""event"",""trial"",""time""
""fullscreenenter"",""1"",""7327""
","
","","","","","","null","<div style=""font-size:60px;"">+</div>","null","","fixation","","","","","","","","","","","","","",""
"learning-trial","167","716835","0.0-9.0-2.0-1.40","1615","2","2","""event"",""trial"",""time""
""fullscreenenter"",""1"",""7327""
""blur"",""16"",""119157""
""focus"",""16"",""122809""
","""event"",""trial"",""time""
""blur"",""16"",""119157""
","""event"",""trial"",""time""
""focus"",""16"",""122809""
","""event"",""trial"",""time""
""fullscreenenter"",""1"",""7327""
","
","","","","","","954","images/boat4.png","","","learning","images/vehicles_choice1.png","images/vehicles_choice3.png","images/vehicles_choice2.png","[0,2,1]","2","1","3","images/vehicles_choice2.png","-1","vehicles","","boat","2","0"
"html-keyboard-response","168","717336","0.0-9.0-2.0-0.41","1615","2","2","""event"",""trial"",""time""
""fullscreenenter"",""1"",""7327""
""blur"",""16"",""119157""
""focus"",""16"",""122809""
","""event"",""trial"",""time""
""blur"",""16"",""119157""
","""event"",""trial"",""time""
""focus"",""16"",""122809""
","""event"",""trial"",""time""
""fullscreenenter"",""1"",""7327""
","
","","","","","","null","<div style=""font-size:60px;"">+</div>","null","","fixation","","","","","","","","","","","","","",""
"learning-trial","169","721349","0.0-9.0-2.0-1.41","1615","2","2","""event"",""trial"",""time""
""fullscreenenter"",""1"",""7327""
""blur"",""16"",""119157""
""focus"",""16"",""122809""
","""event"",""trial"",""time""
""blur"",""16"",""119157""
","""event"",""trial"",""time""
""focus"",""16"",""122809""
","""event"",""trial"",""time""
""fullscreenenter"",""1"",""7327""
","
","","","","","","1204","images/train5.png","","","learning","images/vehicles_choice3.png","images/vehicles_choice2.png","images/vehicles_choice1.png","[2,1,0]","1","1","1","images/vehicles_choice3.png","-1","vehicles","","train","2","0"
"html-keyboard-response","170","721849","0.0-9.0-2.0-0.42","1615","2","2","""event"",""trial"",""time""
""fullscreenenter"",""1"",""7327""
""blur"",""16"",""119157""
""focus"",""16"",""122809""
","""event"",""trial"",""time""
""blur"",""16"",""119157""
","""event"",""trial"",""time""
""focus"",""16"",""122809""
","""event"",""trial"",""time""
""fullscreenenter"",""1"",""7327""
","
","","","","","","null","<div style=""font-size:60px;"">+</div>","null","","fixation","","","","","","","","","","","","","",""
"learning-trial","171","725865","0.0-9.0-2.0-1.42","1615","2","2","""event"",""trial"",""time""
""fullscreenenter"",""1"",""7327""
""blur"",""16"",""119157""
""focus"",""16"",""122809""
","""event"",""trial"",""time""
""blur"",""16"",""119157""
","""event"",""trial"",""time""
""focus"",""16"",""122809""
","""event"",""trial"",""time""
""fullscreenenter"",""1"",""7327""
","
","","","","","","1154","images/boat4.png","","","learning","images/vehicles_choice3.png","images/vehicles_choice1.png","images/vehicles_choice2.png","[2,0,1]","2","0","3","images/vehicles_choice2.png","-1","vehicles","","boat","2","0"
"html-keyboard-response","172","726382","0.0-9.0-2.0-0.43","1615","2","2","""event"",""trial"",""time""
""fullscreenenter"",""1"",""7327""
""blur"",""16"",""119157""
""focus"",""16"",""122809""
","""event"",""trial"",""time""
""blur"",""16"",""119157""
","""event"",""trial"",""time""
""focus"",""16"",""122809""
","""event"",""trial"",""time""
""fullscreenenter"",""1"",""7327""
","
","","","","","","null","<div style=""font-size:60px;"">+</div>","null","","fixation","","","","","","","","","","","","","",""
"learning-trial","173","730389","0.0-9.0-2.0-1.43","1615","2","2","""event"",""trial"",""time""
""fullscreenenter"",""1"",""7327""
""blur"",""16"",""119157""
""focus"",""16"",""122809""
","""event"",""trial"",""time""
""blur"",""16"",""119157""
","""event"",""trial"",""time""
""focus"",""16"",""122809""
","""event"",""trial"",""time""
""fullscreenenter"",""1"",""7327""
","
