"trial_type","trial_index","time_elapsed","internal_node_id","subject_id","condition","task_version","interactions","blur_events","focus_events","fullscreenenter_events","fullscreenexit_events","success","timeout","failed_images","failed_audio","failed_video","rt","stimulus","response","button_pressed","task_part","left_choice","middle_choice","right_choice","choice_positions","correct_response","correct_position","key_press","option_selected","points","task_block","correct","stim_cat","block_condition","block_number"
"pavlovia","0","7","0.0-0.0","1579","1","2","""event"",""trial"",""time""
""focus"",""1"",""1185""
""fullscreenenter"",""1"",""2651""
","
","""event"",""trial"",""time""
""focus"",""1"",""1185""
","""event"",""trial"",""time""
""fullscreenenter"",""1"",""2651""
","
","","","","","","","","","","","","","","","","","","","","","","","",""
"fullscreen","1","3599","0.0-1.0","1579","1","2","""event"",""trial"",""time""
""focus"",""1"",""1185""
""fullscreenenter"",""1"",""2651""
","
","""event"",""trial"",""time""
""focus"",""1"",""1185""
","""event"",""trial"",""time""
""fullscreenenter"",""1"",""2651""
","
","true","","","","","","","","","","","","","","","","","","","","","","",""
"preload","2","4185","0.0-2.0","1579","1","2","""event"",""trial"",""time""
""focus"",""1"",""1185""
""fullscreenenter"",""1"",""2651""
","
","""event"",""trial"",""time""
""focus"",""1"",""1185""
","""event"",""trial"",""time""
""fullscreenenter"",""1"",""2651""
","
","true","false","[]","[]","[]","","","","","","","","","","","","","","","","","","",""
"audio-keyboard-response","3","6096","0.0-3.0","1579","1","2","""event"",""trial"",""time""
""focus"",""1"",""1185""
""fullscreenenter"",""1"",""2651""
","
","""event"",""trial"",""time""
""focus"",""1"",""1185""
","""event"",""trial"",""time""
""fullscreenenter"",""1"",""2651""
","
","","","","","","1250.6666666666665","audio/beep_loop.wav"," ","","","","","","","","","","","","","","","",""
"audio-button-response","4","7397","0.0-4.0","1579","1","2","""event"",""trial"",""time""
""focus"",""1"",""1185""
""fullscreenenter"",""1"",""2651""
","
","""event"",""trial"",""time""
""focus"",""1"",""1185""
","""event"",""trial"",""time""
""fullscreenenter"",""1"",""2651""
","
","","","","","","1299","audio/shark.wav","4","","","","","","","","","","","","","","","",""
"audio-button-response","5","11860","0.0-5.0","1579","1","2","""event"",""trial"",""time""
""focus"",""1"",""1185""
""fullscreenenter"",""1"",""2651""
","
","""event"",""trial"",""time""
""focus"",""1"",""1185""
","""event"",""trial"",""time""
""fullscreenenter"",""1"",""2651""
","
","","","","","","3451","audio/turtle.wav","1","","","","","","","","","","","","","","","",""
"preload","6","13776","0.0-6.0","1579","1","2","""event"",""trial"",""time""
""focus"",""1"",""1185""
""fullscreenenter"",""1"",""2651""
","
","""event"",""trial"",""time""
""focus"",""1"",""1185""
","""event"",""trial"",""time""
""fullscreenenter"",""1"",""2651""
","
","true","false","[]","[]","[]","","","","","","","","","","","","","","","","","","",""
"html-keyboard-response","7","16741","0.0-7.0","1579","1","2","""event"",""trial"",""time""
""focus"",""1"",""1185""
""fullscreenenter"",""1"",""2651""
""fullscreenexit"",""8"",""20296""
""blur"",""8"",""21368""
""focus"",""8"",""28940""
","""event"",""trial"",""time""
""blur"",""8"",""21368""
","""event"",""trial"",""time""
""focus"",""1"",""1185""
""focus"",""8"",""28940""
","""event"",""trial"",""time""
""fullscreenenter"",""1"",""2651""
","""event"",""trial"",""time""
""fullscreenexit"",""8"",""20296""
","","","","","","2960.4000000059605","Welcome to the experiment. Press any key to begin and to advance the instructions."," ","","","","","","","","","","","","","","","",""
"learning-instructions","8","33262","0.0-8.0-0.0-0.0","1579","1","2","""event"",""trial"",""time""
""focus"",""1"",""1185""
""fullscreenenter"",""1"",""2651""
""fullscreenexit"",""8"",""20296""
""blur"",""8"",""21368""
""focus"",""8"",""28940""
""blur"",""9"",""276503""
""focus"",""9"",""318992""
""blur"",""9"",""914283""
""focus"",""9"",""3231803""
","""event"",""trial"",""time""
""blur"",""8"",""21368""
""blur"",""9"",""276503""
""blur"",""9"",""914283""
","""event"",""trial"",""time""
""focus"",""1"",""1185""
""focus"",""8"",""28940""
""focus"",""9"",""318992""
""focus"",""9"",""3231803""
","""event"",""trial"",""time""
""fullscreenenter"",""1"",""2651""
","""event"",""trial"",""time""
""fullscreenexit"",""8"",""20296""
","","","","","","8770.200000017881","<p> Welcome! Today you are going to play 6 different rounds of a decision-making game. </p><p> Use the mouse to click next to continue. </p>","","0","instructions","","","","","","","","","","","","","",""
"learning-instructions","9","3232805","0.0-8.0-0.0-0.1","1579","1","2","""event"",""trial"",""time""
""focus"",""1"",""1185""
""fullscreenenter"",""1"",""2651""
""fullscreenexit"",""8"",""20296""
""blur"",""8"",""21368""
""focus"",""8"",""28940""
""blur"",""9"",""276503""
""focus"",""9"",""318992""
""blur"",""9"",""914283""
""focus"",""9"",""3231803""
","""event"",""trial"",""time""
""blur"",""8"",""21368""
""blur"",""9"",""276503""
""blur"",""9"",""914283""
","""event"",""trial"",""time""
""focus"",""1"",""1185""
""focus"",""8"",""28940""
""focus"",""9"",""318992""
""focus"",""9"",""3231803""
","""event"",""trial"",""time""
""fullscreenenter"",""1"",""2651""
","""event"",""trial"",""time""
""fullscreenexit"",""8"",""20296""
","","","","","","3196534.300000012","<p> You will start with a practice round to learn the rules. </p>","","0","instructions","","","","","","","","","","","","","",""
"learning-instructions","10","3244139","0.0-8.0-0.0-0.2","1579","1","2","""event"",""trial"",""time""
""focus"",""1"",""1185""
""fullscreenenter"",""1"",""2651""
""fullscreenexit"",""8"",""20296""
""blur"",""8"",""21368""
""focus"",""8"",""28940""
""blur"",""9"",""276503""
""focus"",""9"",""318992""
""blur"",""9"",""914283""
""focus"",""9"",""3231803""
","""event"",""trial"",""time""
""blur"",""8"",""21368""
""blur"",""9"",""276503""
""blur"",""9"",""914283""
","""event"",""trial"",""time""
""focus"",""1"",""1185""
""focus"",""8"",""28940""
""focus"",""9"",""318992""
""focus"",""9"",""3231803""
","""event"",""trial"",""time""
""fullscreenenter"",""1"",""2651""
","""event"",""trial"",""time""
""fullscreenexit"",""8"",""20296""
","","","","","","2477.5","<p> Your goal in this round is to deliver sports equipment to three different parks. </p><p> You will need to deliver many types of equipment. </p></div>","","0","instructions","","","","","","","","","","","","","",""
"learning-instructions","11","3260131","0.0-8.0-0.0-0.3","1579","1","2","""event"",""trial"",""time""
""focus"",""1"",""1185""
""fullscreenenter"",""1"",""2651""
""fullscreenexit"",""8"",""20296""
""blur"",""8"",""21368""
""focus"",""8"",""28940""
""blur"",""9"",""276503""
""focus"",""9"",""318992""
""blur"",""9"",""914283""
""focus"",""9"",""3231803""
","""event"",""trial"",""time""
""blur"",""8"",""21368""
""blur"",""9"",""276503""
""blur"",""9"",""914283""
","""event"",""trial"",""time""
""focus"",""1"",""1185""
""focus"",""8"",""28940""
""focus"",""9"",""318992""
""focus"",""9"",""3231803""
","""event"",""trial"",""time""
""fullscreenenter"",""1"",""2651""
","""event"",""trial"",""time""
""fullscreenexit"",""8"",""20296""
","","","","","","7507.299999982119","<p> On each turn, you will see one piece of sports equipment and three different parks.  </p><p> You need to select which park to deliver the equipment to.  </p>","","0","instructions","","","","","","","","","","","","","",""
"learning-instructions","12","3275259","0.0-8.0-0.0-0.4","1579","1","2","""event"",""trial"",""time""
""focus"",""1"",""1185""
""fullscreenenter"",""1"",""2651""
""fullscreenexit"",""8"",""20296""
""blur"",""8"",""21368""
""focus"",""8"",""28940""
""blur"",""9"",""276503""
""focus"",""9"",""318992""
""blur"",""9"",""914283""
""focus"",""9"",""3231803""
","""event"",""trial"",""time""
""blur"",""8"",""21368""
""blur"",""9"",""276503""
""blur"",""9"",""914283""
","""event"",""trial"",""time""
""focus"",""1"",""1185""
""focus"",""8"",""28940""
""focus"",""9"",""318992""
""focus"",""9"",""3231803""
","""event"",""trial"",""time""
""fullscreenenter"",""1"",""2651""
","""event"",""trial"",""time""
""fullscreenexit"",""8"",""20296""
","","","","","","1834.300000011921","<p> You can select the park on the left by pressing the '1' key on your keyboard. <br>You can select the park in the middle by pressing the '2' key on your keyboard. <br>You can select the park on the right by pressing the '3' key on your keyboard.  </p><br><div class=""choice-instructions-grid""> <div class=""choice-option""><img src=""images/park1.png"" class=""choice-option-img"" stage=""instructions"" position=""0"" ><div class=""choice-option-text""> Press ""1."" </div></div><div class=""choice-option""><img src=""images/park2.png"" class=""choice-option-img"" stage=""instructions"" position=""1"" ><div class=""choice-option-text""> Press ""2."" </div></div><div class=""choice-option""><img src=""images/park3.png"" class=""choice-option-img"" stage=""instructions"" position=""2"" ><div class=""choice-option-text""> Press ""3."" </div></div></div>","","0","instructions","","","","","","","","","","","","","",""
"learning-instructions","13","3285517","0.0-8.0-0.0-0.5","1579","1","2","""event"",""trial"",""time""
""focus"",""1"",""1185""
""fullscreenenter"",""1"",""2651""
""fullscreenexit"",""8"",""20296""
""blur"",""8"",""21368""
""focus"",""8"",""28940""
""blur"",""9"",""276503""
""focus"",""9"",""318992""
""blur"",""9"",""914283""
""focus"",""9"",""3231803""
","""event"",""trial"",""time""
""blur"",""8"",""21368""
""blur"",""9"",""276503""
""blur"",""9"",""914283""
","""event"",""trial"",""time""
""focus"",""1"",""1185""
""focus"",""8"",""28940""
""focus"",""9"",""318992""
""focus"",""9"",""3231803""
","""event"",""trial"",""time""
""fullscreenenter"",""1"",""2651""
","""event"",""trial"",""time""
""fullscreenexit"",""8"",""20296""
","","","","","","4873.5","<p> If the kids in the park you chose like the equipment, they will be very happy! </p><div style='float: center;'><img src='images/check.png' width = '200' height = '200'></img>","","0","instructions","","","","","","","","","","","","","",""
"learning-instructions","14","3294586","0.0-8.0-0.0-0.6","1579","1","2","""event"",""trial"",""time""
""focus"",""1"",""1185""
""fullscreenenter"",""1"",""2651""
""fullscreenexit"",""8"",""20296""
""blur"",""8"",""21368""
""focus"",""8"",""28940""
""blur"",""9"",""276503""
""focus"",""9"",""318992""
""blur"",""9"",""914283""
""focus"",""9"",""3231803""
","""event"",""trial"",""time""
""blur"",""8"",""21368""
""blur"",""9"",""276503""
""blur"",""9"",""914283""
","""event"",""trial"",""time""
""focus"",""1"",""1185""
""focus"",""8"",""28940""
""focus"",""9"",""318992""
""focus"",""9"",""3231803""
","""event"",""trial"",""time""
""fullscreenenter"",""1"",""2651""
","""event"",""trial"",""time""
""fullscreenexit"",""8"",""20296""
","","","","","","3472.4000000059605","<p> But, if the kids in the park you chose do not like the equipment, they will be sad. </p><div style='float: center;'><img src='images/x.png' width = '200' height = '200'></img>","","0","instructions","","","","","","","","","","","","","",""
"learning-instructions","15","3303648","0.0-8.0-0.0-0.7","1579","1","2","""event"",""trial"",""time""
""focus"",""1"",""1185""
""fullscreenenter"",""1"",""2651""
""fullscreenexit"",""8"",""20296""
""blur"",""8"",""21368""
""focus"",""8"",""28940""
""blur"",""9"",""276503""
""focus"",""9"",""318992""
""blur"",""9"",""914283""
""focus"",""9"",""3231803""
","""event"",""trial"",""time""
""blur"",""8"",""21368""
""blur"",""9"",""276503""
""blur"",""9"",""914283""
","""event"",""trial"",""time""
""focus"",""1"",""1185""
""focus"",""8"",""28940""
""focus"",""9"",""318992""
""focus"",""9"",""3231803""
","""event"",""trial"",""time""
""fullscreenenter"",""1"",""2651""
","""event"",""trial"",""time""
""fullscreenexit"",""8"",""20296""
","","","","","","2624","<p> Importantly, the kids in each park like some pieces of sports equipment more than others. </p>","","0","instructions","","","","","","","","","","","","","",""
"learning-instructions","16","3316264","0.0-8.0-0.0-0.8","1579","1","2","""event"",""trial"",""time""
""focus"",""1"",""1185""
""fullscreenenter"",""1"",""2651""
""fullscreenexit"",""8"",""20296""
""blur"",""8"",""21368""
""focus"",""8"",""28940""
""blur"",""9"",""276503""
""focus"",""9"",""318992""
""blur"",""9"",""914283""
""focus"",""9"",""3231803""
","""event"",""trial"",""time""
""blur"",""8"",""21368""
""blur"",""9"",""276503""
""blur"",""9"",""914283""
","""event"",""trial"",""time""
""focus"",""1"",""1185""
""focus"",""8"",""28940""
""focus"",""9"",""318992""
""focus"",""9"",""3231803""
","""event"",""trial"",""time""
""fullscreenenter"",""1"",""2651""
","""event"",""trial"",""time""
""fullscreenexit"",""8"",""20296""
","","","","","","6560.199999988079","<p> If you choose the best park for each piece of equipment, the kids there will usually be happy. </p>","","0","instructions","","","","","","","","","","","","","",""
"learning-instructions","17","3334808","0.0-8.0-0.0-0.9","1579","1","2","""event"",""trial"",""time""
""focus"",""1"",""1185""
""fullscreenenter"",""1"",""2651""
""fullscreenexit"",""8"",""20296""
""blur"",""8"",""21368""
""focus"",""8"",""28940""
""blur"",""9"",""276503""
""focus"",""9"",""318992""
""blur"",""9"",""914283""
""focus"",""9"",""3231803""
","""event"",""trial"",""time""
""blur"",""8"",""21368""
""blur"",""9"",""276503""
""blur"",""9"",""914283""
","""event"",""trial"",""time""
""focus"",""1"",""1185""
""focus"",""8"",""28940""
""focus"",""9"",""318992""
""focus"",""9"",""3231803""
","""event"",""trial"",""time""
""fullscreenenter"",""1"",""2651""
","""event"",""trial"",""time""
""fullscreenexit"",""8"",""20296""
","","","","","","11905.200000017881","<p> However, even if you choose the best park for the equipment, the kids may sometimes be sad. </p>","","0","instructions","","","","","","","","","","","","","",""
"learning-instructions","18","3347638","0.0-8.0-0.0-0.10","1579","1","2","""event"",""trial"",""time""
""focus"",""1"",""1185""
""fullscreenenter"",""1"",""2651""
""fullscreenexit"",""8"",""20296""
""blur"",""8"",""21368""
""focus"",""8"",""28940""
""blur"",""9"",""276503""
""focus"",""9"",""318992""
""blur"",""9"",""914283""
""focus"",""9"",""3231803""
","""event"",""trial"",""time""
""blur"",""8"",""21368""
""blur"",""9"",""276503""
""blur"",""9"",""914283""
","""event"",""trial"",""time""
""focus"",""1"",""1185""
""focus"",""8"",""28940""
""focus"",""9"",""318992""
""focus"",""9"",""3231803""
","""event"",""trial"",""time""
""fullscreenenter"",""1"",""2651""
","""event"",""trial"",""time""
""fullscreenexit"",""8"",""20296""
","","","","","","5585.200000017881","<p> Similarly, even if you choose the <i>wrong</i> park for the equipment, the kids may still be happy sometimes.","","0","instructions","","","","","","","","","","","","","",""
"learning-instructions","19","3366735","0.0-8.0-0.0-0.11","1579","1","2","""event"",""trial"",""time""
""focus"",""1"",""1185""
""fullscreenenter"",""1"",""2651""
""fullscreenexit"",""8"",""20296""
""blur"",""8"",""21368""
""focus"",""8"",""28940""
""blur"",""9"",""276503""
""focus"",""9"",""318992""
""blur"",""9"",""914283""
""focus"",""9"",""3231803""
","""event"",""trial"",""time""
""blur"",""8"",""21368""
""blur"",""9"",""276503""
""blur"",""9"",""914283""
","""event"",""trial"",""time""
""focus"",""1"",""1185""
""focus"",""8"",""28940""
""focus"",""9"",""318992""
""focus"",""9"",""3231803""
","""event"",""trial"",""time""
""fullscreenenter"",""1"",""2651""
","""event"",""trial"",""time""
""fullscreenexit"",""8"",""20296""
","","","","","","14042.100000023842","<p> For example, the best park for this soccer ball is this one.<div style='float: center;'><img src='images/i1.png' width = '500' height = '268'></img>","","0","instructions","","","","","","","","","","","","","",""
"learning-instructions","20","3378073","0.0-8.0-0.0-0.12","1579","1","2","""event"",""trial"",""time""
""focus"",""1"",""1185""
""fullscreenenter"",""1"",""2651""
""fullscreenexit"",""8"",""20296""
""blur"",""8"",""21368""
""focus"",""8"",""28940""
""blur"",""9"",""276503""
""focus"",""9"",""318992""
""blur"",""9"",""914283""
""focus"",""9"",""3231803""
","""event"",""trial"",""time""
""blur"",""8"",""21368""
""blur"",""9"",""276503""
""blur"",""9"",""914283""
","""event"",""trial"",""time""
""focus"",""1"",""1185""
""focus"",""8"",""28940""
""focus"",""9"",""318992""
""focus"",""9"",""3231803""
","""event"",""trial"",""time""
""fullscreenenter"",""1"",""2651""
","""event"",""trial"",""time""
""fullscreenexit"",""8"",""20296""
","","","","","","6030.600000023842","<p> Let's see what happens if you choose this park for the soccer ball five times.","","0","instructions","","","","","","","","","","","","","",""
"learning-instructions","21","3382372","0.0-8.0-0.0-0.13","1579","1","2","""event"",""trial"",""time""
""focus"",""1"",""1185""
""fullscreenenter"",""1"",""2651""
""fullscreenexit"",""8"",""20296""
""blur"",""8"",""21368""
""focus"",""8"",""28940""
""blur"",""9"",""276503""
""focus"",""9"",""318992""
""blur"",""9"",""914283""
""focus"",""9"",""3231803""
","""event"",""trial"",""time""
""blur"",""8"",""21368""
""blur"",""9"",""276503""
""blur"",""9"",""914283""
","""event"",""trial"",""time""
""focus"",""1"",""1185""
""focus"",""8"",""28940""
""focus"",""9"",""318992""
""focus"",""9"",""3231803""
","""event"",""trial"",""time""
""fullscreenenter"",""1"",""2651""
","""event"",""trial"",""time""
""fullscreenexit"",""8"",""20296""
","","","","","","2118.300000011921","<p> The kids are happy.<div style='float: left;'><img src='images/i2.png' width = '640' height = '360'></img>","","0","instructions","","","","","","","","","","","","","",""
"learning-instructions","22","3395619","0.0-8.0-0.0-0.14","1579","1","2","""event"",""trial"",""time""
""focus"",""1"",""1185""
""fullscreenenter"",""1"",""2651""
""fullscreenexit"",""8"",""20296""
""blur"",""8"",""21368""
""focus"",""8"",""28940""
""blur"",""9"",""276503""
""focus"",""9"",""318992""
""blur"",""9"",""914283""
""focus"",""9"",""3231803""
","""event"",""trial"",""time""
""blur"",""8"",""21368""
""blur"",""9"",""276503""
""blur"",""9"",""914283""
","""event"",""trial"",""time""
""focus"",""1"",""1185""
""focus"",""8"",""28940""
""focus"",""9"",""318992""
""focus"",""9"",""3231803""
","""event"",""trial"",""time""
""fullscreenenter"",""1"",""2651""
","""event"",""trial"",""time""
""fullscreenexit"",""8"",""20296""
","","","","","","11076.100000023842","<p> The kids are happy.<div style='float: left;'><img src='images/i3.png' width = '640' height = '360'></img>","","0","instructions","","","","","","","","","","","","","",""
"learning-instructions","23","3403975","0.0-8.0-0.0-0.15","1579","1","2","""event"",""trial"",""time""
""focus"",""1"",""1185""
""fullscreenenter"",""1"",""2651""
""fullscreenexit"",""8"",""20296""
""blur"",""8"",""21368""
""focus"",""8"",""28940""
""blur"",""9"",""276503""
""focus"",""9"",""318992""
""blur"",""9"",""914283""
""focus"",""9"",""3231803""
","""event"",""trial"",""time""
""blur"",""8"",""21368""
""blur"",""9"",""276503""
""blur"",""9"",""914283""
","""event"",""trial"",""time""
""focus"",""1"",""1185""
""focus"",""8"",""28940""
""focus"",""9"",""318992""
""focus"",""9"",""3231803""
","""event"",""trial"",""time""
""fullscreenenter"",""1"",""2651""
","""event"",""trial"",""time""
""fullscreenexit"",""8"",""20296""
","","","","","","6191.799999982119","<p> The kids are happy.<div style='float: left;'><img src='images/i4.png' width = '640' height = '360'></img>","","0","instructions","","","","","","","","","","","","","",""
"learning-instructions","24","3414693","0.0-8.0-0.0-0.16","1579","1","2","""event"",""trial"",""time""
""focus"",""1"",""1185""
""fullscreenenter"",""1"",""2651""
""fullscreenexit"",""8"",""20296""
""blur"",""8"",""21368""
""focus"",""8"",""28940""
""blur"",""9"",""276503""
""focus"",""9"",""318992""
""blur"",""9"",""914283""
""focus"",""9"",""3231803""
","""event"",""trial"",""time""
""blur"",""8"",""21368""
""blur"",""9"",""276503""
""blur"",""9"",""914283""
","""event"",""trial"",""time""
""focus"",""1"",""1185""
""focus"",""8"",""28940""
""focus"",""9"",""318992""
""focus"",""9"",""3231803""
","""event"",""trial"",""time""
""fullscreenenter"",""1"",""2651""
","""event"",""trial"",""time""
""fullscreenexit"",""8"",""20296""
","","","","","","8510.09999999404","<p> The kids are sad.<div style='float: left;'><img src='images/i5.png' width = '640' height = '360'></img>","","0","instructions","","","","","","","","","","","","","",""
"learning-instructions","25","3419478","0.0-8.0-0.0-0.17","1579","1","2","""event"",""trial"",""time""
""focus"",""1"",""1185""
""fullscreenenter"",""1"",""2651""
""fullscreenexit"",""8"",""20296""
""blur"",""8"",""21368""
""focus"",""8"",""28940""
""blur"",""9"",""276503""
""focus"",""9"",""318992""
""blur"",""9"",""914283""
""focus"",""9"",""3231803""
","""event"",""trial"",""time""
""blur"",""8"",""21368""
""blur"",""9"",""276503""
""blur"",""9"",""914283""
","""event"",""trial"",""time""
""focus"",""1"",""1185""
""focus"",""8"",""28940""
""focus"",""9"",""318992""
""focus"",""9"",""3231803""
","""event"",""trial"",""time""
""fullscreenenter"",""1"",""2651""
","""event"",""trial"",""time""
""fullscreenexit"",""8"",""20296""
","","","","","","2616.2000000178814","<p> The kids are happy.<div style='float: left;'><img src='images/i6.png' width = '640' height = '360'></img>","","0","instructions","","","","","","","","","","","","","",""
"learning-instructions","26","3432216","0.0-8.0-0.0-0.18","1579","1","2","""event"",""trial"",""time""
""focus"",""1"",""1185""
""fullscreenenter"",""1"",""2651""
""fullscreenexit"",""8"",""20296""
""blur"",""8"",""21368""
""focus"",""8"",""28940""
""blur"",""9"",""276503""
""focus"",""9"",""318992""
""blur"",""9"",""914283""
""focus"",""9"",""3231803""
","""event"",""trial"",""time""
""blur"",""8"",""21368""
""blur"",""9"",""276503""
""blur"",""9"",""914283""
","""event"",""trial"",""time""
""focus"",""1"",""1185""
""focus"",""8"",""28940""
""focus"",""9"",""318992""
""focus"",""9"",""3231803""
","""event"",""trial"",""time""
""fullscreenenter"",""1"",""2651""
","""event"",""trial"",""time""
""fullscreenexit"",""8"",""20296""
","","","","","","5463.299999982119","<p> As you can see, selecting that park for the soccer ball made the kids happy most of the time, but not all the time.","","0","instructions","","","","","","","","","","","","","",""
"learning-instructions","27","3442339","0.0-8.0-0.0-0.19","1579","1","2","""event"",""trial"",""time""
""focus"",""1"",""1185""
""fullscreenenter"",""1"",""2651""
""fullscreenexit"",""8"",""20296""
""blur"",""8"",""21368""
""focus"",""8"",""28940""
""blur"",""9"",""276503""
""focus"",""9"",""318992""
""blur"",""9"",""914283""
""focus"",""9"",""3231803""
","""event"",""trial"",""time""
""blur"",""8"",""21368""
""blur"",""9"",""276503""
""blur"",""9"",""914283""
","""event"",""trial"",""time""
""focus"",""1"",""1185""
""focus"",""8"",""28940""
""focus"",""9"",""318992""
""focus"",""9"",""3231803""
","""event"",""trial"",""time""
""fullscreenenter"",""1"",""2651""
","""event"",""trial"",""time""
""fullscreenexit"",""8"",""20296""
","","","","","","4117.200000017881","<p> Now let's see what happens if you choose a DIFFERENT park for the soccer ball 5 times.","","0","instructions","","","","","","","","","","","","","",""
"learning-instructions","28","3446651","0.0-8.0-0.0-0.20","1579","1","2","""event"",""trial"",""time""
""focus"",""1"",""1185""
""fullscreenenter"",""1"",""2651""
""fullscreenexit"",""8"",""20296""
""blur"",""8"",""21368""
""focus"",""8"",""28940""
""blur"",""9"",""276503""
""focus"",""9"",""318992""
""blur"",""9"",""914283""
""focus"",""9"",""3231803""
","""event"",""trial"",""time""
""blur"",""8"",""21368""
""blur"",""9"",""276503""
""blur"",""9"",""914283""
","""event"",""trial"",""time""
""focus"",""1"",""1185""
""focus"",""8"",""28940""
""focus"",""9"",""318992""
""focus"",""9"",""3231803""
","""event"",""trial"",""time""
""fullscreenenter"",""1"",""2651""
","""event"",""trial"",""time""
""fullscreenexit"",""8"",""20296""
","","","","","","2088.399999976158","<p> The kids are sad.<div style='float: left;'><img src='images/i7.png' width = '640' height = '360'></img>","","0","instructions","","","","","","","","","","","","","",""
"learning-instructions","29","3456867","0.0-8.0-0.0-0.21","1579","1","2","""event"",""trial"",""time""
""focus"",""1"",""1185""
""fullscreenenter"",""1"",""2651""
""fullscreenexit"",""8"",""20296""
""blur"",""8"",""21368""
""focus"",""8"",""28940""
""blur"",""9"",""276503""
""focus"",""9"",""318992""
""blur"",""9"",""914283""
""focus"",""9"",""3231803""
","""event"",""trial"",""time""
""blur"",""8"",""21368""
""blur"",""9"",""276503""
""blur"",""9"",""914283""
","""event"",""trial"",""time""
""focus"",""1"",""1185""
""focus"",""8"",""28940""
""focus"",""9"",""318992""
""focus"",""9"",""3231803""
","""event"",""trial"",""time""
""fullscreenenter"",""1"",""2651""
","""event"",""trial"",""time""
""fullscreenexit"",""8"",""20296""
","","","","","","7983.9000000059605","<p> The kids are sad.<div style='float: left;'><img src='images/i8.png' width = '640' height = '360'></img>","","0","instructions","","","","","","","","","","","","","",""
"learning-instructions","30","3461408","0.0-8.0-0.0-0.22","1579","1","2","""event"",""trial"",""time""
""focus"",""1"",""1185""
""fullscreenenter"",""1"",""2651""
""fullscreenexit"",""8"",""20296""
""blur"",""8"",""21368""
""focus"",""8"",""28940""
""blur"",""9"",""276503""
""focus"",""9"",""318992""
""blur"",""9"",""914283""
""focus"",""9"",""3231803""
","""event"",""trial"",""time""
""blur"",""8"",""21368""
""blur"",""9"",""276503""
""blur"",""9"",""914283""
","""event"",""trial"",""time""
""focus"",""1"",""1185""
""focus"",""8"",""28940""
""focus"",""9"",""318992""
""focus"",""9"",""3231803""
","""event"",""trial"",""time""
""fullscreenenter"",""1"",""2651""
","""event"",""trial"",""time""
""fullscreenexit"",""8"",""20296""
","","","","","","2354.5999999940395","<p> The kids are happy.<div style='float: left;'><img src='images/i9.png' width = '640' height = '360'></img>","","0","instructions","","","","","","","","","","","","","",""
"learning-instructions","31","3477079","0.0-8.0-0.0-0.23","1579","1","2","""event"",""trial"",""time""
""focus"",""1"",""1185""
""fullscreenenter"",""1"",""2651""
""fullscreenexit"",""8"",""20296""
""blur"",""8"",""21368""
""focus"",""8"",""28940""
""blur"",""9"",""276503""
""focus"",""9"",""318992""
""blur"",""9"",""914283""
""focus"",""9"",""3231803""
","""event"",""trial"",""time""
""blur"",""8"",""21368""
""blur"",""9"",""276503""
""blur"",""9"",""914283""
","""event"",""trial"",""time""
""focus"",""1"",""1185""
""focus"",""8"",""28940""
""focus"",""9"",""318992""
""focus"",""9"",""3231803""
","""event"",""trial"",""time""
""fullscreenenter"",""1"",""2651""
","""event"",""trial"",""time""
""fullscreenexit"",""8"",""20296""
","","","","","","13466.90000000596","<p> The kids are sad.<div style='float: left;'><img src='images/i10.png' width = '640' height = '360'></img>","","0","instructions","","","","","","","","","","","","","",""
"learning-instructions","32","3501417","0.0-8.0-0.0-0.24","1579","1","2","""event"",""trial"",""time""
""focus"",""1"",""1185""
""fullscreenenter"",""1"",""2651""
""fullscreenexit"",""8"",""20296""
""blur"",""8"",""21368""
""focus"",""8"",""28940""
""blur"",""9"",""276503""
""focus"",""9"",""318992""
""blur"",""9"",""914283""
""focus"",""9"",""3231803""
","""event"",""trial"",""time""
""blur"",""8"",""21368""
""blur"",""9"",""276503""
""blur"",""9"",""914283""
","""event"",""trial"",""time""
""focus"",""1"",""1185""
""focus"",""8"",""28940""
""focus"",""9"",""318992""
""focus"",""9"",""3231803""
","""event"",""trial"",""time""
""fullscreenenter"",""1"",""2651""
","""event"",""trial"",""time""
""fullscreenexit"",""8"",""20296""
","","","","","","22124","<p> The kids are sad.<div style='float: left;'><img src='images/i11.png' width = '640' height = '360'></img>","","0","instructions","","","","","","","","","","","","","",""
"learning-instructions","33","3523475","0.0-8.0-0.0-0.25","1579","1","2","""event"",""trial"",""time""
""focus"",""1"",""1185""
""fullscreenenter"",""1"",""2651""
""fullscreenexit"",""8"",""20296""
""blur"",""8"",""21368""
""focus"",""8"",""28940""
""blur"",""9"",""276503""
""focus"",""9"",""318992""
""blur"",""9"",""914283""
""focus"",""9"",""3231803""
","""event"",""trial"",""time""
""blur"",""8"",""21368""
""blur"",""9"",""276503""
""blur"",""9"",""914283""
","""event"",""trial"",""time""
""focus"",""1"",""1185""
""focus"",""8"",""28940""
""focus"",""9"",""318992""
""focus"",""9"",""3231803""
","""event"",""trial"",""time""
""fullscreenenter"",""1"",""2651""
","""event"",""trial"",""time""
""fullscreenexit"",""8"",""20296""
","","","","","","13933.100000023842","<p> As you can see, selecting the wrong park for the soccer ball made the kids sad most of the time, but not all the time.","","0","instructions","","","","","","","","","","","","","",""
"learning-instructions","34","3539101","0.0-8.0-0.0-0.26","1579","1","2","""event"",""trial"",""time""
""focus"",""1"",""1185""
""fullscreenenter"",""1"",""2651""
""fullscreenexit"",""8"",""20296""
""blur"",""8"",""21368""
""focus"",""8"",""28940""
""blur"",""9"",""276503""
""focus"",""9"",""318992""
""blur"",""9"",""914283""
""focus"",""9"",""3231803""
","""event"",""trial"",""time""
""blur"",""8"",""21368""
""blur"",""9"",""276503""
""blur"",""9"",""914283""
","""event"",""trial"",""time""
""focus"",""1"",""1185""
""focus"",""8"",""28940""
""focus"",""9"",""318992""
""focus"",""9"",""3231803""
","""event"",""trial"",""time""
""fullscreenenter"",""1"",""2651""
","""event"",""trial"",""time""
""fullscreenexit"",""8"",""20296""
","","","","","","6509.199999988079","<p> The different pieces of equipment belong in different parks. You need to try to learn which is the best park for each piece of equipment.","","0","instructions","","","","","","","","","","","","","",""
"learning-instructions","35","3566206","0.0-8.0-0.0-0.27","1579","1","2","""event"",""trial"",""time""
""focus"",""1"",""1185""
""fullscreenenter"",""1"",""2651""
""fullscreenexit"",""8"",""20296""
""blur"",""8"",""21368""
""focus"",""8"",""28940""
""blur"",""9"",""276503""
""focus"",""9"",""318992""
""blur"",""9"",""914283""
""focus"",""9"",""3231803""
","""event"",""trial"",""time""
""blur"",""8"",""21368""
""blur"",""9"",""276503""
""blur"",""9"",""914283""
","""event"",""trial"",""time""
""focus"",""1"",""1185""
""focus"",""8"",""28940""
""focus"",""9"",""318992""
""focus"",""9"",""3231803""
","""event"",""trial"",""time""
""fullscreenenter"",""1"",""2651""
","""event"",""trial"",""time""
""fullscreenexit"",""8"",""20296""
","","","","","","10713.59999999404","<p> Try to choose the best park for each piece of equipment, because you will <b> WIN </b> 1 point for each time you make the kids happy and <b>LOSE</b> 1 point for each time you make them sad. </p><p> Remember, if you make the best choice, you will win 1 point most of the time, but not all the time. </p>","","0","instructions","","","","","","","","","","","","","",""
"learning-instructions","36","3582429","0.0-8.0-0.0-0.28","1579","1","2","""event"",""trial"",""time""
""focus"",""1"",""1185""
""fullscreenenter"",""1"",""2651""
""fullscreenexit"",""8"",""20296""
""blur"",""8"",""21368""
""focus"",""8"",""28940""
""blur"",""9"",""276503""
""focus"",""9"",""318992""
""blur"",""9"",""914283""
""focus"",""9"",""3231803""
","""event"",""trial"",""time""
""blur"",""8"",""21368""
""blur"",""9"",""276503""
""blur"",""9"",""914283""
","""event"",""trial"",""time""
""focus"",""1"",""1185""
""focus"",""8"",""28940""
""focus"",""9"",""318992""
""focus"",""9"",""3231803""
","""event"",""trial"",""time""
""fullscreenenter"",""1"",""2651""
","""event"",""trial"",""time""
""fullscreenexit"",""8"",""20296""
","","","","","","10745.199999988079","<p> This is just a practice round, but in the real game, your bonus payment will depend on your total number of points.","","0","instructions","","","","","","","","","","","","","",""
"learning-instructions","37","3596208","0.0-8.0-0.0-0.29","1579","1","2","""event"",""trial"",""time""
""focus"",""1"",""1185""
""fullscreenenter"",""1"",""2651""
""fullscreenexit"",""8"",""20296""
""blur"",""8"",""21368""
""focus"",""8"",""28940""
""blur"",""9"",""276503""
""focus"",""9"",""318992""
""blur"",""9"",""914283""
""focus"",""9"",""3231803""
","""event"",""trial"",""time""
""blur"",""8"",""21368""
""blur"",""9"",""276503""
""blur"",""9"",""914283""
","""event"",""trial"",""time""
""focus"",""1"",""1185""
""focus"",""8"",""28940""
""focus"",""9"",""318992""
""focus"",""9"",""3231803""
","""event"",""trial"",""time""
""fullscreenenter"",""1"",""2651""
","""event"",""trial"",""time""
""fullscreenexit"",""8"",""20296""
","","","","","","3455.199999988079","<p> The position where each park appears will change throughout the game. </p><p> The position where the park appears <i> does not </i> influence how likely the kids are to be happy or sad. </p>","","0","instructions","","","","","","","","","","","","","",""
"learning-instructions","38","3616848","0.0-8.0-0.0-0.30","1579","1","2","""event"",""trial"",""time""
""focus"",""1"",""1185""
""fullscreenenter"",""1"",""2651""
""fullscreenexit"",""8"",""20296""
""blur"",""8"",""21368""
""focus"",""8"",""28940""
""blur"",""9"",""276503""
""focus"",""9"",""318992""
""blur"",""9"",""914283""
""focus"",""9"",""3231803""
","""event"",""trial"",""time""
""blur"",""8"",""21368""
""blur"",""9"",""276503""
""blur"",""9"",""914283""
","""event"",""trial"",""time""
""focus"",""1"",""1185""
""focus"",""8"",""28940""
""focus"",""9"",""318992""
""focus"",""9"",""3231803""
","""event"",""trial"",""time""
""fullscreenenter"",""1"",""2651""
","""event"",""trial"",""time""
""fullscreenexit"",""8"",""20296""
","","","","","","11235.699999988079","<p> You will have 4 seconds to make each choice. Try to respond before time runs out! </p><p> You will lose 1 point each time you do not make a response. </p>","","0","instructions","","","","","","","","","","","","","",""
"learning-instructions","39","3633769","0.0-8.0-0.0-0.31","1579","1","2","""event"",""trial"",""time""
""focus"",""1"",""1185""
""fullscreenenter"",""1"",""2651""
""fullscreenexit"",""8"",""20296""
""blur"",""8"",""21368""
""focus"",""8"",""28940""
""blur"",""9"",""276503""
""focus"",""9"",""318992""
""blur"",""9"",""914283""
""focus"",""9"",""3231803""
","""event"",""trial"",""time""
""blur"",""8"",""21368""
""blur"",""9"",""276503""
""blur"",""9"",""914283""
","""event"",""trial"",""time""
""focus"",""1"",""1185""
""focus"",""8"",""28940""
""focus"",""9"",""318992""
""focus"",""9"",""3231803""
","""event"",""trial"",""time""
""fullscreenenter"",""1"",""2651""
","""event"",""trial"",""time""
""fullscreenexit"",""8"",""20296""
","","","","","","10124.699999988079","<p> Remember, you should use the 1, 2, and 3 keys to select the park for each piece of equipment. </p><br><div class=""choice-instructions-grid""> <div class=""choice-option""><img src=""images/park1.png"" class=""choice-option-img"" stage=""instructions"" position=""0"" ><div class=""choice-option-text""> Press ""1."" </div></div><div class=""choice-option""><img src=""images/park2.png"" class=""choice-option-img"" stage=""instructions"" position=""1"" ><div class=""choice-option-text""> Press ""2."" </div></div><div class=""choice-option""><img src=""images/park3.png"" class=""choice-option-img"" stage=""instructions"" position=""2"" ><div class=""choice-option-text""> Press ""3."" </div></div></div>","","0","instructions","","","","","","","","","","","","","",""
"html-button-response","40","3635039","0.0-8.0-1.0","1579","1","2","""event"",""trial"",""time""
""focus"",""1"",""1185""
""fullscreenenter"",""1"",""2651""
""fullscreenexit"",""8"",""20296""
""blur"",""8"",""21368""
""focus"",""8"",""28940""
""blur"",""9"",""276503""
""focus"",""9"",""318992""
""blur"",""9"",""914283""
""focus"",""9"",""3231803""
","""event"",""trial"",""time""
""blur"",""8"",""21368""
""blur"",""9"",""276503""
""blur"",""9"",""914283""
","""event"",""trial"",""time""
""focus"",""1"",""1185""
""focus"",""8"",""28940""
""focus"",""9"",""318992""
""focus"",""9"",""3231803""
","""event"",""trial"",""time""
""fullscreenenter"",""1"",""2651""
","""event"",""trial"",""time""
""fullscreenexit"",""8"",""20296""
","","","","","","1154.4000000059605","<p> Ready to practice? </p>","0","","","","","","","","","","","","","","","",""
"html-keyboard-response","41","3635651","0.0-8.0-2.0-0.0","1579","1","2","""event"",""trial"",""time""
""focus"",""1"",""1185""
""fullscreenenter"",""1"",""2651""
""fullscreenexit"",""8"",""20296""
""blur"",""8"",""21368""
""focus"",""8"",""28940""
""blur"",""9"",""276503""
""focus"",""9"",""318992""
""blur"",""9"",""914283""
""focus"",""9"",""3231803""
","""event"",""trial"",""time""
""blur"",""8"",""21368""
""blur"",""9"",""276503""
""blur"",""9"",""914283""
","""event"",""trial"",""time""
""focus"",""1"",""1185""
""focus"",""8"",""28940""
""focus"",""9"",""318992""
""focus"",""9"",""3231803""
","""event"",""trial"",""time""
""fullscreenenter"",""1"",""2651""
","""event"",""trial"",""time""
""fullscreenexit"",""8"",""20296""
","","","","","","null","<div style=""font-size:60px;"">+</div>","null","","fixation","","","","","","","","","","","","","",""
"learning-trial","42","3639672","0.0-8.0-2.0-1.0","1579","1","2","""event"",""trial"",""time""
""focus"",""1"",""1185""
""fullscreenenter"",""1"",""2651""
""fullscreenexit"",""8"",""20296""
""blur"",""8"",""21368""
""focus"",""8"",""28940""
""blur"",""9"",""276503""
""focus"",""9"",""318992""
""blur"",""9"",""914283""
""focus"",""9"",""3231803""
","""event"",""trial"",""time""
""blur"",""8"",""21368""
""blur"",""9"",""276503""
""blur"",""9"",""914283""
","""event"",""trial"",""time""
""focus"",""1"",""1185""
""focus"",""8"",""28940""
""focus"",""9"",""318992""
""focus"",""9"",""3231803""
","""event"",""trial"",""time""
""fullscreenenter"",""1"",""2651""
","""event"",""trial"",""time""
""fullscreenexit"",""8"",""20296""
","","","","","","1644.300000011921","images/racket4.png","","","practice","images/park2.png","images/park3.png","images/park1.png","[1,2,0]","0","2","1","images/park2.png","-1","practice","","","",""
"html-keyboard-response","43","3640181","0.0-8.0-2.0-0.1","1579","1","2","""event"",""trial"",""time""
""focus"",""1"",""1185""
""fullscreenenter"",""1"",""2651""
""fullscreenexit"",""8"",""20296""
""blur"",""8"",""21368""
""focus"",""8"",""28940""
""blur"",""9"",""276503""
""focus"",""9"",""318992""
""blur"",""9"",""914283""
""focus"",""9"",""3231803""
","""event"",""trial"",""time""
""blur"",""8"",""21368""
""blur"",""9"",""276503""
""blur"",""9"",""914283""
","""event"",""trial"",""time""
""focus"",""1"",""1185""
""focus"",""8"",""28940""
""focus"",""9"",""318992""
""focus"",""9"",""3231803""
","""event"",""trial"",""time""
""fullscreenenter"",""1"",""2651""
","""event"",""trial"",""time""
""fullscreenexit"",""8"",""20296""
","","","","","","null","<div style=""font-size:60px;"">+</div>","null","","fixation","","","","","","","","","","","","","",""
"learning-trial","44","3644191","0.0-8.0-2.0-1.1","1579","1","2","""event"",""trial"",""time""
""focus"",""1"",""1185""
""fullscreenenter"",""1"",""2651""
""fullscreenexit"",""8"",""20296""
""blur"",""8"",""21368""
""focus"",""8"",""28940""
""blur"",""9"",""276503""
""focus"",""9"",""318992""
""blur"",""9"",""914283""
""focus"",""9"",""3231803""
","""event"",""trial"",""time""
""blur"",""8"",""21368""
""blur"",""9"",""276503""
""blur"",""9"",""914283""
","""event"",""trial"",""time""
""focus"",""1"",""1185""
""focus"",""8"",""28940""
""focus"",""9"",""318992""
""focus"",""9"",""3231803""
","""event"",""trial"",""time""
""fullscreenenter"",""1"",""2651""
","""event"",""trial"",""time""
""fullscreenexit"",""8"",""20296""
","","","","","","2101.399999976158","images/ball1.png","","","practice","images/park1.png","images/park3.png","images/park2.png","[0,2,1]","1","2","3","images/park2.png","1","practice","","","",""
"html-keyboard-response","45","3644711","0.0-8.0-2.0-0.2","1579","1","2","""event"",""trial"",""time""
""focus"",""1"",""1185""
""fullscreenenter"",""1"",""2651""
""fullscreenexit"",""8"",""20296""
""blur"",""8"",""21368""
""focus"",""8"",""28940""
""blur"",""9"",""276503""
""focus"",""9"",""318992""
""blur"",""9"",""914283""
""focus"",""9"",""3231803""
","""event"",""trial"",""time""
""blur"",""8"",""21368""
""blur"",""9"",""276503""
""blur"",""9"",""914283""
","""event"",""trial"",""time""
""focus"",""1"",""1185""
""focus"",""8"",""28940""
""focus"",""9"",""318992""
""focus"",""9"",""3231803""
","""event"",""trial"",""time""
""fullscreenenter"",""1"",""2651""
","""event"",""trial"",""time""
""fullscreenexit"",""8"",""20296""
","","","","","","null","<div style=""font-size:60px;"">+</div>","null","","fixation","","","","","","","","","","","","","",""
"learning-trial","46","3648731","0.0-8.0-2.0-1.2","1579","1","2","""event"",""trial"",""time""
""focus"",""1"",""1185""
""fullscreenenter"",""1"",""2651""
""fullscreenexit"",""8"",""20296""
""blur"",""8"",""21368""
""focus"",""8"",""28940""
""blur"",""9"",""276503""
""focus"",""9"",""318992""
""blur"",""9"",""914283""
""focus"",""9"",""3231803""
","""event"",""trial"",""time""
""blur"",""8"",""21368""
""blur"",""9"",""276503""
""blur"",""9"",""914283""
","""event"",""trial"",""time""
""focus"",""1"",""1185""
""focus"",""8"",""28940""
""focus"",""9"",""318992""
""focus"",""9"",""3231803""
","""event"",""trial"",""time""
""fullscreenenter"",""1"",""2651""
","""event"",""trial"",""time""
""fullscreenexit"",""8"",""20296""
","","","","","","1246.5","images/ball3.png","","","practice","images/park1.png","images/park2.png","images/park3.png","[0,1,2]","2","2","2","images/park2.png","-1","practice","","","",""
"html-keyboard-response","47","3649240","0.0-8.0-2.0-0.3","1579","1","2","""event"",""trial"",""time""
""focus"",""1"",""1185""
""fullscreenenter"",""1"",""2651""
""fullscreenexit"",""8"",""20296""
""blur"",""8"",""21368""
""focus"",""8"",""28940""
""blur"",""9"",""276503""
""focus"",""9"",""318992""
""blur"",""9"",""914283""
""focus"",""9"",""3231803""
","""event"",""trial"",""time""
""blur"",""8"",""21368""
""blur"",""9"",""276503""
""blur"",""9"",""914283""
","""event"",""trial"",""time""
""focus"",""1"",""1185""
""focus"",""8"",""28940""
""focus"",""9"",""318992""
""focus"",""9"",""3231803""
","""event"",""trial"",""time""
""fullscreenenter"",""1"",""2651""
","""event"",""trial"",""time""
""fullscreenexit"",""8"",""20296""
","","","","","","null","<div style=""font-size:60px;"">+</div>","null","","fixation","","","","","","","","","","","","","",""
"learning-trial","48","3653252","0.0-8.0-2.0-1.3","1579","1","2","""event"",""trial"",""time""
""focus"",""1"",""1185""
""fullscreenenter"",""1"",""2651""
""fullscreenexit"",""8"",""20296""
""blur"",""8"",""21368""
""focus"",""8"",""28940""
""blur"",""9"",""276503""
""focus"",""9"",""318992""
""blur"",""9"",""914283""
""focus"",""9"",""3231803""
","""event"",""trial"",""time""
""blur"",""8"",""21368""
""blur"",""9"",""276503""
""blur"",""9"",""914283""
","""event"",""trial"",""time""
""focus"",""1"",""1185""
""focus"",""8"",""28940""
""focus"",""9"",""318992""
""focus"",""9"",""3231803""
","""event"",""trial"",""time""
""fullscreenenter"",""1"",""2651""
","""event"",""trial"",""time""
""fullscreenexit"",""8"",""20296""
","","","","","","1975.0999999940395","images/racket2.png","","","practice","images/park1.png","images/park3.png","images/park2.png","[0,2,1]","0","0","2","images/park3.png","-1","practice","","","",""
"html-keyboard-response","49","3653754","0.0-8.0-2.0-0.4","1579","1","2","""event"",""trial"",""time""
""focus"",""1"",""1185""
""fullscreenenter"",""1"",""2651""
""fullscreenexit"",""8"",""20296""
""blur"",""8"",""21368""
""focus"",""8"",""28940""
""blur"",""9"",""276503""
""focus"",""9"",""318992""
""blur"",""9"",""914283""
""focus"",""9"",""3231803""
","""event"",""trial"",""time""
""blur"",""8"",""21368""
""blur"",""9"",""276503""
""blur"",""9"",""914283""
","""event"",""trial"",""time""
""focus"",""1"",""1185""
""focus"",""8"",""28940""
""focus"",""9"",""318992""
""focus"",""9"",""3231803""
","""event"",""trial"",""time""
""fullscreenenter"",""1"",""2651""
","""event"",""trial"",""time""
""fullscreenexit"",""8"",""20296""
","","","","","","null","<div style=""font-size:60px;"">+</div>","null","","fixation","","","","","","","","","","","","","",""
"learning-trial","50","3657761","0.0-8.0-2.0-1.4","1579","1","2","""event"",""trial"",""time""
""focus"",""1"",""1185""
""fullscreenenter"",""1"",""2651""
""fullscreenexit"",""8"",""20296""
""blur"",""8"",""21368""
""focus"",""8"",""28940""
""blur"",""9"",""276503""
""focus"",""9"",""318992""
""blur"",""9"",""914283""
""focus"",""9"",""3231803""
","""event"",""trial"",""time""
""blur"",""8"",""21368""
""blur"",""9"",""276503""
""blur"",""9"",""914283""
","""event"",""trial"",""time""
""focus"",""1"",""1185""
""focus"",""8"",""28940""
""focus"",""9"",""318992""
""focus"",""9"",""3231803""
","""event"",""trial"",""time""
""fullscreenenter"",""1"",""2651""
","""event"",""trial"",""time""
""fullscreenexit"",""8"",""20296""
","","","","","","1861.3999999761581","images/racket2.png","","","practice","images/park2.png","images/park1.png","images/park3.png","[1,0,2]","0","1","2","images/park1.png","1","practice","","","",""
"html-keyboard-response","51","3658262","0.0-8.0-2.0-0.5","1579","1","2","""event"",""trial"",""time""
""focus"",""1"",""1185""
""fullscreenenter"",""1"",""2651""
""fullscreenexit"",""8"",""20296""
""blur"",""8"",""21368""
""focus"",""8"",""28940""
""blur"",""9"",""276503""
""focus"",""9"",""318992""
""blur"",""9"",""914283""
""focus"",""9"",""3231803""
","""event"",""trial"",""time""
""blur"",""8"",""21368""
""blur"",""9"",""276503""
""blur"",""9"",""914283""
","""event"",""trial"",""time""
""focus"",""1"",""1185""
""focus"",""8"",""28940""
""focus"",""9"",""318992""
""focus"",""9"",""3231803""
","""event"",""trial"",""time""
""fullscreenenter"",""1"",""2651""
","""event"",""trial"",""time""
""fullscreenexit"",""8"",""20296""
","","","","","","null","<div style=""font-size:60px;"">+</div>","null","","fixation","","","","","","","","","","","","","",""
"learning-trial","52","3662266","0.0-8.0-2.0-1.5","1579","1","2","""event"",""trial"",""time""
""focus"",""1"",""1185""
""fullscreenenter"",""1"",""2651""
""fullscreenexit"",""8"",""20296""
""blur"",""8"",""21368""
""focus"",""8"",""28940""
""blur"",""9"",""276503""
""focus"",""9"",""318992""
""blur"",""9"",""914283""
""focus"",""9"",""3231803""
","""event"",""trial"",""time""
""blur"",""8"",""21368""
""blur"",""9"",""276503""
""blur"",""9"",""914283""
","""event"",""trial"",""time""
""focus"",""1"",""1185""
""focus"",""8"",""28940""
""focus"",""9"",""318992""
""focus"",""9"",""3231803""
","""event"",""trial"",""time""
""fullscreenenter"",""1"",""2651""
","""event"",""trial"",""time""
""fullscreenexit"",""8"",""20296""
","","","","","","1982","images/ball4.png","","","practice","images/park2.png","images/park3.png","images/park1.png","[1,2,0]","1","0","2","images/park3.png","-1","practice","","","",""
"html-keyboard-response","53","3662768","0.0-8.0-2.0-0.6","1579","1","2","""event"",""trial"",""time""
""focus"",""1"",""1185""
""fullscreenenter"",""1"",""2651""
""fullscreenexit"",""8"",""20296""
""blur"",""8"",""21368""
""focus"",""8"",""28940""
""blur"",""9"",""276503""
""focus"",""9"",""318992""
""blur"",""9"",""914283""
""focus"",""9"",""3231803""
","""event"",""trial"",""time""
""blur"",""8"",""21368""
""blur"",""9"",""276503""
""blur"",""9"",""914283""
","""event"",""trial"",""time""
""focus"",""1"",""1185""
""focus"",""8"",""28940""
""focus"",""9"",""318992""
""focus"",""9"",""3231803""
","""event"",""trial"",""time""
""fullscreenenter"",""1"",""2651""
","""event"",""trial"",""time""
""fullscreenexit"",""8"",""20296""
","","","","","","null","<div style=""font-size:60px;"">+</div>","null","","fixation","","","","","","","","","","","","","",""
"learning-trial","54","3666774","0.0-8.0-2.0-1.6","1579","1","2","""event"",""trial"",""time""
""focus"",""1"",""1185""
""fullscreenenter"",""1"",""2651""
""fullscreenexit"",""8"",""20296""
""blur"",""8"",""21368""
""focus"",""8"",""28940""
""blur"",""9"",""276503""
""focus"",""9"",""318992""
""blur"",""9"",""914283""
""focus"",""9"",""3231803""
","""event"",""trial"",""time""
""blur"",""8"",""21368""
""blur"",""9"",""276503""
""blur"",""9"",""914283""
","""event"",""trial"",""time""
""focus"",""1"",""1185""
""focus"",""8"",""28940""
""focus"",""9"",""318992""
""focus"",""9"",""3231803""
","""event"",""trial"",""time""
""fullscreenenter"",""1"",""2651""
","""event"",""trial"",""time""
""fullscreenexit"",""8"",""20296""
","","","","","","2217.300000011921","images/ball1.png","","","practice","images/park1.png","images/park2.png","images/park3.png","[0,1,2]","1","1","3","images/park3.png","-1","practice","","","",""
"html-keyboard-response","55","3667276","0.0-8.0-2.0-0.7","1579","1","2","""event"",""trial"",""time""
""focus"",""1"",""1185""
""fullscreenenter"",""1"",""2651""
""fullscreenexit"",""8"",""20296""
""blur"",""8"",""21368""
""focus"",""8"",""28940""
""blur"",""9"",""276503""
""focus"",""9"",""318992""
""blur"",""9"",""914283""
""focus"",""9"",""3231803""
","""event"",""trial"",""time""
""blur"",""8"",""21368""
""blur"",""9"",""276503""
""blur"",""9"",""914283""
","""event"",""trial"",""time""
""focus"",""1"",""1185""
""focus"",""8"",""28940""
""focus"",""9"",""318992""
""focus"",""9"",""3231803""
","""event"",""trial"",""time""
""fullscreenenter"",""1"",""2651""
","""event"",""trial"",""time""
""fullscreenexit"",""8"",""20296""
","","","","","","null","<div style=""font-size:60px;"">+</div>","null","","fixation","","","","","","","","","","","","","",""
"learning-trial","56","3671282","0.0-8.0-2.0-1.7","1579","1","2","""event"",""trial"",""time""
""focus"",""1"",""1185""
""fullscreenenter"",""1"",""2651""
""fullscreenexit"",""8"",""20296""
""blur"",""8"",""21368""
""focus"",""8"",""28940""
""blur"",""9"",""276503""
""focus"",""9"",""318992""
""blur"",""9"",""914283""
""focus"",""9"",""3231803""
","""event"",""trial"",""time""
""blur"",""8"",""21368""
""blur"",""9"",""276503""
""blur"",""9"",""914283""
","""event"",""trial"",""time""
""focus"",""1"",""1185""
""focus"",""8"",""28940""
""focus"",""9"",""318992""
""focus"",""9"",""3231803""
","""event"",""trial"",""time""
""fullscreenenter"",""1"",""2651""
","""event"",""trial"",""time""
""fullscreenexit"",""8"",""20296""
","","","","","","1518","images/racket4.png","","","practice","images/park1.png","images/park2.png","images/park3.png","[0,1,2]","0","0","2","images/park2.png","-1","practice","","","",""
"html-keyboard-response","57","3671786","0.0-8.0-2.0-0.8","1579","1","2","""event"",""trial"",""time""
""focus"",""1"",""1185""
""fullscreenenter"",""1"",""2651""
""fullscreenexit"",""8"",""20296""
""blur"",""8"",""21368""
""focus"",""8"",""28940""
""blur"",""9"",""276503""
""focus"",""9"",""318992""
""blur"",""9"",""914283""
""focus"",""9"",""3231803""
","""event"",""trial"",""time""
""blur"",""8"",""21368""
""blur"",""9"",""276503""
""blur"",""9"",""914283""
","""event"",""trial"",""time""
""focus"",""1"",""1185""
""focus"",""8"",""28940""
""focus"",""9"",""318992""
""focus"",""9"",""3231803""
","""event"",""trial"",""time""
""fullscreenenter"",""1"",""2651""
","""event"",""trial"",""time""
""fullscreenexit"",""8"",""20296""
","","","","","","null","<div style=""font-size:60px;"">+</div>","null","","fixation","","","","","","","","","","","","","",""
"learning-trial","58","3675792","0.0-8.0-2.0-1.8","1579","1","2","""event"",""trial"",""time""
""focus"",""1"",""1185""
""fullscreenenter"",""1"",""2651""
""fullscreenexit"",""8"",""20296""
""blur"",""8"",""21368""
""focus"",""8"",""28940""
""blur"",""9"",""276503""
""focus"",""9"",""318992""
""blur"",""9"",""914283""
""focus"",""9"",""3231803""
","""event"",""trial"",""time""
""blur"",""8"",""21368""
""blur"",""9"",""276503""
""blur"",""9"",""914283""
","""event"",""trial"",""time""
""focus"",""1"",""1185""
""focus"",""8"",""28940""
""focus"",""9"",""318992""
""focus"",""9"",""3231803""
","""event"",""trial"",""time""
""fullscreenenter"",""1"",""2651""
","""event"",""trial"",""time""
""fullscreenexit"",""8"",""20296""
","","","","","","1300.199999988079","images/racket1.png","","","practice","images/park1.png","images/park3.png","images/park2.png","[0,2,1]","2","1","2","images/park3.png","1","practice","","","",""
"html-keyboard-response","59","3676295","0.0-8.0-2.0-0.9","1579","1","2","""event"",""trial"",""time""
""focus"",""1"",""1185""
""fullscreenenter"",""1"",""2651""
""fullscreenexit"",""8"",""20296""
""blur"",""8"",""21368""
""focus"",""8"",""28940""
""blur"",""9"",""276503""
""focus"",""9"",""318992""
""blur"",""9"",""914283""
""focus"",""9"",""3231803""
","""event"",""trial"",""time""
""blur"",""8"",""21368""
""blur"",""9"",""276503""
""blur"",""9"",""914283""
","""event"",""trial"",""time""
""focus"",""1"",""1185""
""focus"",""8"",""28940""
""focus"",""9"",""318992""
""focus"",""9"",""3231803""
","""event"",""trial"",""time""
""fullscreenenter"",""1"",""2651""
","""event"",""trial"",""time""
""fullscreenexit"",""8"",""20296""
","","","","","","null","<div style=""font-size:60px;"">+</div>","null","","fixation","","","","","","","","","","","","","",""
"learning-trial","60","3680300","0.0-8.0-2.0-1.9","1579","1","2","""event"",""trial"",""time""
""focus"",""1"",""1185""
""fullscreenenter"",""1"",""2651""
""fullscreenexit"",""8"",""20296""
""blur"",""8"",""21368""
""focus"",""8"",""28940""
""blur"",""9"",""276503""
""focus"",""9"",""318992""
""blur"",""9"",""914283""
""focus"",""9"",""3231803""
","""event"",""trial"",""time""
""blur"",""8"",""21368""
""blur"",""9"",""276503""
""blur"",""9"",""914283""
","""event"",""trial"",""time""
""focus"",""1"",""1185""
""focus"",""8"",""28940""
""focus"",""9"",""318992""
""focus"",""9"",""3231803""
","""event"",""trial"",""time""
""fullscreenenter"",""1"",""2651""
","""event"",""trial"",""time""
""fullscreenexit"",""8"",""20296""
","","","","","","2132.2000000178814","images/ball3.png","","","practice","images/park2.png","images/park3.png","images/park1.png","[1,2,0]","2","1","3","images/park1.png","-1","practice","","","",""
"html-keyboard-response","61","3680802","0.0-8.0-2.0-0.10","1579","1","2","""event"",""trial"",""time""
""focus"",""1"",""1185""
""fullscreenenter"",""1"",""2651""
""fullscreenexit"",""8"",""20296""
""blur"",""8"",""21368""
""focus"",""8"",""28940""
""blur"",""9"",""276503""
""focus"",""9"",""318992""
""blur"",""9"",""914283""
""focus"",""9"",""3231803""
","""event"",""trial"",""time""
""blur"",""8"",""21368""
""blur"",""9"",""276503""
""blur"",""9"",""914283""
","""event"",""trial"",""time""
""focus"",""1"",""1185""
""focus"",""8"",""28940""
""focus"",""9"",""318992""
""focus"",""9"",""3231803""
","""event"",""trial"",""time""
""fullscreenenter"",""1"",""2651""
","""event"",""trial"",""time""
""fullscreenexit"",""8"",""20296""
","","","","","","null","<div style=""font-size:60px;"">+</div>","null","","fixation","","","","","","","","","","","","","",""
"learning-trial","62","3684808","0.0-8.0-2.0-1.10","1579","1","2","""event"",""trial"",""time""
""focus"",""1"",""1185""
""fullscreenenter"",""1"",""2651""
""fullscreenexit"",""8"",""20296""
""blur"",""8"",""21368""
""focus"",""8"",""28940""
""blur"",""9"",""276503""
""focus"",""9"",""318992""
""blur"",""9"",""914283""
""focus"",""9"",""3231803""
","""event"",""trial"",""time""
""blur"",""8"",""21368""
""blur"",""9"",""276503""
""blur"",""9"",""914283""
","""event"",""trial"",""time""
""focus"",""1"",""1185""
""focus"",""8"",""28940""
""focus"",""9"",""318992""
""focus"",""9"",""3231803""
","""event"",""trial"",""time""
""fullscreenenter"",""1"",""2651""
","""event"",""trial"",""time""
""fullscreenexit"",""8"",""20296""
","","","","","","1440.8999999761581","images/racket1.png","","","practice","images/park2.png","images/park3.png","images/park1.png","[1,2,0]","2","1","2","images/park3.png","1","practice","","","",""
"html-keyboard-response","63","3685310","0.0-8.0-2.0-0.11","1579","1","2","""event"",""trial"",""time""
""focus"",""1"",""1185""
""fullscreenenter"",""1"",""2651""
""fullscreenexit"",""8"",""20296""
""blur"",""8"",""21368""
""focus"",""8"",""28940""
""blur"",""9"",""276503""
""focus"",""9"",""318992""
""blur"",""9"",""914283""
""focus"",""9"",""3231803""
","""event"",""trial"",""time""
""blur"",""8"",""21368""
""blur"",""9"",""276503""
""blur"",""9"",""914283""
","""event"",""trial"",""time""
""focus"",""1"",""1185""
""focus"",""8"",""28940""
""focus"",""9"",""318992""
""focus"",""9"",""3231803""
","""event"",""trial"",""time""
""fullscreenenter"",""1"",""2651""
","""event"",""trial"",""time""
""fullscreenexit"",""8"",""20296""
","","","","","","null","<div style=""font-size:60px;"">+</div>","null","","fixation","","","","","","","","","","","","","",""
"learning-trial","64","3689315","0.0-8.0-2.0-1.11","1579","1","2","""event"",""trial"",""time""
""focus"",""1"",""1185""
""fullscreenenter"",""1"",""2651""
""fullscreenexit"",""8"",""20296""
""blur"",""8"",""21368""
""focus"",""8"",""28940""
""blur"",""9"",""276503""
""focus"",""9"",""318992""
""blur"",""9"",""914283""
""focus"",""9"",""3231803""
","""event"",""trial"",""time""
""blur"",""8"",""21368""
""blur"",""9"",""276503""
""blur"",""9"",""914283""
","""event"",""trial"",""time""
""focus"",""1"",""1185""
""focus"",""8"",""28940""
""focus"",""9"",""318992""
""focus"",""9"",""3231803""
","""event"",""trial"",""time""
""fullscreenenter"",""1"",""2651""
","""event"",""trial"",""time""
""fullscreenexit"",""8"",""20296""
","","","","","","1469.5999999940395","images/ball4.png","","","practice","images/park1.png","images/park3.png","images/park2.png","[0,2,1]","1","2","3","images/park2.png","1","practice","","","",""
"html-button-response","65","3696677","0.0-8.0-3.0","1579","1","2","""event"",""trial"",""time""
""focus"",""1"",""1185""
""fullscreenenter"",""1"",""2651""
""fullscreenexit"",""8"",""20296""
""blur"",""8"",""21368""
""focus"",""8"",""28940""
""blur"",""9"",""276503""
""focus"",""9"",""318992""
""blur"",""9"",""914283""
""focus"",""9"",""3231803""
","""event"",""trial"",""time""
""blur"",""8"",""21368""
""blur"",""9"",""276503""
""blur"",""9"",""914283""
","""event"",""trial"",""time""
""focus"",""1"",""1185""
""focus"",""8"",""28940""
""focus"",""9"",""318992""
""focus"",""9"",""3231803""
","""event"",""trial"",""time""
""fullscreenenter"",""1"",""2651""
","""event"",""trial"",""time""
""fullscreenexit"",""8"",""20296""
","","","","","","7357.899999976158","<p> You earned -2 points in the practice round! </p>","0","","break","","","","","","","","","","","","","",""
"learning-instructions","66","3707180","0.0-8.0-4.0-0.0","1579","1","2","""event"",""trial"",""time""
""focus"",""1"",""1185""
""fullscreenenter"",""1"",""2651""
""fullscreenexit"",""8"",""20296""
""blur"",""8"",""21368""
""focus"",""8"",""28940""
""blur"",""9"",""276503""
""focus"",""9"",""318992""
""blur"",""9"",""914283""
""focus"",""9"",""3231803""
","""event"",""trial"",""time""
""blur"",""8"",""21368""
""blur"",""9"",""276503""
""blur"",""9"",""914283""
","""event"",""trial"",""time""
""focus"",""1"",""1185""
""focus"",""8"",""28940""
""focus"",""9"",""318992""
""focus"",""9"",""3231803""
","""event"",""trial"",""time""
""fullscreenenter"",""1"",""2651""
","""event"",""trial"",""time""
""fullscreenexit"",""8"",""20296""
","","","","","","1650.0999999940395","<p> It's almost time to start the real game. </p><p> Before you start, we're going to ask you a few questions about how the game works. </p>","","0","instructions","","","","","","","","","","","","","",""
"preload","67","3707525","0.0-8.0-5.0","1579","1","2","""event"",""trial"",""time""
""focus"",""1"",""1185""
""fullscreenenter"",""1"",""2651""
""fullscreenexit"",""8"",""20296""
""blur"",""8"",""21368""
""focus"",""8"",""28940""
""blur"",""9"",""276503""
""focus"",""9"",""318992""
""blur"",""9"",""914283""
""focus"",""9"",""3231803""
","""event"",""trial"",""time""
""blur"",""8"",""21368""
""blur"",""9"",""276503""
""blur"",""9"",""914283""
","""event"",""trial"",""time""
""focus"",""1"",""1185""
""focus"",""8"",""28940""
""focus"",""9"",""318992""
""focus"",""9"",""3231803""
","""event"",""trial"",""time""
""fullscreenenter"",""1"",""2651""
","""event"",""trial"",""time""
""fullscreenexit"",""8"",""20296""
","true","false","[]","[]","[]","","","","","","","","","","","","","","","","","","",""
"comp-q","68","3715712","0.0-8.0-6.0-0.0","1579","1","2","""event"",""trial"",""time""
""focus"",""1"",""1185""
""fullscreenenter"",""1"",""2651""
""fullscreenexit"",""8"",""20296""
""blur"",""8"",""21368""
""focus"",""8"",""28940""
""blur"",""9"",""276503""
""focus"",""9"",""318992""
""blur"",""9"",""914283""
""focus"",""9"",""3231803""
","""event"",""trial"",""time""
""blur"",""8"",""21368""
""blur"",""9"",""276503""
""blur"",""9"",""914283""
","""event"",""trial"",""time""
""focus"",""1"",""1185""
""focus"",""8"",""28940""
""focus"",""9"",""318992""
""focus"",""9"",""3231803""
","""event"",""trial"",""time""
""fullscreenenter"",""1"",""2651""
","""event"",""trial"",""time""
""fullscreenexit"",""8"",""20296""
","","","","","","2741.199999988079","<p> <b> True or False? </b> </p><p> If you choose the best option, you will always earn 1 point. </p>","","1","comp_question","","","","","","","","","","","true","","",""
"comp-q","69","3728156","0.0-8.0-6.0-1.0","1579","1","2","""event"",""trial"",""time""
""focus"",""1"",""1185""
""fullscreenenter"",""1"",""2651""
""fullscreenexit"",""8"",""20296""
""blur"",""8"",""21368""
""focus"",""8"",""28940""
""blur"",""9"",""276503""
""focus"",""9"",""318992""
""blur"",""9"",""914283""
""focus"",""9"",""3231803""
","""event"",""trial"",""time""
""blur"",""8"",""21368""
""blur"",""9"",""276503""
""blur"",""9"",""914283""
","""event"",""trial"",""time""
""focus"",""1"",""1185""
""focus"",""8"",""28940""
""focus"",""9"",""318992""
""focus"",""9"",""3231803""
","""event"",""trial"",""time""
""fullscreenenter"",""1"",""2651""
","""event"",""trial"",""time""
""fullscreenexit"",""8"",""20296""
","","","","","","6775.4000000059605","<p><b> That's right! </b> Sometimes you will lose 1 point, even if you choose the best option. </p>","","0","comp_answer","","","","","","","","","","","","","",""
"comp-q","70","3733746","0.0-8.0-6.0-0.1","1579","1","2","""event"",""trial"",""time""
""focus"",""1"",""1185""
""fullscreenenter"",""1"",""2651""
""fullscreenexit"",""8"",""20296""
""blur"",""8"",""21368""
""focus"",""8"",""28940""
""blur"",""9"",""276503""
""focus"",""9"",""318992""
""blur"",""9"",""914283""
""focus"",""9"",""3231803""
","""event"",""trial"",""time""
""blur"",""8"",""21368""
""blur"",""9"",""276503""
""blur"",""9"",""914283""
","""event"",""trial"",""time""
""focus"",""1"",""1185""
""focus"",""8"",""28940""
""focus"",""9"",""318992""
""focus"",""9"",""3231803""
","""event"",""trial"",""time""
""fullscreenenter"",""1"",""2651""
","""event"",""trial"",""time""
""fullscreenexit"",""8"",""20296""
","","","","","","955.7000000178814","<p> <b> True or False? </b> </p><p> You will have as much time as you want to make each choice. </p>","","1","comp_question","","","","","","","","","","","true","","",""
"comp-q","71","3742833","0.0-8.0-6.0-1.1","1579","1","2","""event"",""trial"",""time""
""focus"",""1"",""1185""
""fullscreenenter"",""1"",""2651""
""fullscreenexit"",""8"",""20296""
""blur"",""8"",""21368""
""focus"",""8"",""28940""
""blur"",""9"",""276503""
""focus"",""9"",""318992""
""blur"",""9"",""914283""
""focus"",""9"",""3231803""
","""event"",""trial"",""time""
""blur"",""8"",""21368""
""blur"",""9"",""276503""
""blur"",""9"",""914283""
","""event"",""trial"",""time""
""focus"",""1"",""1185""
""focus"",""8"",""28940""
""focus"",""9"",""318992""
""focus"",""9"",""3231803""
","""event"",""trial"",""time""
""fullscreenenter"",""1"",""2651""
","""event"",""trial"",""time""
""fullscreenexit"",""8"",""20296""
","","","","","","4262.800000011921","<p> <b> That's right! </b> You will only have 4 seconds to make each choice. </p>","","0","comp_answer","","","","","","","","","","","","","",""
"comp-q","72","3750503","0.0-8.0-6.0-0.2","1579","1","2","""event"",""trial"",""time""
""focus"",""1"",""1185""
""fullscreenenter"",""1"",""2651""
""fullscreenexit"",""8"",""20296""
""blur"",""8"",""21368""
""focus"",""8"",""28940""
""blur"",""9"",""276503""
""focus"",""9"",""318992""
""blur"",""9"",""914283""
""focus"",""9"",""3231803""
","""event"",""trial"",""time""
""blur"",""8"",""21368""
""blur"",""9"",""276503""
""blur"",""9"",""914283""
","""event"",""trial"",""time""
""focus"",""1"",""1185""
""focus"",""8"",""28940""
""focus"",""9"",""318992""
""focus"",""9"",""3231803""
","""event"",""trial"",""time""
""fullscreenenter"",""1"",""2651""
","""event"",""trial"",""time""
""fullscreenexit"",""8"",""20296""
","","","","","","1502.5","<p> <b> True or False? </b> </p><p> You should use the '1', '2', and '3' keys to make your choices. </p>","","0","comp_question","","","","","","","","","","","true","","",""
"comp-q","73","3759329","0.0-8.0-6.0-1.2","1579","1","2","""event"",""trial"",""time""
""focus"",""1"",""1185""
""fullscreenenter"",""1"",""2651""
""fullscreenexit"",""8"",""20296""
""blur"",""8"",""21368""
""focus"",""8"",""28940""
""blur"",""9"",""276503""
""focus"",""9"",""318992""
""blur"",""9"",""914283""
""focus"",""9"",""3231803""
","""event"",""trial"",""time""
""blur"",""8"",""21368""
""blur"",""9"",""276503""
""blur"",""9"",""914283""
","""event"",""trial"",""time""
""focus"",""1"",""1185""
""focus"",""8"",""28940""
""focus"",""9"",""318992""
""focus"",""9"",""3231803""
","""event"",""trial"",""time""
""fullscreenenter"",""1"",""2651""
","""event"",""trial"",""time""
""fullscreenexit"",""8"",""20296""
","","","","","","3988.699999988079","<p> <b> That's right! </b> You should use the '1', '2', and '3' keys to make each choice. </p>","","0","comp_answer","","","","","","","","","","","","","",""
"learning-instructions","74","3820536","0.0-8.0-7.0-0.0","1579","1","2","""event"",""trial"",""time""
""focus"",""1"",""1185""
""fullscreenenter"",""1"",""2651""
""fullscreenexit"",""8"",""20296""
""blur"",""8"",""21368""
""focus"",""8"",""28940""
""blur"",""9"",""276503""
""focus"",""9"",""318992""
""blur"",""9"",""914283""
""focus"",""9"",""3231803""
","""event"",""trial"",""time""
""blur"",""8"",""21368""
""blur"",""9"",""276503""
""blur"",""9"",""914283""
","""event"",""trial"",""time""
""focus"",""1"",""1185""
""focus"",""8"",""28940""
""focus"",""9"",""318992""
""focus"",""9"",""3231803""
","""event"",""trial"",""time""
""fullscreenenter"",""1"",""2651""
","""event"",""trial"",""time""
""fullscreenexit"",""8"",""20296""
","","","","","","52715","<p> It's now time to start the real game. </p>Do your best, because the points you earn in the next rounds will influence your bonus payment. </p>","","0","instructions","","","","","","","","","","","","","",""
"preload","75","3821014","0.0-9.0-0.0","1579","1","2","""event"",""trial"",""time""
""focus"",""1"",""1185""
""fullscreenenter"",""1"",""2651""
""fullscreenexit"",""8"",""20296""
""blur"",""8"",""21368""
""focus"",""8"",""28940""
""blur"",""9"",""276503""
""focus"",""9"",""318992""
""blur"",""9"",""914283""
""focus"",""9"",""3231803""
","""event"",""trial"",""time""
""blur"",""8"",""21368""
""blur"",""9"",""276503""
""blur"",""9"",""914283""
","""event"",""trial"",""time""
""focus"",""1"",""1185""
""focus"",""8"",""28940""
""focus"",""9"",""318992""
""focus"",""9"",""3231803""
","""event"",""trial"",""time""
""fullscreenenter"",""1"",""2651""
","""event"",""trial"",""time""
""fullscreenexit"",""8"",""20296""
","true","false","[]","[]","[]","","","","","","","","","","","","","","","","","","",""
"learning-instructions","76","3830776","0.0-9.0-1.0-0.0","1579","1","2","""event"",""trial"",""time""
""focus"",""1"",""1185""
""fullscreenenter"",""1"",""2651""
""fullscreenexit"",""8"",""20296""
""blur"",""8"",""21368""
""focus"",""8"",""28940""
""blur"",""9"",""276503""
""focus"",""9"",""318992""
""blur"",""9"",""914283""
""focus"",""9"",""3231803""
","""event"",""trial"",""time""
""blur"",""8"",""21368""
""blur"",""9"",""276503""
""blur"",""9"",""914283""
","""event"",""trial"",""time""
""focus"",""1"",""1185""
""focus"",""8"",""28940""
""focus"",""9"",""318992""
""focus"",""9"",""3231803""
","""event"",""trial"",""time""
""fullscreenenter"",""1"",""2651""
","""event"",""trial"",""time""
""fullscreenexit"",""8"",""20296""
","","","","","","851.8000000119209","<p> Your goal in this round is to deliver furniture to three different buildings. </p><p> You will need to deliver many pieces of furniture. </p></div>","","0","instructions","","","","","","","","","","","","","",""
"learning-instructions","77","3839385","0.0-9.0-1.0-0.1","1579","1","2","""event"",""trial"",""time""
""focus"",""1"",""1185""
""fullscreenenter"",""1"",""2651""
""fullscreenexit"",""8"",""20296""
""blur"",""8"",""21368""
""focus"",""8"",""28940""
""blur"",""9"",""276503""
""focus"",""9"",""318992""
""blur"",""9"",""914283""
""focus"",""9"",""3231803""
","""event"",""trial"",""time""
""blur"",""8"",""21368""
""blur"",""9"",""276503""
""blur"",""9"",""914283""
","""event"",""trial"",""time""
""focus"",""1"",""1185""
""focus"",""8"",""28940""
""focus"",""9"",""318992""
""focus"",""9"",""3231803""
","""event"",""trial"",""time""
""fullscreenenter"",""1"",""2651""
","""event"",""trial"",""time""
""fullscreenexit"",""8"",""20296""
","","","","","","1181.0999999940395","<p> On each turn, you will see a picture of a furniture item and three different buildings.  </p><p> You need to select the building that you want to deliver the furniture to.  </p>","","0","instructions","","","","","","","","","","","","","",""
"learning-instructions","78","3850423","0.0-9.0-1.0-0.2","1579","1","2","""event"",""trial"",""time""
""focus"",""1"",""1185""
""fullscreenenter"",""1"",""2651""
""fullscreenexit"",""8"",""20296""
""blur"",""8"",""21368""
""focus"",""8"",""28940""
""blur"",""9"",""276503""
""focus"",""9"",""318992""
""blur"",""9"",""914283""
""focus"",""9"",""3231803""
","""event"",""trial"",""time""
""blur"",""8"",""21368""
""blur"",""9"",""276503""
""blur"",""9"",""914283""
","""event"",""trial"",""time""
""focus"",""1"",""1185""
""focus"",""8"",""28940""
""focus"",""9"",""318992""
""focus"",""9"",""3231803""
","""event"",""trial"",""time""
""fullscreenenter"",""1"",""2651""
","""event"",""trial"",""time""
""fullscreenexit"",""8"",""20296""
","","","","","","2748.2000000178814","<p> You can select the building on the left by pressing 1, the building in the middle by pressing 2, and the building on the right by pressing 3.  </p><br><div class=""choice-instructions-grid""> <div class=""choice-option""><img src=""images/furniture_choice1.png"" class=""choice-option-img"" stage=""instructions"" position=""0"" ><div class=""choice-option-text""> Press ""1."" </div></div><div class=""choice-option""><img src=""images/furniture_choice2.png"" class=""choice-option-img"" stage=""instructions"" position=""1"" ><div class=""choice-option-text""> Press ""2."" </div></div><div class=""choice-option""><img src=""images/furniture_choice3.png"" class=""choice-option-img"" stage=""instructions"" position=""2"" ><div class=""choice-option-text""> Press ""3."" </div></div></div>","","0","instructions","","","","","","","","","","","","","",""
"learning-instructions","79","3858379","0.0-9.0-1.0-0.3","1579","1","2","""event"",""trial"",""time""
""focus"",""1"",""1185""
""fullscreenenter"",""1"",""2651""
""fullscreenexit"",""8"",""20296""
""blur"",""8"",""21368""
""focus"",""8"",""28940""
""blur"",""9"",""276503""
""focus"",""9"",""318992""
""blur"",""9"",""914283""
""focus"",""9"",""3231803""
","""event"",""trial"",""time""
""blur"",""8"",""21368""
""blur"",""9"",""276503""
""blur"",""9"",""914283""
","""event"",""trial"",""time""
""focus"",""1"",""1185""
""focus"",""8"",""28940""
""focus"",""9"",""318992""
""focus"",""9"",""3231803""
","""event"",""trial"",""time""
""fullscreenenter"",""1"",""2651""
","""event"",""trial"",""time""
""fullscreenexit"",""8"",""20296""
","","","","","","1934.699999988079","<p> If the furniture belongs in the building you chose, the building owner will likely be very happy! </p><div style='float: center;'><img src='images/check.png' width = '200' height = '200'></img>","","0","instructions","","","","","","","","","","","","","",""
"learning-instructions","80","3868311","0.0-9.0-1.0-0.4","1579","1","2","""event"",""trial"",""time""
""focus"",""1"",""1185""
""fullscreenenter"",""1"",""2651""
""fullscreenexit"",""8"",""20296""
""blur"",""8"",""21368""
""focus"",""8"",""28940""
""blur"",""9"",""276503""
""focus"",""9"",""318992""
""blur"",""9"",""914283""
""focus"",""9"",""3231803""
","""event"",""trial"",""time""
""blur"",""8"",""21368""
""blur"",""9"",""276503""
""blur"",""9"",""914283""
","""event"",""trial"",""time""
""focus"",""1"",""1185""
""focus"",""8"",""28940""
""focus"",""9"",""318992""
""focus"",""9"",""3231803""
","""event"",""trial"",""time""
""fullscreenenter"",""1"",""2651""
","""event"",""trial"",""time""
""fullscreenexit"",""8"",""20296""
","","","","","","3935.9000000059605","<p> But, if the furniture does not belong in the building you chose, the owner will likely be mad. </p><div style='float: center;'><img src='images/x.png' width = '200' height = '200'></img>","","0","instructions","","","","","","","","","","","","","",""
"learning-instructions","81","3881511","0.0-9.0-1.0-0.5","1579","1","2","""event"",""trial"",""time""
""focus"",""1"",""1185""
""fullscreenenter"",""1"",""2651""
""fullscreenexit"",""8"",""20296""
""blur"",""8"",""21368""
""focus"",""8"",""28940""
""blur"",""9"",""276503""
""focus"",""9"",""318992""
""blur"",""9"",""914283""
""focus"",""9"",""3231803""
","""event"",""trial"",""time""
""blur"",""8"",""21368""
""blur"",""9"",""276503""
""blur"",""9"",""914283""
","""event"",""trial"",""time""
""focus"",""1"",""1185""
""focus"",""8"",""28940""
""focus"",""9"",""318992""
""focus"",""9"",""3231803""
","""event"",""trial"",""time""
""fullscreenenter"",""1"",""2651""
","""event"",""trial"",""time""
""fullscreenexit"",""8"",""20296""
","","","","","","1986.4000000059605","<p> Importantly, each piece of furniture belongs in one of the three buildings. </p><p> If you choose the correct building for the piece of furniture, you will be more likely to make the building owner happy! </p>","","0","instructions","","","","","","","","","","","","","",""
"learning-instructions","82","3896084","0.0-9.0-1.0-0.6","1579","1","2","""event"",""trial"",""time""
""focus"",""1"",""1185""
""fullscreenenter"",""1"",""2651""
""fullscreenexit"",""8"",""20296""
""blur"",""8"",""21368""
""focus"",""8"",""28940""
""blur"",""9"",""276503""
""focus"",""9"",""318992""
""blur"",""9"",""914283""
""focus"",""9"",""3231803""
","""event"",""trial"",""time""
""blur"",""8"",""21368""
""blur"",""9"",""276503""
""blur"",""9"",""914283""
","""event"",""trial"",""time""
""focus"",""1"",""1185""
""focus"",""8"",""28940""
""focus"",""9"",""318992""
""focus"",""9"",""3231803""
","""event"",""trial"",""time""
""fullscreenenter"",""1"",""2651""
","""event"",""trial"",""time""
""fullscreenexit"",""8"",""20296""
","","","","","","3059.9000000059605","<p> However, even if you choose the best building for the furniture, the owner may still be mad sometimes. </p><p> Similarly, even if you choose the <i>wrong</i> building, the owner may still be happy.","","0","instructions","","","","","","","","","","","","","",""
"learning-instructions","83","3911530","0.0-9.0-1.0-0.7","1579","1","2","""event"",""trial"",""time""
""focus"",""1"",""1185""
""fullscreenenter"",""1"",""2651""
""fullscreenexit"",""8"",""20296""
""blur"",""8"",""21368""
""focus"",""8"",""28940""
""blur"",""9"",""276503""
""focus"",""9"",""318992""
""blur"",""9"",""914283""
""focus"",""9"",""3231803""
","""event"",""trial"",""time""
""blur"",""8"",""21368""
""blur"",""9"",""276503""
""blur"",""9"",""914283""
","""event"",""trial"",""time""
""focus"",""1"",""1185""
""focus"",""8"",""28940""
""focus"",""9"",""318992""
""focus"",""9"",""3231803""
","""event"",""trial"",""time""
""fullscreenenter"",""1"",""2651""
","""event"",""trial"",""time""
""fullscreenexit"",""8"",""20296""
","","","","","","2204.899999976158","<p> Try to choose the best building for each piece of furniture, because you will <b> WIN </b> 1 point each time a building owner is happy and <b>LOSE</b>  1 point each time a building owner is mad. </p><p> Your bonus payment will depend on your total number of points.","","0","instructions","","","","","","","","","","","","","",""
"learning-instructions","84","3921308","0.0-9.0-1.0-0.8","1579","1","2","""event"",""trial"",""time""
""focus"",""1"",""1185""
""fullscreenenter"",""1"",""2651""
""fullscreenexit"",""8"",""20296""
""blur"",""8"",""21368""
""focus"",""8"",""28940""
""blur"",""9"",""276503""
""focus"",""9"",""318992""
""blur"",""9"",""914283""
""focus"",""9"",""3231803""
","""event"",""trial"",""time""
""blur"",""8"",""21368""
""blur"",""9"",""276503""
""blur"",""9"",""914283""
","""event"",""trial"",""time""
""focus"",""1"",""1185""
""focus"",""8"",""28940""
""focus"",""9"",""318992""
""focus"",""9"",""3231803""
","""event"",""trial"",""time""
""fullscreenenter"",""1"",""2651""
","""event"",""trial"",""time""
""fullscreenexit"",""8"",""20296""
","","","","","","804.0999999940395","<p> The position of each building will change throughout the round. </p><p> The building's position <i> does not </i> influence how likely the owner is to be happy or mad. </p>","","0","instructions","","","","","","","","","","","","","",""
"learning-instructions","85","3931158","0.0-9.0-1.0-0.9","1579","1","2","""event"",""trial"",""time""
""focus"",""1"",""1185""
""fullscreenenter"",""1"",""2651""
""fullscreenexit"",""8"",""20296""
""blur"",""8"",""21368""
""focus"",""8"",""28940""
""blur"",""9"",""276503""
""focus"",""9"",""318992""
""blur"",""9"",""914283""
""focus"",""9"",""3231803""
","""event"",""trial"",""time""
""blur"",""8"",""21368""
""blur"",""9"",""276503""
""blur"",""9"",""914283""
","""event"",""trial"",""time""
""focus"",""1"",""1185""
""focus"",""8"",""28940""
""focus"",""9"",""318992""
""focus"",""9"",""3231803""
","""event"",""trial"",""time""
""fullscreenenter"",""1"",""2651""
","""event"",""trial"",""time""
""fullscreenexit"",""8"",""20296""
","","","","","","544.0999999940395","<p> You will have 4 seconds to make each choice. Try to respond before time runs out! </p><p> You will lose 1 point each time you do not make a response. </p>","","0","instructions","","","","","","","","","","","","","",""
"html-keyboard-response","86","3931782","0.0-9.0-2.0-0.0","1579","1","2","""event"",""trial"",""time""
""focus"",""1"",""1185""
""fullscreenenter"",""1"",""2651""
""fullscreenexit"",""8"",""20296""
""blur"",""8"",""21368""
""focus"",""8"",""28940""
""blur"",""9"",""276503""
""focus"",""9"",""318992""
""blur"",""9"",""914283""
""focus"",""9"",""3231803""
","""event"",""trial"",""time""
""blur"",""8"",""21368""
""blur"",""9"",""276503""
""blur"",""9"",""914283""
","""event"",""trial"",""time""
""focus"",""1"",""1185""
""focus"",""8"",""28940""
""focus"",""9"",""318992""
""focus"",""9"",""3231803""
","""event"",""trial"",""time""
""fullscreenenter"",""1"",""2651""
","""event"",""trial"",""time""
""fullscreenexit"",""8"",""20296""
","","","","","","null","<div style=""font-size:60px;"">+</div>","null","","fixation","","","","","","","","","","","","","",""
"learning-trial","87","3935793","0.0-9.0-2.0-1.0","1579","1","2","""event"",""trial"",""time""
""focus"",""1"",""1185""
""fullscreenenter"",""1"",""2651""
""fullscreenexit"",""8"",""20296""
""blur"",""8"",""21368""
""focus"",""8"",""28940""
""blur"",""9"",""276503""
""focus"",""9"",""318992""
""blur"",""9"",""914283""
""focus"",""9"",""3231803""
","""event"",""trial"",""time""
""blur"",""8"",""21368""
""blur"",""9"",""276503""
""blur"",""9"",""914283""
","""event"",""trial"",""time""
""focus"",""1"",""1185""
""focus"",""8"",""28940""
""focus"",""9"",""318992""
""focus"",""9"",""3231803""
","""event"",""trial"",""time""
""fullscreenenter"",""1"",""2651""
","""event"",""trial"",""time""
""fullscreenexit"",""8"",""20296""
","","","","","","1955.7000000178814","images/sofa1.png","","","learning","images/furniture_choice1.png","images/furniture_choice3.png","images/furniture_choice2.png","[0,2,1]","0","0","2","images/furniture_choice3.png","-1","furniture","","sofa","1","0"
"html-keyboard-response","88","3936311","0.0-9.0-2.0-0.1","1579","1","2","""event"",""trial"",""time""
""focus"",""1"",""1185""
""fullscreenenter"",""1"",""2651""
""fullscreenexit"",""8"",""20296""
""blur"",""8"",""21368""
""focus"",""8"",""28940""
""blur"",""9"",""276503""
""focus"",""9"",""318992""
""blur"",""9"",""914283""
""focus"",""9"",""3231803""
","""event"",""trial"",""time""
""blur"",""8"",""21368""
""blur"",""9"",""276503""
""blur"",""9"",""914283""
","""event"",""trial"",""time""
""focus"",""1"",""1185""
""focus"",""8"",""28940""
""focus"",""9"",""318992""
""focus"",""9"",""3231803""
","""event"",""trial"",""time""
""fullscreenenter"",""1"",""2651""
","""event"",""trial"",""time""
""fullscreenexit"",""8"",""20296""
","","","","","","null","<div style=""font-size:60px;"">+</div>","null","","fixation","","","","","","","","","","","","","",""
"learning-trial","89","3940332","0.0-9.0-2.0-1.1","1579","1","2","""event"",""trial"",""time""
""focus"",""1"",""1185""
""fullscreenenter"",""1"",""2651""
""fullscreenexit"",""8"",""20296""
""blur"",""8"",""21368""
""focus"",""8"",""28940""
""blur"",""9"",""276503""
""focus"",""9"",""318992""
""blur"",""9"",""914283""
""focus"",""9"",""3231803""
","""event"",""trial"",""time""
""blur"",""8"",""21368""
""blur"",""9"",""276503""
""blur"",""9"",""914283""
","""event"",""trial"",""time""
""focus"",""1"",""1185""
""focus"",""8"",""28940""
""focus"",""9"",""318992""
""focus"",""9"",""3231803""
","""event"",""trial"",""time""
""fullscreenenter"",""1"",""2651""
","""event"",""trial"",""time""
""fullscreenexit"",""8"",""20296""
","","","","","","1687.800000011921","images/bed3.png","","","learning","images/furniture_choice2.png","images/furniture_choice1.png","images/furniture_choice3.png","[1,0,2]","1","0","1","images/furniture_choice2.png","1","furniture","","bed","1","0"
"html-keyboard-response","90","3940842","0.0-9.0-2.0-0.2","1579","1","2","""event"",""trial"",""time""
""focus"",""1"",""1185""
""fullscreenenter"",""1"",""2651""
""fullscreenexit"",""8"",""20296""
""blur"",""8"",""21368""
""focus"",""8"",""28940""
""blur"",""9"",""276503""
""focus"",""9"",""318992""
""blur"",""9"",""914283""
""focus"",""9"",""3231803""
","""event"",""trial"",""time""
""blur"",""8"",""21368""
""blur"",""9"",""276503""
""blur"",""9"",""914283""
","""event"",""trial"",""time""
""focus"",""1"",""1185""
""focus"",""8"",""28940""
""focus"",""9"",""318992""
""focus"",""9"",""3231803""
","""event"",""trial"",""time""
""fullscreenenter"",""1"",""2651""
","""event"",""trial"",""time""
""fullscreenexit"",""8"",""20296""
","","","","","","null","<div style=""font-size:60px;"">+</div>","null","","fixation","","","","","","","","","","","","","",""
"learning-trial","91","3944862","0.0-9.0-2.0-1.2","1579","1","2","""event"",""trial"",""time""
""focus"",""1"",""1185""
""fullscreenenter"",""1"",""2651""
""fullscreenexit"",""8"",""20296""
""blur"",""8"",""21368""
""focus"",""8"",""28940""
""blur"",""9"",""276503""
""focus"",""9"",""318992""
""blur"",""9"",""914283""
""focus"",""9"",""3231803""
","""event"",""trial"",""time""
""blur"",""8"",""21368""
""blur"",""9"",""276503""
""blur"",""9"",""914283""
","""event"",""trial"",""time""
""focus"",""1"",""1185""
""focus"",""8"",""28940""
""focus"",""9"",""318992""
""focus"",""9"",""3231803""
","""event"",""trial"",""time""
""fullscreenenter"",""1"",""2651""
","""event"",""trial"",""time""
""fullscreenexit"",""8"",""20296""
","","","","","","2046.7999999821186","images/table4.png","","","learning","images/furniture_choice2.png","images/furniture_choice1.png","images/furniture_choice3.png","[1,0,2]","2","2","2","images/furniture_choice1.png","-1","furniture","","table","1","0"
"html-keyboard-response","92","3945372","0.0-9.0-2.0-0.3","1579","1","2","""event"",""trial"",""time""
""focus"",""1"",""1185""
""fullscreenenter"",""1"",""2651""
""fullscreenexit"",""8"",""20296""
""blur"",""8"",""21368""
""focus"",""8"",""28940""
""blur"",""9"",""276503""
""focus"",""9"",""318992""
""blur"",""9"",""914283""
""focus"",""9"",""3231803""
","""event"",""trial"",""time""
""blur"",""8"",""21368""
""blur"",""9"",""276503""
""blur"",""9"",""914283""
","""event"",""trial"",""time""
""focus"",""1"",""1185""
""focus"",""8"",""28940""
""focus"",""9"",""318992""
""focus"",""9"",""3231803""
","""event"",""trial"",""time""
""fullscreenenter"",""1"",""2651""
","""event"",""trial"",""time""
""fullscreenexit"",""8"",""20296""
","","","","","","null","<div style=""font-size:60px;"">+</div>","null","","fixation","","","","","","","","","","","","","",""
"learning-trial","93","3949383","0.0-9.0-2.0-1.3","1579","1","2","""event"",""trial"",""time""
""focus"",""1"",""1185""
""fullscreenenter"",""1"",""2651""
""fullscreenexit"",""8"",""20296""
""blur"",""8"",""21368""
""focus"",""8"",""28940""
""blur"",""9"",""276503""
""focus"",""9"",""318992""
""blur"",""9"",""914283""
""focus"",""9"",""3231803""
","""event"",""trial"",""time""
""blur"",""8"",""21368""
""blur"",""9"",""276503""
""blur"",""9"",""914283""
","""event"",""trial"",""time""
""focus"",""1"",""1185""
""focus"",""8"",""28940""
""focus"",""9"",""318992""
""focus"",""9"",""3231803""
","""event"",""trial"",""time""
""fullscreenenter"",""1"",""2651""
","""event"",""trial"",""time""
""fullscreenexit"",""8"",""20296""
","","","","","","2028.7999999821186","images/table1.png","","","learning","images/furniture_choice1.png","images/furniture_choice2.png","images/furniture_choice3.png","[0,1,2]","2","2","1","images/furniture_choice1.png","-1","furniture","","table","1","0"
"html-keyboard-response","94","3949892","0.0-9.0-2.0-0.4","1579","1","2","""event"",""trial"",""time""
""focus"",""1"",""1185""
""fullscreenenter"",""1"",""2651""
""fullscreenexit"",""8"",""20296""
""blur"",""8"",""21368""
""focus"",""8"",""28940""
""blur"",""9"",""276503""
""focus"",""9"",""318992""
""blur"",""9"",""914283""
""focus"",""9"",""3231803""
","""event"",""trial"",""time""
""blur"",""8"",""21368""
""blur"",""9"",""276503""
""blur"",""9"",""914283""
","""event"",""trial"",""time""
""focus"",""1"",""1185""
""focus"",""8"",""28940""
""focus"",""9"",""318992""
""focus"",""9"",""3231803""
","""event"",""trial"",""time""
""fullscreenenter"",""1"",""2651""
","""event"",""trial"",""time""
""fullscreenexit"",""8"",""20296""
","","","","","","null","<div style=""font-size:60px;"">+</div>","null","","fixation","","","","","","","","","","","","","",""
"learning-trial","95","3953902","0.0-9.0-2.0-1.4","1579","1","2","""event"",""trial"",""time""
""focus"",""1"",""1185""
""fullscreenenter"",""1"",""2651""
""fullscreenexit"",""8"",""20296""
""blur"",""8"",""21368""
""focus"",""8"",""28940""
""blur"",""9"",""276503""
""focus"",""9"",""318992""
""blur"",""9"",""914283""
""focus"",""9"",""3231803""
","""event"",""trial"",""time""
""blur"",""8"",""21368""
""blur"",""9"",""276503""
""blur"",""9"",""914283""
","""event"",""trial"",""time""
""focus"",""1"",""1185""
""focus"",""8"",""28940""
""focus"",""9"",""318992""
""focus"",""9"",""3231803""
","""event"",""trial"",""time""
""fullscreenenter"",""1"",""2651""
","""event"",""trial"",""time""
""fullscreenexit"",""8"",""20296""
","","","","","","3408.300000011921","images/sofa5.png","","","learning","images/furniture_choice2.png","images/furniture_choice3.png","images/furniture_choice1.png","[1,2,0]","0","2","2","images/furniture_choice3.png","1","furniture","","sofa","1","0"
"html-keyboard-response","96","3954421","0.0-9.0-2.0-0.5","1579","1","2","""event"",""trial"",""time""
""focus"",""1"",""1185""
""fullscreenenter"",""1"",""2651""
""fullscreenexit"",""8"",""20296""
""blur"",""8"",""21368""
""focus"",""8"",""28940""
""blur"",""9"",""276503""
""focus"",""9"",""318992""
""blur"",""9"",""914283""
""focus"",""9"",""3231803""
","""event"",""trial"",""time""
""blur"",""8"",""21368""
""blur"",""9"",""276503""
""blur"",""9"",""914283""
","""event"",""trial"",""time""
""focus"",""1"",""1185""
""focus"",""8"",""28940""
""focus"",""9"",""318992""
""focus"",""9"",""3231803""
","""event"",""trial"",""time""
""fullscreenenter"",""1"",""2651""
","""event"",""trial"",""time""
""fullscreenexit"",""8"",""20296""
","","","","","","null","<div style=""font-size:60px;"">+</div>","null","","fixation","","","","","","","","","","","","","",""
"learning-trial","97","3958442","0.0-9.0-2.0-1.5","1579","1","2","""event"",""trial"",""time""
""focus"",""1"",""1185""
""fullscreenenter"",""1"",""2651""
""fullscreenexit"",""8"",""20296""
""blur"",""8"",""21368""
""focus"",""8"",""28940""
""blur"",""9"",""276503""
""focus"",""9"",""318992""
""blur"",""9"",""914283""
""focus"",""9"",""3231803""
","""event"",""trial"",""time""
""blur"",""8"",""21368""
""blur"",""9"",""276503""
""blur"",""9"",""914283""
","""event"",""trial"",""time""
""focus"",""1"",""1185""
""focus"",""8"",""28940""
""focus"",""9"",""318992""
""focus"",""9"",""3231803""
","""event"",""trial"",""time""
""fullscreenenter"",""1"",""2651""
","""event"",""trial"",""time""
""fullscreenexit"",""8"",""20296""
","","","","","","1705.2999999821186","images/bed4.png","","","learning","images/furniture_choice3.png","images/furniture_choice2.png","images/furniture_choice1.png","[2,1,0]","1","1","2","images/furniture_choice2.png","1","furniture","","bed","1","0"
"html-keyboard-response","98","3958951","0.0-9.0-2.0-0.6","1579","1","2","""event"",""trial"",""time""
""focus"",""1"",""1185""
""fullscreenenter"",""1"",""2651""
""fullscreenexit"",""8"",""20296""
""blur"",""8"",""21368""
""focus"",""8"",""28940""
""blur"",""9"",""276503""
""focus"",""9"",""318992""
""blur"",""9"",""914283""
""focus"",""9"",""3231803""
","""event"",""trial"",""time""
""blur"",""8"",""21368""
""blur"",""9"",""276503""
""blur"",""9"",""914283""
","""event"",""trial"",""time""
""focus"",""1"",""1185""
""focus"",""8"",""28940""
""focus"",""9"",""318992""
""focus"",""9"",""3231803""
","""event"",""trial"",""time""
""fullscreenenter"",""1"",""2651""
","""event"",""trial"",""time""
""fullscreenexit"",""8"",""20296""
","","","","","","null","<div style=""font-size:60px;"">+</div>","null","","fixation","","","","","","","","","","","","","",""
"learning-trial","99","3962957","0.0-9.0-2.0-1.6","1579","1","2","""event"",""trial"",""time""
""focus"",""1"",""1185""
""fullscreenenter"",""1"",""2651""
""fullscreenexit"",""8"",""20296""
""blur"",""8"",""21368""
""focus"",""8"",""28940""
""blur"",""9"",""276503""
""focus"",""9"",""318992""
""blur"",""9"",""914283""
""focus"",""9"",""3231803""
","""event"",""trial"",""time""
""blur"",""8"",""21368""
""blur"",""9"",""276503""
""blur"",""9"",""914283""
","""event"",""trial"",""time""
""focus"",""1"",""1185""
""focus"",""8"",""28940""
""focus"",""9"",""318992""
""focus"",""9"",""3231803""
","""event"",""trial"",""time""
""fullscreenenter"",""1"",""2651""
","""event"",""trial"",""time""
""fullscreenexit"",""8"",""20296""
","","","","","","1233.8999999761581","images/sofa1.png","","","learning","images/furniture_choice2.png","images/furniture_choice1.png","images/furniture_choice3.png","[1,0,2]","0","1","3","images/furniture_choice3.png","1","furniture","","sofa","1","0"
"html-keyboard-response","100","3963459","0.0-9.0-2.0-0.7","1579","1","2","""event"",""trial"",""time""
""focus"",""1"",""1185""
""fullscreenenter"",""1"",""2651""
""fullscreenexit"",""8"",""20296""
""blur"",""8"",""21368""
""focus"",""8"",""28940""
""blur"",""9"",""276503""
""focus"",""9"",""318992""
""blur"",""9"",""914283""
""focus"",""9"",""3231803""
","""event"",""trial"",""time""
""blur"",""8"",""21368""
""blur"",""9"",""276503""
""blur"",""9"",""914283""
","""event"",""trial"",""time""
""focus"",""1"",""1185""
""focus"",""8"",""28940""
""focus"",""9"",""318992""
""focus"",""9"",""3231803""
","""event"",""trial"",""time""
""fullscreenenter"",""1"",""2651""
","""event"",""trial"",""time""
""fullscreenexit"",""8"",""20296""
","","","","","","null","<div style=""font-size:60px;"">+</div>","null","","fixation","","","","","","","","","","","","","",""
"learning-trial","101","3967464","0.0-9.0-2.0-1.7","1579","1","2","""event"",""trial"",""time""
""focus"",""1"",""1185""
""fullscreenenter"",""1"",""2651""
""fullscreenexit"",""8"",""20296""
""blur"",""8"",""21368""
""focus"",""8"",""28940""
""blur"",""9"",""276503""
""focus"",""9"",""318992""
""blur"",""9"",""914283""
""focus"",""9"",""3231803""
","""event"",""trial"",""time""
""blur"",""8"",""21368""
""blur"",""9"",""276503""
""blur"",""9"",""914283""
","""event"",""trial"",""time""
""focus"",""1"",""1185""
""focus"",""8"",""28940""
""focus"",""9"",""318992""
""focus"",""9"",""3231803""
","""event"",""trial"",""time""
""fullscreenenter"",""1"",""2651""
","""event"",""trial"",""time""
""fullscreenexit"",""8"",""20296""
","","","","","","2116.300000011921","images/table3.png","","","learning","images/furniture_choice1.png","images/furniture_choice2.png","images/furniture_choice3.png","[0,1,2]","2","2","1","images/furniture_choice1.png","-1","furniture","","table","1","0"
"html-keyboard-response","102","3967966","0.0-9.0-2.0-0.8","1579","1","2","""event"",""trial"",""time""
""focus"",""1"",""1185""
""fullscreenenter"",""1"",""2651""
""fullscreenexit"",""8"",""20296""
""blur"",""8"",""21368""
""focus"",""8"",""28940""
""blur"",""9"",""276503""
""focus"",""9"",""318992""
""blur"",""9"",""914283""
""focus"",""9"",""3231803""
","""event"",""trial"",""time""
""blur"",""8"",""21368""
""blur"",""9"",""276503""
""blur"",""9"",""914283""
","""event"",""trial"",""time""
""focus"",""1"",""1185""
""focus"",""8"",""28940""
""focus"",""9"",""318992""
""focus"",""9"",""3231803""
","""event"",""trial"",""time""
""fullscreenenter"",""1"",""2651""
","""event"",""trial"",""time""
""fullscreenexit"",""8"",""20296""
","","","","","","null","<div style=""font-size:60px;"">+</div>","null","","fixation","","","","","","","","","","","","","",""
"learning-trial","103","3971972","0.0-9.0-2.0-1.8","1579","1","2","""event"",""trial"",""time""
""focus"",""1"",""1185""
""fullscreenenter"",""1"",""2651""
""fullscreenexit"",""8"",""20296""
""blur"",""8"",""21368""
""focus"",""8"",""28940""
""blur"",""9"",""276503""
""focus"",""9"",""318992""
""blur"",""9"",""914283""
""focus"",""9"",""3231803""
","""event"",""trial"",""time""
""blur"",""8"",""21368""
""blur"",""9"",""276503""
""blur"",""9"",""914283""
","""event"",""trial"",""time""
""focus"",""1"",""1185""
""focus"",""8"",""28940""
""focus"",""9"",""318992""
""focus"",""9"",""3231803""
","""event"",""trial"",""time""
""fullscreenenter"",""1"",""2651""
","""event"",""trial"",""time""
""fullscreenexit"",""8"",""20296""
","","","","","","1672.0999999940395","images/bed2.png","","","learning","images/furniture_choice2.png","images/furniture_choice3.png","images/furniture_choice1.png","[1,2,0]","1","0","1","images/furniture_choice2.png","1","furniture","","bed","1","0"
"html-keyboard-response","104","3972490","0.0-9.0-2.0-0.9","1579","1","2","""event"",""trial"",""time""
""focus"",""1"",""1185""
""fullscreenenter"",""1"",""2651""
""fullscreenexit"",""8"",""20296""
""blur"",""8"",""21368""
""focus"",""8"",""28940""
""blur"",""9"",""276503""
""focus"",""9"",""318992""
""blur"",""9"",""914283""
""focus"",""9"",""3231803""
","""event"",""trial"",""time""
""blur"",""8"",""21368""
""blur"",""9"",""276503""
""blur"",""9"",""914283""
","""event"",""trial"",""time""
""focus"",""1"",""1185""
""focus"",""8"",""28940""
""focus"",""9"",""318992""
""focus"",""9"",""3231803""
","""event"",""trial"",""time""
""fullscreenenter"",""1"",""2651""
","""event"",""trial"",""time""
""fullscreenexit"",""8"",""20296""
","","","","","","null","<div style=""font-size:60px;"">+</div>","null","","fixation","","","","","","","","","","","","","",""
"learning-trial","105","3976495","0.0-9.0-2.0-1.9","1579","1","2","""event"",""trial"",""time""
""focus"",""1"",""1185""
""fullscreenenter"",""1"",""2651""
""fullscreenexit"",""8"",""20296""
""blur"",""8"",""21368""
""focus"",""8"",""28940""
""blur"",""9"",""276503""
""focus"",""9"",""318992""
""blur"",""9"",""914283""
""focus"",""9"",""3231803""
","""event"",""trial"",""time""
""blur"",""8"",""21368""
""blur"",""9"",""276503""
""blur"",""9"",""914283""
","""event"",""trial"",""time""
""focus"",""1"",""1185""
""focus"",""8"",""28940""
""focus"",""9"",""318992""
""focus"",""9"",""3231803""
","""event"",""trial"",""time""
""fullscreenenter"",""1"",""2651""
","""event"",""trial"",""time""
""fullscreenexit"",""8"",""20296""
