"trial_type","trial_index","time_elapsed","internal_node_id","subject_id","condition","task_version","interactions","blur_events","focus_events","fullscreenenter_events","fullscreenexit_events","success","timeout","failed_images","failed_audio","failed_video","rt","stimulus","response","button_pressed","task_part","left_choice","middle_choice","right_choice","choice_positions","correct_response","correct_position","key_press","option_selected","points","task_block","correct","stim_cat","block_condition","block_number"
"pavlovia","0","25","0.0-0.0","1722","2","2","""event"",""trial"",""time""
""fullscreenenter"",""1"",""5948""
","
","
","""event"",""trial"",""time""
""fullscreenenter"",""1"",""5948""
","
","","","","","","","","","","","","","","","","","","","","","","","",""
"fullscreen","1","6872","0.0-1.0","1722","2","2","""event"",""trial"",""time""
""fullscreenenter"",""1"",""5948""
","
","
","""event"",""trial"",""time""
""fullscreenenter"",""1"",""5948""
","
","true","","","","","","","","","","","","","","","","","","","","","","",""
"preload","2","14818","0.0-2.0","1722","2","2","""event"",""trial"",""time""
""fullscreenenter"",""1"",""5948""
","
","
","""event"",""trial"",""time""
""fullscreenenter"",""1"",""5948""
","
","true","false","[]","[]","[]","","","","","","","","","","","","","","","","","","",""
"audio-keyboard-response","3","18397","0.0-3.0","1722","2","2","""event"",""trial"",""time""
""fullscreenenter"",""1"",""5948""
","
","
","""event"",""trial"",""time""
""fullscreenenter"",""1"",""5948""
","
","","","","","","3581.333333333334","audio/beep_loop.wav"," ","","","","","","","","","","","","","","","",""
"audio-button-response","4","28222","0.0-4.0","1722","2","2","""event"",""trial"",""time""
""fullscreenenter"",""1"",""5948""
","
","
","""event"",""trial"",""time""
""fullscreenenter"",""1"",""5948""
","
","","","","","","9819","audio/shark.wav","4","","","","","","","","","","","","","","","",""
"audio-button-response","5","33236","0.0-5.0","1722","2","2","""event"",""trial"",""time""
""fullscreenenter"",""1"",""5948""
","
","
","""event"",""trial"",""time""
""fullscreenenter"",""1"",""5948""
","
","","","","","","4011","audio/turtle.wav","1","","","","","","","","","","","","","","","",""
"preload","6","38285","0.0-6.0","1722","2","2","""event"",""trial"",""time""
""fullscreenenter"",""1"",""5948""
","
","
","""event"",""trial"",""time""
""fullscreenenter"",""1"",""5948""
","
","true","false","[]","[]","[]","","","","","","","","","","","","","","","","","","",""
"html-keyboard-response","7","51154","0.0-7.0","1722","2","2","""event"",""trial"",""time""
""fullscreenenter"",""1"",""5948""
","
","
","""event"",""trial"",""time""
""fullscreenenter"",""1"",""5948""
","
","","","","","","12864.899999976158","Welcome to the experiment. Press any key to begin and to advance the instructions.","c","","","","","","","","","","","","","","","",""
"learning-instructions","8","65664","0.0-8.0-0.0-0.0","1722","2","2","""event"",""trial"",""time""
""fullscreenenter"",""1"",""5948""
","
","
","""event"",""trial"",""time""
""fullscreenenter"",""1"",""5948""
","
","","","","","","6754.199999928474","<p> Welcome! Today you are going to play 6 different rounds of a decision-making game. </p><p> Use the mouse to click next to continue. </p>","","0","instructions","","","","","","","","","","","","","",""
"learning-instructions","9","71044","0.0-8.0-0.0-0.1","1722","2","2","""event"",""trial"",""time""
""fullscreenenter"",""1"",""5948""
","
","
","""event"",""trial"",""time""
""fullscreenenter"",""1"",""5948""
","
","","","","","","2376.4000000953674","<p> You will start with a practice round to learn the rules. </p>","","0","instructions","","","","","","","","","","","","","",""
"learning-instructions","10","80591","0.0-8.0-0.0-0.2","1722","2","2","""event"",""trial"",""time""
""fullscreenenter"",""1"",""5948""
","
","
","""event"",""trial"",""time""
""fullscreenenter"",""1"",""5948""
","
","","","","","","1793.2999999523163","<p> Your goal in this round is to deliver sports equipment to three different parks. </p><p> You will need to deliver many types of equipment. </p></div>","","0","instructions","","","","","","","","","","","","","",""
"learning-instructions","11","91986","0.0-8.0-0.0-0.3","1722","2","2","""event"",""trial"",""time""
""fullscreenenter"",""1"",""5948""
","
","
","""event"",""trial"",""time""
""fullscreenenter"",""1"",""5948""
","
","","","","","","2908.1999999284744","<p> On each turn, you will see one piece of sports equipment and three different parks.  </p><p> You need to select which park to deliver the equipment to.  </p>","","0","instructions","","","","","","","","","","","","","",""
"learning-instructions","12","107786","0.0-8.0-0.0-0.4","1722","2","2","""event"",""trial"",""time""
""fullscreenenter"",""1"",""5948""
","
","
","""event"",""trial"",""time""
""fullscreenenter"",""1"",""5948""
","
","","","","","","2513.5","<p> You can select the park on the left by pressing the '1' key on your keyboard. <br>You can select the park in the middle by pressing the '2' key on your keyboard. <br>You can select the park on the right by pressing the '3' key on your keyboard.  </p><br><div class=""choice-instructions-grid""> <div class=""choice-option""><img src=""images/park1.png"" class=""choice-option-img"" stage=""instructions"" position=""0"" ><div class=""choice-option-text""> Press ""1."" </div></div><div class=""choice-option""><img src=""images/park2.png"" class=""choice-option-img"" stage=""instructions"" position=""1"" ><div class=""choice-option-text""> Press ""2."" </div></div><div class=""choice-option""><img src=""images/park3.png"" class=""choice-option-img"" stage=""instructions"" position=""2"" ><div class=""choice-option-text""> Press ""3."" </div></div></div>","","0","instructions","","","","","","","","","","","","","",""
"learning-instructions","13","121777","0.0-8.0-0.0-0.5","1722","2","2","""event"",""trial"",""time""
""fullscreenenter"",""1"",""5948""
","
","
","""event"",""trial"",""time""
""fullscreenenter"",""1"",""5948""
","
","","","","","","8606.399999976158","<p> If the kids in the park you chose like the equipment, they will be very happy! </p><div style='float: center;'><img src='images/check.png' width = '200' height = '200'></img>","","0","instructions","","","","","","","","","","","","","",""
"learning-instructions","14","133586","0.0-8.0-0.0-0.6","1722","2","2","""event"",""trial"",""time""
""fullscreenenter"",""1"",""5948""
","
","
","""event"",""trial"",""time""
""fullscreenenter"",""1"",""5948""
","
","","","","","","6215.899999976158","<p> But, if the kids in the park you chose do not like the equipment, they will be sad. </p><div style='float: center;'><img src='images/x.png' width = '200' height = '200'></img>","","0","instructions","","","","","","","","","","","","","",""
"learning-instructions","15","141944","0.0-8.0-0.0-0.7","1722","2","2","""event"",""trial"",""time""
""fullscreenenter"",""1"",""5948""
","
","
","""event"",""trial"",""time""
""fullscreenenter"",""1"",""5948""
","
","","","","","","1926.5999999046326","<p> Importantly, the kids in each park like some pieces of sports equipment more than others. </p>","","0","instructions","","","","","","","","","","","","","",""
"learning-instructions","16","149067","0.0-8.0-0.0-0.8","1722","2","2","""event"",""trial"",""time""
""fullscreenenter"",""1"",""5948""
","
","
","""event"",""trial"",""time""
""fullscreenenter"",""1"",""5948""
","
","","","","","","1069.1999999284744","<p> If you choose the best park for each piece of equipment, the kids there will usually be happy. </p>","","0","instructions","","","","","","","","","","","","","",""
"learning-instructions","17","157255","0.0-8.0-0.0-0.9","1722","2","2","""event"",""trial"",""time""
""fullscreenenter"",""1"",""5948""
","
","
","""event"",""trial"",""time""
""fullscreenenter"",""1"",""5948""
","
","","","","","","1547.2000000476837","<p> However, even if you choose the best park for the equipment, the kids may sometimes be sad. </p>","","0","instructions","","","","","","","","","","","","","",""
"learning-instructions","18","168684","0.0-8.0-0.0-0.10","1722","2","2","""event"",""trial"",""time""
""fullscreenenter"",""1"",""5948""
","
","
","""event"",""trial"",""time""
""fullscreenenter"",""1"",""5948""
","
","","","","","","4197.299999952316","<p> Similarly, even if you choose the <i>wrong</i> park for the equipment, the kids may still be happy sometimes.","","0","instructions","","","","","","","","","","","","","",""
"learning-instructions","19","176948","0.0-8.0-0.0-0.11","1722","2","2","""event"",""trial"",""time""
""fullscreenenter"",""1"",""5948""
","
","
","""event"",""trial"",""time""
""fullscreenenter"",""1"",""5948""
","
","","","","","","3209.600000023842","<p> For example, the best park for this soccer ball is this one.<div style='float: center;'><img src='images/i1.png' width = '500' height = '268'></img>","","0","instructions","","","","","","","","","","","","","",""
"learning-instructions","20","183616","0.0-8.0-0.0-0.12","1722","2","2","""event"",""trial"",""time""
""fullscreenenter"",""1"",""5948""
","
","
","""event"",""trial"",""time""
""fullscreenenter"",""1"",""5948""
","
","","","","","","1366.1000000238419","<p> Let's see what happens if you choose this park for the soccer ball five times.","","0","instructions","","","","","","","","","","","","","",""
"learning-instructions","21","187034","0.0-8.0-0.0-0.13","1722","2","2","""event"",""trial"",""time""
""fullscreenenter"",""1"",""5948""
","
","
","""event"",""trial"",""time""
""fullscreenenter"",""1"",""5948""
","
","","","","","","1255.9000000953674","<p> The kids are happy.<div style='float: left;'><img src='images/i2.png' width = '640' height = '360'></img>","","0","instructions","","","","","","","","","","","","","",""
"learning-instructions","22","190097","0.0-8.0-0.0-0.14","1722","2","2","""event"",""trial"",""time""
""fullscreenenter"",""1"",""5948""
","
","
","""event"",""trial"",""time""
""fullscreenenter"",""1"",""5948""
","
","","","","","","888.2000000476837","<p> The kids are happy.<div style='float: left;'><img src='images/i3.png' width = '640' height = '360'></img>","","0","instructions","","","","","","","","","","","","","",""
"learning-instructions","23","193281","0.0-8.0-0.0-0.15","1722","2","2","""event"",""trial"",""time""
""fullscreenenter"",""1"",""5948""
","
","
","""event"",""trial"",""time""
""fullscreenenter"",""1"",""5948""
","
","","","","","","1023.1999999284744","<p> The kids are happy.<div style='float: left;'><img src='images/i4.png' width = '640' height = '360'></img>","","0","instructions","","","","","","","","","","","","","",""
"learning-instructions","24","197899","0.0-8.0-0.0-0.16","1722","2","2","""event"",""trial"",""time""
""fullscreenenter"",""1"",""5948""
","
","
","""event"",""trial"",""time""
""fullscreenenter"",""1"",""5948""
","
","","","","","","2410.100000023842","<p> The kids are sad.<div style='float: left;'><img src='images/i5.png' width = '640' height = '360'></img>","","0","instructions","","","","","","","","","","","","","",""
"learning-instructions","25","203181","0.0-8.0-0.0-0.17","1722","2","2","""event"",""trial"",""time""
""fullscreenenter"",""1"",""5948""
","
","
","""event"",""trial"",""time""
""fullscreenenter"",""1"",""5948""
","
","","","","","","3101.0999999046326","<p> The kids are happy.<div style='float: left;'><img src='images/i6.png' width = '640' height = '360'></img>","","0","instructions","","","","","","","","","","","","","",""
"learning-instructions","26","212202","0.0-8.0-0.0-0.18","1722","2","2","""event"",""trial"",""time""
""fullscreenenter"",""1"",""5948""
","
","
","""event"",""trial"",""time""
""fullscreenenter"",""1"",""5948""
","
","","","","","","1754.3999999761581","<p> As you can see, selecting that park for the soccer ball made the kids happy most of the time, but not all the time.","","0","instructions","","","","","","","","","","","","","",""
"learning-instructions","27","221250","0.0-8.0-0.0-0.19","1722","2","2","""event"",""trial"",""time""
""fullscreenenter"",""1"",""5948""
","
","
","""event"",""trial"",""time""
""fullscreenenter"",""1"",""5948""
","
","","","","","","3043.399999976158","<p> Now let's see what happens if you choose a DIFFERENT park for the soccer ball 5 times.","","0","instructions","","","","","","","","","","","","","",""
"learning-instructions","28","224257","0.0-8.0-0.0-0.20","1722","2","2","""event"",""trial"",""time""
""fullscreenenter"",""1"",""5948""
","
","
","""event"",""trial"",""time""
""fullscreenenter"",""1"",""5948""
","
","","","","","","798.7000000476837","<p> The kids are sad.<div style='float: left;'><img src='images/i7.png' width = '640' height = '360'></img>","","0","instructions","","","","","","","","","","","","","",""
"learning-instructions","29","227083","0.0-8.0-0.0-0.21","1722","2","2","""event"",""trial"",""time""
""fullscreenenter"",""1"",""5948""
","
","
","""event"",""trial"",""time""
""fullscreenenter"",""1"",""5948""
","
","","","","","","626","<p> The kids are sad.<div style='float: left;'><img src='images/i8.png' width = '640' height = '360'></img>","","0","instructions","","","","","","","","","","","","","",""
"learning-instructions","30","229580","0.0-8.0-0.0-0.22","1722","2","2","""event"",""trial"",""time""
""fullscreenenter"",""1"",""5948""
","
","
","""event"",""trial"",""time""
""fullscreenenter"",""1"",""5948""
","
","","","","","","332.09999990463257","<p> The kids are happy.<div style='float: left;'><img src='images/i9.png' width = '640' height = '360'></img>","","0","instructions","","","","","","","","","","","","","",""
"learning-instructions","31","234604","0.0-8.0-0.0-0.23","1722","2","2","""event"",""trial"",""time""
""fullscreenenter"",""1"",""5948""
","
","
","""event"",""trial"",""time""
""fullscreenenter"",""1"",""5948""
","
","","","","","","2807.2000000476837","<p> The kids are sad.<div style='float: left;'><img src='images/i10.png' width = '640' height = '360'></img>","","0","instructions","","","","","","","","","","","","","",""
"learning-instructions","32","238120","0.0-8.0-0.0-0.24","1722","2","2","""event"",""trial"",""time""
""fullscreenenter"",""1"",""5948""
","
","
","""event"",""trial"",""time""
""fullscreenenter"",""1"",""5948""
","
","","","","","","1301.8000000715256","<p> The kids are sad.<div style='float: left;'><img src='images/i11.png' width = '640' height = '360'></img>","","0","instructions","","","","","","","","","","","","","",""
"learning-instructions","33","247513","0.0-8.0-0.0-0.25","1722","2","2","""event"",""trial"",""time""
""fullscreenenter"",""1"",""5948""
","
","
","""event"",""trial"",""time""
""fullscreenenter"",""1"",""5948""
","
","","","","","","1264.8000000715256","<p> As you can see, selecting the wrong park for the soccer ball made the kids sad most of the time, but not all the time.","","0","instructions","","","","","","","","","","","","","",""
"learning-instructions","34","257292","0.0-8.0-0.0-0.26","1722","2","2","""event"",""trial"",""time""
""fullscreenenter"",""1"",""5948""
","
","
","""event"",""trial"",""time""
""fullscreenenter"",""1"",""5948""
","
","","","","","","664.3999999761581","<p> The different pieces of equipment belong in different parks. You need to try to learn which is the best park for each piece of equipment.","","0","instructions","","","","","","","","","","","","","",""
"learning-instructions","35","275075","0.0-8.0-0.0-0.27","1722","2","2","""event"",""trial"",""time""
""fullscreenenter"",""1"",""5948""
","
","
","""event"",""trial"",""time""
""fullscreenenter"",""1"",""5948""
","
","","","","","","1397.8000000715256","<p> Try to choose the best park for each piece of equipment, because you will <b> WIN </b> 1 point for each time you make the kids happy and <b>LOSE</b> 1 point for each time you make them sad. </p><p> Remember, if you make the best choice, you will win 1 point most of the time, but not all the time. </p>","","0","instructions","","","","","","","","","","","","","",""
"learning-instructions","36","282437","0.0-8.0-0.0-0.28","1722","2","2","""event"",""trial"",""time""
""fullscreenenter"",""1"",""5948""
","
","
","""event"",""trial"",""time""
""fullscreenenter"",""1"",""5948""
","
","","","","","","1881.8999999761581","<p> This is just a practice round, but in the real game, your bonus payment will depend on your total number of points.","","0","instructions","","","","","","","","","","","","","",""
"learning-instructions","37","294500","0.0-8.0-0.0-0.29","1722","2","2","""event"",""trial"",""time""
""fullscreenenter"",""1"",""5948""
","
","
","""event"",""trial"",""time""
""fullscreenenter"",""1"",""5948""
","
","","","","","","1743.8999999761581","<p> The position where each park appears will change throughout the game. </p><p> The position where the park appears <i> does not </i> influence how likely the kids are to be happy or sad. </p>","","0","instructions","","","","","","","","","","","","","",""
"learning-instructions","38","306535","0.0-8.0-0.0-0.30","1722","2","2","""event"",""trial"",""time""
""fullscreenenter"",""1"",""5948""
","
","
","""event"",""trial"",""time""
""fullscreenenter"",""1"",""5948""
","
","","","","","","737.2000000476837","<p> You will have 4 seconds to make each choice. Try to respond before time runs out! </p><p> You will lose 1 point each time you do not make a response. </p>","","0","instructions","","","","","","","","","","","","","",""
"learning-instructions","39","314971","0.0-8.0-0.0-0.31","1722","2","2","""event"",""trial"",""time""
""fullscreenenter"",""1"",""5948""
","
","
","""event"",""trial"",""time""
""fullscreenenter"",""1"",""5948""
","
","","","","","","1641.8000000715256","<p> Remember, you should use the 1, 2, and 3 keys to select the park for each piece of equipment. </p><br><div class=""choice-instructions-grid""> <div class=""choice-option""><img src=""images/park1.png"" class=""choice-option-img"" stage=""instructions"" position=""0"" ><div class=""choice-option-text""> Press ""1."" </div></div><div class=""choice-option""><img src=""images/park2.png"" class=""choice-option-img"" stage=""instructions"" position=""1"" ><div class=""choice-option-text""> Press ""2."" </div></div><div class=""choice-option""><img src=""images/park3.png"" class=""choice-option-img"" stage=""instructions"" position=""2"" ><div class=""choice-option-text""> Press ""3."" </div></div></div>","","0","instructions","","","","","","","","","","","","","",""
"html-button-response","40","323055","0.0-8.0-1.0","1722","2","2","""event"",""trial"",""time""
""fullscreenenter"",""1"",""5948""
","
","
","""event"",""trial"",""time""
""fullscreenenter"",""1"",""5948""
","
","","","","","","7977.399999976158","<p> Ready to practice? </p>","0","","","","","","","","","","","","","","","",""
"html-keyboard-response","41","323660","0.0-8.0-2.0-0.0","1722","2","2","""event"",""trial"",""time""
""fullscreenenter"",""1"",""5948""
","
","
","""event"",""trial"",""time""
""fullscreenenter"",""1"",""5948""
","
","","","","","","null","<div style=""font-size:60px;"">+</div>","null","","fixation","","","","","","","","","","","","","",""
"learning-trial","42","327672","0.0-8.0-2.0-1.0","1722","2","2","""event"",""trial"",""time""
""fullscreenenter"",""1"",""5948""
","
","
","""event"",""trial"",""time""
""fullscreenenter"",""1"",""5948""
","
","","","","","","null","images/racket3.png","","","practice","images/park1.png","images/park3.png","images/park2.png","[0,2,1]","0","0","null","null","-1","practice","","","",""
"html-keyboard-response","43","328175","0.0-8.0-2.0-0.1","1722","2","2","""event"",""trial"",""time""
""fullscreenenter"",""1"",""5948""
","
","
","""event"",""trial"",""time""
""fullscreenenter"",""1"",""5948""
","
","","","","","","null","<div style=""font-size:60px;"">+</div>","null","","fixation","","","","","","","","","","","","","",""
"learning-trial","44","332184","0.0-8.0-2.0-1.1","1722","2","2","""event"",""trial"",""time""
""fullscreenenter"",""1"",""5948""
","
","
","""event"",""trial"",""time""
""fullscreenenter"",""1"",""5948""
","
","","","","","","3100.899999976158","images/racket3.png","","","practice","images/park2.png","images/park1.png","images/park3.png","[1,0,2]","0","1","3","images/park3.png","-1","practice","","","",""
"html-keyboard-response","45","332687","0.0-8.0-2.0-0.2","1722","2","2","""event"",""trial"",""time""
""fullscreenenter"",""1"",""5948""
","
","
","""event"",""trial"",""time""
""fullscreenenter"",""1"",""5948""
","
","","","","","","null","<div style=""font-size:60px;"">+</div>","null","","fixation","","","","","","","","","","","","","",""
"learning-trial","46","336692","0.0-8.0-2.0-1.2","1722","2","2","""event"",""trial"",""time""
""fullscreenenter"",""1"",""5948""
","
","
","""event"",""trial"",""time""
""fullscreenenter"",""1"",""5948""
","
","","","","","","3919.399999976158","images/ball3.png","","","practice","images/park3.png","images/park2.png","images/park1.png","[2,1,0]","0","2","1","images/park3.png","-1","practice","","","",""
"html-keyboard-response","47","337196","0.0-8.0-2.0-0.3","1722","2","2","""event"",""trial"",""time""
""fullscreenenter"",""1"",""5948""
","
","
","""event"",""trial"",""time""
""fullscreenenter"",""1"",""5948""
","
","","","","","","null","<div style=""font-size:60px;"">+</div>","null","","fixation","","","","","","","","","","","","","",""
"learning-trial","48","341202","0.0-8.0-2.0-1.3","1722","2","2","""event"",""trial"",""time""
""fullscreenenter"",""1"",""5948""
","
","
","""event"",""trial"",""time""
""fullscreenenter"",""1"",""5948""
","
","","","","","","1268.1999999284744","images/ball1.png","","","practice","images/park2.png","images/park1.png","images/park3.png","[1,0,2]","2","2","2","images/park1.png","-1","practice","","","",""
"html-keyboard-response","49","341705","0.0-8.0-2.0-0.4","1722","2","2","""event"",""trial"",""time""
""fullscreenenter"",""1"",""5948""
","
","
","""event"",""trial"",""time""
""fullscreenenter"",""1"",""5948""
","
","","","","","","null","<div style=""font-size:60px;"">+</div>","null","","fixation","","","","","","","","","","","","","",""
"learning-trial","50","345714","0.0-8.0-2.0-1.4","1722","2","2","""event"",""trial"",""time""
""fullscreenenter"",""1"",""5948""
","
","
","""event"",""trial"",""time""
""fullscreenenter"",""1"",""5948""
","
","","","","","","2441","images/ball4.png","","","practice","images/park3.png","images/park1.png","images/park2.png","[2,0,1]","1","2","2","images/park1.png","-1","practice","","","",""
"html-keyboard-response","51","346217","0.0-8.0-2.0-0.5","1722","2","2","""event"",""trial"",""time""
""fullscreenenter"",""1"",""5948""
","
","
","""event"",""trial"",""time""
""fullscreenenter"",""1"",""5948""
","
","","","","","","null","<div style=""font-size:60px;"">+</div>","null","","fixation","","","","","","","","","","","","","",""
"learning-trial","52","350225","0.0-8.0-2.0-1.5","1722","2","2","""event"",""trial"",""time""
""fullscreenenter"",""1"",""5948""
","
","
","""event"",""trial"",""time""
""fullscreenenter"",""1"",""5948""
","
","","","","","","null","images/ball1.png","","","practice","images/park2.png","images/park1.png","images/park3.png","[1,0,2]","2","2","null","null","-1","practice","","","",""
"html-keyboard-response","53","350727","0.0-8.0-2.0-0.6","1722","2","2","""event"",""trial"",""time""
""fullscreenenter"",""1"",""5948""
","
","
","""event"",""trial"",""time""
""fullscreenenter"",""1"",""5948""
","
","","","","","","null","<div style=""font-size:60px;"">+</div>","null","","fixation","","","","","","","","","","","","","",""
"learning-trial","54","354735","0.0-8.0-2.0-1.6","1722","2","2","""event"",""trial"",""time""
""fullscreenenter"",""1"",""5948""
","
","
","""event"",""trial"",""time""
""fullscreenenter"",""1"",""5948""
","
","","","","","","1329","images/ball3.png","","","practice","images/park2.png","images/park1.png","images/park3.png","[1,0,2]","0","1","3","images/park3.png","-1","practice","","","",""
"html-keyboard-response","55","355237","0.0-8.0-2.0-0.7","1722","2","2","""event"",""trial"",""time""
""fullscreenenter"",""1"",""5948""
","
","
","""event"",""trial"",""time""
""fullscreenenter"",""1"",""5948""
","
","","","","","","null","<div style=""font-size:60px;"">+</div>","null","","fixation","","","","","","","","","","","","","",""
"learning-trial","56","359246","0.0-8.0-2.0-1.7","1722","2","2","""event"",""trial"",""time""
""fullscreenenter"",""1"",""5948""
","
","
","""event"",""trial"",""time""
""fullscreenenter"",""1"",""5948""
","
","","","","","","2348","images/ball2.png","","","practice","images/park3.png","images/park2.png","images/park1.png","[2,1,0]","1","1","3","images/park1.png","-1","practice","","","",""
"html-keyboard-response","57","359748","0.0-8.0-2.0-0.8","1722","2","2","""event"",""trial"",""time""
""fullscreenenter"",""1"",""5948""
","
","
","""event"",""trial"",""time""
""fullscreenenter"",""1"",""5948""
","
","","","","","","null","<div style=""font-size:60px;"">+</div>","null","","fixation","","","","","","","","","","","","","",""
"learning-trial","58","363756","0.0-8.0-2.0-1.8","1722","2","2","""event"",""trial"",""time""
""fullscreenenter"",""1"",""5948""
","
","
","""event"",""trial"",""time""
""fullscreenenter"",""1"",""5948""
","
","","","","","","2331.600000023842","images/ball2.png","","","practice","images/park1.png","images/park3.png","images/park2.png","[0,2,1]","1","2","1","images/park1.png","-1","practice","","","",""
"html-keyboard-response","59","364259","0.0-8.0-2.0-0.9","1722","2","2","""event"",""trial"",""time""
""fullscreenenter"",""1"",""5948""
","
","
","""event"",""trial"",""time""
""fullscreenenter"",""1"",""5948""
","
","","","","","","null","<div style=""font-size:60px;"">+</div>","null","","fixation","","","","","","","","","","","","","",""
"learning-trial","60","368270","0.0-8.0-2.0-1.9","1722","2","2","""event"",""trial"",""time""
""fullscreenenter"",""1"",""5948""
","
","
","""event"",""trial"",""time""
""fullscreenenter"",""1"",""5948""
","
","","","","","","3104.100000023842","images/racket2.png","","","practice","images/park3.png","images/park1.png","images/park2.png","[2,0,1]","2","0","2","images/park1.png","-1","practice","","","",""
"html-keyboard-response","61","368772","0.0-8.0-2.0-0.10","1722","2","2","""event"",""trial"",""time""
""fullscreenenter"",""1"",""5948""
","
","
","""event"",""trial"",""time""
""fullscreenenter"",""1"",""5948""
","
","","","","","","null","<div style=""font-size:60px;"">+</div>","null","","fixation","","","","","","","","","","","","","",""
"learning-trial","62","372780","0.0-8.0-2.0-1.10","1722","2","2","""event"",""trial"",""time""
""fullscreenenter"",""1"",""5948""
","
","
","""event"",""trial"",""time""
""fullscreenenter"",""1"",""5948""
","
","","","","","","null","images/ball4.png","","","practice","images/park1.png","images/park2.png","images/park3.png","[0,1,2]","1","1","null","null","-1","practice","","","",""
"html-keyboard-response","63","373283","0.0-8.0-2.0-0.11","1722","2","2","""event"",""trial"",""time""
""fullscreenenter"",""1"",""5948""
","
","
","""event"",""trial"",""time""
""fullscreenenter"",""1"",""5948""
","
","","","","","","null","<div style=""font-size:60px;"">+</div>","null","","fixation","","","","","","","","","","","","","",""
"learning-trial","64","377290","0.0-8.0-2.0-1.11","1722","2","2","""event"",""trial"",""time""
""fullscreenenter"",""1"",""5948""
","
","
","""event"",""trial"",""time""
""fullscreenenter"",""1"",""5948""
","
","","","","","","2966.6999999284744","images/racket2.png","","","practice","images/park1.png","images/park3.png","images/park2.png","[0,2,1]","2","1","1","images/park1.png","-1","practice","","","",""
"html-button-response","65","381831","0.0-8.0-3.0","1722","2","2","""event"",""trial"",""time""
""fullscreenenter"",""1"",""5948""
","
","
","""event"",""trial"",""time""
""fullscreenenter"",""1"",""5948""
","
","","","","","","4533","<p> You earned -12 points in the practice round! </p>","0","","break","","","","","","","","","","","","","",""
"learning-instructions","66","393826","0.0-8.0-4.0-0.0","1722","2","2","""event"",""trial"",""time""
""fullscreenenter"",""1"",""5948""
","
","
","""event"",""trial"",""time""
""fullscreenenter"",""1"",""5948""
","
","","","","","","4082.7999999523163","<p> It's almost time to start the real game. </p><p> Before you start, we're going to ask you a few questions about how the game works. </p>","","0","instructions","","","","","","","","","","","","","",""
"preload","67","396000","0.0-8.0-5.0","1722","2","2","""event"",""trial"",""time""
""fullscreenenter"",""1"",""5948""
","
","
","""event"",""trial"",""time""
""fullscreenenter"",""1"",""5948""
","
","true","false","[]","[]","[]","","","","","","","","","","","","","","","","","","",""
"comp-q","68","408971","0.0-8.0-6.0-0.0","1722","2","2","""event"",""trial"",""time""
""fullscreenenter"",""1"",""5948""
","
","
","""event"",""trial"",""time""
""fullscreenenter"",""1"",""5948""
","
","","","","","","7516.5","<p> <b> True or False? </b> </p><p> If you choose the best option, you will always earn 1 point. </p>","","1","comp_question","","","","","","","","","","","true","","",""
"comp-q","69","418704","0.0-8.0-6.0-1.0","1722","2","2","""event"",""trial"",""time""
""fullscreenenter"",""1"",""5948""
","
","
","""event"",""trial"",""time""
""fullscreenenter"",""1"",""5948""
","
","","","","","","4070.8000000715256","<p><b> That's right! </b> Sometimes you will lose 1 point, even if you choose the best option. </p>","","0","comp_answer","","","","","","","","","","","","","",""
"comp-q","70","428284","0.0-8.0-6.0-0.1","1722","2","2","""event"",""trial"",""time""
""fullscreenenter"",""1"",""5948""
","
","
","""event"",""trial"",""time""
""fullscreenenter"",""1"",""5948""
","
","","","","","","4939.399999976158","<p> <b> True or False? </b> </p><p> You will have as much time as you want to make each choice. </p>","","1","comp_question","","","","","","","","","","","true","","",""
"comp-q","71","436219","0.0-8.0-6.0-1.1","1722","2","2","""event"",""trial"",""time""
""fullscreenenter"",""1"",""5948""
","
","
","""event"",""trial"",""time""
""fullscreenenter"",""1"",""5948""
","
","","","","","","3126.399999976158","<p> <b> That's right! </b> You will only have 4 seconds to make each choice. </p>","","0","comp_answer","","","","","","","","","","","","","",""
"comp-q","72","445415","0.0-8.0-6.0-0.2","1722","2","2","""event"",""trial"",""time""
""fullscreenenter"",""1"",""5948""
","
","
","""event"",""trial"",""time""
""fullscreenenter"",""1"",""5948""
","
","","","","","","3041.7000000476837","<p> <b> True or False? </b> </p><p> You should use the '1', '2', and '3' keys to make your choices. </p>","","0","comp_question","","","","","","","","","","","true","","",""
"comp-q","73","453349","0.0-8.0-6.0-1.2","1722","2","2","""event"",""trial"",""time""
""fullscreenenter"",""1"",""5948""
","
","
","""event"",""trial"",""time""
""fullscreenenter"",""1"",""5948""
","
","","","","","","3087.399999976158","<p> <b> That's right! </b> You should use the '1', '2', and '3' keys to make each choice. </p>","","0","comp_answer","","","","","","","","","","","","","",""
"learning-instructions","74","468175","0.0-8.0-7.0-0.0","1722","2","2","""event"",""trial"",""time""
""fullscreenenter"",""1"",""5948""
","
","
","""event"",""trial"",""time""
""fullscreenenter"",""1"",""5948""
","
","","","","","","6332.299999952316","<p> It's now time to start the real game. </p>Do your best, because the points you earn in the next rounds will influence your bonus payment. </p>","","0","instructions","","","","","","","","","","","","","",""
"preload","75","470392","0.0-9.0-0.0","1722","2","2","""event"",""trial"",""time""
""fullscreenenter"",""1"",""5948""
","
","
","""event"",""trial"",""time""
""fullscreenenter"",""1"",""5948""
","
","true","false","[]","[]","[]","","","","","","","","","","","","","","","","","","",""
"learning-instructions","76","483471","0.0-9.0-1.0-0.0","1722","2","2","""event"",""trial"",""time""
""fullscreenenter"",""1"",""5948""
","
","
","""event"",""trial"",""time""
""fullscreenenter"",""1"",""5948""
","
","","","","","","4735.899999976158","<p> Your goal in this round is to travel the world by putting fuel into different vehicles. </p><p> To travel, you will need to put fuel into many different vehicles. </p></div>","","0","instructions","","","","","","","","","","","","","",""
"learning-instructions","77","494589","0.0-9.0-1.0-0.1","1722","2","2","""event"",""trial"",""time""
""fullscreenenter"",""1"",""5948""
","
","
","""event"",""trial"",""time""
""fullscreenenter"",""1"",""5948""
","
","","","","","","2334.899999976158","<p> On each turn, you will see a picture of one of your vehicles and three different types of fuel.  </p><p> You need to select which kind of fuel to use.  </p>","","0","instructions","","","","","","","","","","","","","",""
"learning-instructions","78","505784","0.0-9.0-1.0-0.2","1722","2","2","""event"",""trial"",""time""
""fullscreenenter"",""1"",""5948""
","
","
","""event"",""trial"",""time""
""fullscreenenter"",""1"",""5948""
","
","","","","","","4316.699999928474","<p> You can select the fuel on the left by pressing 1, the fuel in the middle by pressing 2, and the fuel on the right by pressing 3. </p><br><div class=""choice-instructions-grid""> <div class=""choice-option""><img src=""images/vehicles_choice1.png"" class=""choice-option-img"" stage=""instructions"" position=""0"" ><div class=""choice-option-text""> Press ""1."" </div></div><div class=""choice-option""><img src=""images/vehicles_choice2.png"" class=""choice-option-img"" stage=""instructions"" position=""1"" ><div class=""choice-option-text""> Press ""2."" </div></div><div class=""choice-option""><img src=""images/vehicles_choice3.png"" class=""choice-option-img"" stage=""instructions"" position=""2"" ><div class=""choice-option-text""> Press ""3."" </div></div></div>","","0","instructions","","","","","","","","","","","","","",""
"learning-instructions","79","511884","0.0-9.0-1.0-0.3","1722","2","2","""event"",""trial"",""time""
""fullscreenenter"",""1"",""5948""
","
","
","""event"",""trial"",""time""
""fullscreenenter"",""1"",""5948""
","
","","","","","","860.7999999523163","<p> If the fuel you chose works for that vehicle, it will start, and </p><p> you will get to travel. </p><div style='float: center;'><img src='images/check.png' width = '200' height = '200'></img>","","0","instructions","","","","","","","","","","","","","",""
"learning-instructions","80","517742","0.0-9.0-1.0-0.4","1722","2","2","""event"",""trial"",""time""
""fullscreenenter"",""1"",""5948""
","
","
","""event"",""trial"",""time""
""fullscreenenter"",""1"",""5948""
","
","","","","","","1307.8999999761581","<p> But, if the fuel you chose does not work, your vehicle will not move. </p><div style='float: center;'><img src='images/x.png' width = '200' height = '200'></img>","","0","instructions","","","","","","","","","","","","","",""
"learning-instructions","81","529110","0.0-9.0-1.0-0.5","1722","2","2","""event"",""trial"",""time""
""fullscreenenter"",""1"",""5948""
","
","
","""event"",""trial"",""time""
""fullscreenenter"",""1"",""5948""
","
","","","","","","667","<p> Importantly, each vehicle has a fuel that works best for it. </p><p> If you choose the fuel that works best for the vehicle, it will be more likely to start. </p>","","0","instructions","","","","","","","","","","","","","",""
"learning-instructions","82","540032","0.0-9.0-1.0-0.6","1722","2","2","""event"",""trial"",""time""
""fullscreenenter"",""1"",""5948""
","
","
","""event"",""trial"",""time""
""fullscreenenter"",""1"",""5948""
","
","","","","","","710.1999999284744","<p> However, even if you choose the best fuel for the vehicle, it may still not move. </p><p> Similarly, even if you choose the <i>wrong</i> fuel, the vehicle may still start and let you travel.","","0","instructions","","","","","","","","","","","","","",""
"learning-instructions","83","553043","0.0-9.0-1.0-0.7","1722","2","2","""event"",""trial"",""time""
""fullscreenenter"",""1"",""5948""
","
","
","""event"",""trial"",""time""
""fullscreenenter"",""1"",""5948""
","
","","","","","","659.0999999046326","<p> Try to choose the best fuel for each vehicle, because you will <b> WIN </b> 1 point each time you get to travel and <b>LOSE</b> 1 point each time a vehicle does not start. </p><p> Your bonus payment will depend on your total number of points.","","0","instructions","","","","","","","","","","","","","",""
"learning-instructions","84","565045","0.0-9.0-1.0-0.8","1722","2","2","""event"",""trial"",""time""
""fullscreenenter"",""1"",""5948""
","
","
","""event"",""trial"",""time""
""fullscreenenter"",""1"",""5948""
","
","","","","","","3751.5","<p> The position of each type of fuel will change throughout the round. </p><p> The fuel's position <i> does not </i> influence how likely it is to make each vehicle start. </p>","","0","instructions","","","","","","","","","","","","","",""
"learning-instructions","85","574990","0.0-9.0-1.0-0.9","1722","2","2","""event"",""trial"",""time""
""fullscreenenter"",""1"",""5948""
","
","
","""event"",""trial"",""time""
""fullscreenenter"",""1"",""5948""
","
","","","","","","647.6000000238419","<p> You will have 4 seconds to make each choice. Try to respond before time runs out! </p><p> You will lose 1 point each time you do not make a response. </p>","","0","instructions","","","","","","","","","","","","","",""
"html-keyboard-response","86","575595","0.0-9.0-2.0-0.0","1722","2","2","""event"",""trial"",""time""
""fullscreenenter"",""1"",""5948""
","
","
","""event"",""trial"",""time""
""fullscreenenter"",""1"",""5948""
","
","","","","","","null","<div style=""font-size:60px;"">+</div>","null","","fixation","","","","","","","","","","","","","",""
"learning-trial","87","579604","0.0-9.0-2.0-1.0","1722","2","2","""event"",""trial"",""time""
""fullscreenenter"",""1"",""5948""
","
","
","""event"",""trial"",""time""
""fullscreenenter"",""1"",""5948""
","
","","","","","","2252.2999999523163","images/truck5.png","","","learning","images/vehicles_choice1.png","images/vehicles_choice3.png","images/vehicles_choice2.png","[0,2,1]","1","2","1","images/vehicles_choice1.png","-1","vehicles","","truck","2","0"
"html-keyboard-response","88","580106","0.0-9.0-2.0-0.1","1722","2","2","""event"",""trial"",""time""
""fullscreenenter"",""1"",""5948""
","
","
","""event"",""trial"",""time""
""fullscreenenter"",""1"",""5948""
","
","","","","","","null","<div style=""font-size:60px;"">+</div>","null","","fixation","","","","","","","","","","","","","",""
"learning-trial","89","584115","0.0-9.0-2.0-1.1","1722","2","2","""event"",""trial"",""time""
""fullscreenenter"",""1"",""5948""
","
","
","""event"",""trial"",""time""
""fullscreenenter"",""1"",""5948""
","
","","","","","","3062.1999999284744","images/plane4.png","","","learning","images/vehicles_choice2.png","images/vehicles_choice3.png","images/vehicles_choice1.png","[1,2,0]","0","2","2","images/vehicles_choice3.png","-1","vehicles","","plane","2","0"
"html-keyboard-response","90","584617","0.0-9.0-2.0-0.2","1722","2","2","""event"",""trial"",""time""
""fullscreenenter"",""1"",""5948""
","
","
","""event"",""trial"",""time""
""fullscreenenter"",""1"",""5948""
","
","","","","","","null","<div style=""font-size:60px;"">+</div>","null","","fixation","","","","","","","","","","","","","",""
"learning-trial","91","588625","0.0-9.0-2.0-1.2","1722","2","2","""event"",""trial"",""time""
""fullscreenenter"",""1"",""5948""
","
","
","""event"",""trial"",""time""
""fullscreenenter"",""1"",""5948""
","
","","","","","","1786.4000000953674","images/train4.png","","","learning","images/vehicles_choice3.png","images/vehicles_choice2.png","images/vehicles_choice1.png","[2,1,0]","1","1","3","images/vehicles_choice1.png","-1","vehicles","","train","2","0"
"html-keyboard-response","92","589127","0.0-9.0-2.0-0.3","1722","2","2","""event"",""trial"",""time""
""fullscreenenter"",""1"",""5948""
","
","
","""event"",""trial"",""time""
""fullscreenenter"",""1"",""5948""
","
","","","","","","null","<div style=""font-size:60px;"">+</div>","null","","fixation","","","","","","","","","","","","","",""
"learning-trial","93","593135","0.0-9.0-2.0-1.3","1722","2","2","""event"",""trial"",""time""
""fullscreenenter"",""1"",""5948""
","
","
","""event"",""trial"",""time""
""fullscreenenter"",""1"",""5948""
","
","","","","","","1774.0999999046326","images/train4.png","","","learning","images/vehicles_choice3.png","images/vehicles_choice2.png","images/vehicles_choice1.png","[2,1,0]","1","1","2","images/vehicles_choice2.png","1","vehicles","","train","2","0"
"html-keyboard-response","94","593637","0.0-9.0-2.0-0.4","1722","2","2","""event"",""trial"",""time""
""fullscreenenter"",""1"",""5948""
","
","
","""event"",""trial"",""time""
""fullscreenenter"",""1"",""5948""
","
","","","","","","null","<div style=""font-size:60px;"">+</div>","null","","fixation","","","","","","","","","","","","","",""
"learning-trial","95","597644","0.0-9.0-2.0-1.4","1722","2","2","""event"",""trial"",""time""
""fullscreenenter"",""1"",""5948""
","
","
","""event"",""trial"",""time""
""fullscreenenter"",""1"",""5948""
","
","","","","","","1781.0999999046326","images/plane3.png","","","learning","images/vehicles_choice3.png","images/vehicles_choice1.png","images/vehicles_choice2.png","[2,0,1]","2","0","2","images/vehicles_choice1.png","-1","vehicles","","plane","2","0"
"html-keyboard-response","96","598147","0.0-9.0-2.0-0.5","1722","2","2","""event"",""trial"",""time""
""fullscreenenter"",""1"",""5948""
","
","
","""event"",""trial"",""time""
""fullscreenenter"",""1"",""5948""
","
","","","","","","null","<div style=""font-size:60px;"">+</div>","null","","fixation","","","","","","","","","","","","","",""
"learning-trial","97","602171","0.0-9.0-2.0-1.5","1722","2","2","""event"",""trial"",""time""
""fullscreenenter"",""1"",""5948""
","
","
","""event"",""trial"",""time""
""fullscreenenter"",""1"",""5948""
","
","","","","","","989.6000000238419","images/train1.png","","","learning","images/vehicles_choice3.png","images/vehicles_choice2.png","images/vehicles_choice1.png","[2,1,0]","2","0","1","images/vehicles_choice3.png","-1","vehicles","","train","2","0"
"html-keyboard-response","98","602674","0.0-9.0-2.0-0.6","1722","2","2","""event"",""trial"",""time""
""fullscreenenter"",""1"",""5948""
","
","
","""event"",""trial"",""time""
""fullscreenenter"",""1"",""5948""
","
","","","","","","null","<div style=""font-size:60px;"">+</div>","null","","fixation","","","","","","","","","","","","","",""
"learning-trial","99","606682","0.0-9.0-2.0-1.6","1722","2","2","""event"",""trial"",""time""
""fullscreenenter"",""1"",""5948""
","
","
","""event"",""trial"",""time""
""fullscreenenter"",""1"",""5948""
","
","","","","","","1825.7000000476837","images/train2.png","","","learning","images/vehicles_choice1.png","images/vehicles_choice3.png","images/vehicles_choice2.png","[0,2,1]","0","0","1","images/vehicles_choice1.png","1","vehicles","","train","2","0"
"html-keyboard-response","100","607184","0.0-9.0-2.0-0.7","1722","2","2","""event"",""trial"",""time""
""fullscreenenter"",""1"",""5948""
","
","
","""event"",""trial"",""time""
""fullscreenenter"",""1"",""5948""
","
","","","","","","null","<div style=""font-size:60px;"">+</div>","null","","fixation","","","","","","","","","","","","","",""
"learning-trial","101","611189","0.0-9.0-2.0-1.7","1722","2","2","""event"",""trial"",""time""
""fullscreenenter"",""1"",""5948""
","
","
","""event"",""trial"",""time""
""fullscreenenter"",""1"",""5948""
","
","","","","","","1541.3000000715256","images/train1.png","","","learning","images/vehicles_choice2.png","images/vehicles_choice1.png","images/vehicles_choice3.png","[1,0,2]","2","2","1","images/vehicles_choice2.png","-1","vehicles","","train","2","0"
"html-keyboard-response","102","611691","0.0-9.0-2.0-0.8","1722","2","2","""event"",""trial"",""time""
""fullscreenenter"",""1"",""5948""
","
","
","""event"",""trial"",""time""
""fullscreenenter"",""1"",""5948""
","
","","","","","","null","<div style=""font-size:60px;"">+</div>","null","","fixation","","","","","","","","","","","","","",""
"learning-trial","103","615697","0.0-9.0-2.0-1.8","1722","2","2","""event"",""trial"",""time""
""fullscreenenter"",""1"",""5948""
","
","
","""event"",""trial"",""time""
""fullscreenenter"",""1"",""5948""
","
","","","","","","1467.7999999523163","images/train2.png","","","learning","images/vehicles_choice2.png","images/vehicles_choice1.png","images/vehicles_choice3.png","[1,0,2]","0","1","2","images/vehicles_choice1.png","1","vehicles","","train","2","0"
"html-keyboard-response","104","616198","0.0-9.0-2.0-0.9","1722","2","2","""event"",""trial"",""time""
""fullscreenenter"",""1"",""5948""
","
","
","""event"",""trial"",""time""
""fullscreenenter"",""1"",""5948""
","
","","","","","","null","<div style=""font-size:60px;"">+</div>","null","","fixation","","","","","","","","","","","","","",""
"learning-trial","105","620204","0.0-9.0-2.0-1.9","1722","2","2","""event"",""trial"",""time""
""fullscreenenter"",""1"",""5948""
","
","
","""event"",""trial"",""time""
""fullscreenenter"",""1"",""5948""
","
","","","","","","1190.2999999523163","images/plane5.png","","","learning","images/vehicles_choice1.png","images/vehicles_choice3.png","images/vehicles_choice2.png","[0,2,1]","1","2","2","images/vehicles_choice3.png","-1","vehicles","","plane","2","0"
"html-keyboard-response","106","620706","0.0-9.0-2.0-0.10","1722","2","2","""event"",""trial"",""time""
""fullscreenenter"",""1"",""5948""
","
","
","""event"",""trial"",""time""
""fullscreenenter"",""1"",""5948""
","
","","","","","","null","<div style=""font-size:60px;"">+</div>","null","","fixation","","","","","","","","","","","","","",""
"learning-trial","107","624714","0.0-9.0-2.0-1.10","1722","2","2","""event"",""trial"",""time""
""fullscreenenter"",""1"",""5948""
","
","
","""event"",""trial"",""time""
""fullscreenenter"",""1"",""5948""
","
","","","","","","2498.899999976158","images/train1.png","","","learning","images/vehicles_choice1.png","images/vehicles_choice2.png","images/vehicles_choice3.png","[0,1,2]","2","2","1","images/vehicles_choice1.png","-1","vehicles","","train","2","0"
"html-keyboard-response","108","625217","0.0-9.0-2.0-0.11","1722","2","2","""event"",""trial"",""time""
""fullscreenenter"",""1"",""5948""
","
","
","""event"",""trial"",""time""
""fullscreenenter"",""1"",""5948""
","
","","","","","","null","<div style=""font-size:60px;"">+</div>","null","","fixation","","","","","","","","","","","","","",""
"learning-trial","109","629224","0.0-9.0-2.0-1.11","1722","2","2","""event"",""trial"",""time""
""fullscreenenter"",""1"",""5948""
","
","
","""event"",""trial"",""time""
""fullscreenenter"",""1"",""5948""
","
","","","","","","2113.7999999523163","images/truck5.png","","","learning","images/vehicles_choice3.png","images/vehicles_choice1.png","images/vehicles_choice2.png","[2,0,1]","1","2","1","images/vehicles_choice3.png","-1","vehicles","","truck","2","0"
"html-keyboard-response","110","629727","0.0-9.0-2.0-0.12","1722","2","2","""event"",""trial"",""time""
""fullscreenenter"",""1"",""5948""
","
","
","""event"",""trial"",""time""
""fullscreenenter"",""1"",""5948""
","
","","","","","","null","<div style=""font-size:60px;"">+</div>","null","","fixation","","","","","","","","","","","","","",""
"learning-trial","111","633734","0.0-9.0-2.0-1.12","1722","2","2","""event"",""trial"",""time""
""fullscreenenter"",""1"",""5948""
","
","
","""event"",""trial"",""time""
""fullscreenenter"",""1"",""5948""
","
","","","","","","983.5","images/truck5.png","","","learning","images/vehicles_choice3.png","images/vehicles_choice2.png","images/vehicles_choice1.png","[2,1,0]","1","1","3","images/vehicles_choice1.png","1","vehicles","","truck","2","0"
"html-keyboard-response","112","634236","0.0-9.0-2.0-0.13","1722","2","2","""event"",""trial"",""time""
""fullscreenenter"",""1"",""5948""
","
","
","""event"",""trial"",""time""
""fullscreenenter"",""1"",""5948""
","
","","","","","","null","<div style=""font-size:60px;"">+</div>","null","","fixation","","","","","","","","","","","","","",""
"learning-trial","113","638242","0.0-9.0-2.0-1.13","1722","2","2","""event"",""trial"",""time""
""fullscreenenter"",""1"",""5948""
","
","
","""event"",""trial"",""time""
""fullscreenenter"",""1"",""5948""
","
","","","","","","1112.6999999284744","images/train2.png","","","learning","images/vehicles_choice3.png","images/vehicles_choice1.png","images/vehicles_choice2.png","[2,0,1]","0","1","2","images/vehicles_choice1.png","1","vehicles","","train","2","0"
"html-keyboard-response","114","638744","0.0-9.0-2.0-0.14","1722","2","2","""event"",""trial"",""time""
""fullscreenenter"",""1"",""5948""
","
","
","""event"",""trial"",""time""
""fullscreenenter"",""1"",""5948""
","
","","","","","","null","<div style=""font-size:60px;"">+</div>","null","","fixation","","","","","","","","","","","","","",""
"learning-trial","115","642749","0.0-9.0-2.0-1.14","1722","2","2","""event"",""trial"",""time""
""fullscreenenter"",""1"",""5948""
","
","
","""event"",""trial"",""time""
""fullscreenenter"",""1"",""5948""
","
","","","","","","684.3000000715256","images/truck5.png","","","learning","images/vehicles_choice1.png","images/vehicles_choice2.png","images/vehicles_choice3.png","[0,1,2]","1","1","3","images/vehicles_choice3.png","-1","vehicles","","truck","2","0"
"html-keyboard-response","116","643252","0.0-9.0-2.0-0.15","1722","2","2","""event"",""trial"",""time""
""fullscreenenter"",""1"",""5948""
","
","
","""event"",""trial"",""time""
""fullscreenenter"",""1"",""5948""
","
","","","","","","null","<div style=""font-size:60px;"">+</div>","null","","fixation","","","","","","","","","","","","","",""
"learning-trial","117","647260","0.0-9.0-2.0-1.15","1722","2","2","""event"",""trial"",""time""
""fullscreenenter"",""1"",""5948""
","
","
","""event"",""trial"",""time""
""fullscreenenter"",""1"",""5948""
","
","","","","","","818","images/train4.png","","","learning","images/vehicles_choice2.png","images/vehicles_choice1.png","images/vehicles_choice3.png","[1,0,2]","1","0","1","images/vehicles_choice2.png","1","vehicles","","train","2","0"
"html-keyboard-response","118","647763","0.0-9.0-2.0-0.16","1722","2","2","""event"",""trial"",""time""
""fullscreenenter"",""1"",""5948""
","
","
","""event"",""trial"",""time""
""fullscreenenter"",""1"",""5948""
","
","","","","","","null","<div style=""font-size:60px;"">+</div>","null","","fixation","","","","","","","","","","","","","",""
"learning-trial","119","651770","0.0-9.0-2.0-1.16","1722","2","2","""event"",""trial"",""time""
""fullscreenenter"",""1"",""5948""
","
","
","""event"",""trial"",""time""
""fullscreenenter"",""1"",""5948""
","
","","","","","","2132.0999999046326","images/plane3.png","","","learning","images/vehicles_choice1.png","images/vehicles_choice2.png","images/vehicles_choice3.png","[0,1,2]","2","2","3","images/vehicles_choice3.png","1","vehicles","","plane","2","0"
"html-keyboard-response","120","652273","0.0-9.0-2.0-0.17","1722","2","2","""event"",""trial"",""time""
""fullscreenenter"",""1"",""5948""
","
","
","""event"",""trial"",""time""
""fullscreenenter"",""1"",""5948""
","
","","","","","","null","<div style=""font-size:60px;"">+</div>","null","","fixation","","","","","","","","","","","","","",""
"learning-trial","121","656287","0.0-9.0-2.0-1.17","1722","2","2","""event"",""trial"",""time""
""fullscreenenter"",""1"",""5948""
","
","
","""event"",""trial"",""time""
""fullscreenenter"",""1"",""5948""
","
","","","","","","1481.2000000476837","images/plane4.png","","","learning","images/vehicles_choice3.png","images/vehicles_choice1.png","images/vehicles_choice2.png","[2,0,1]","0","1","2","images/vehicles_choice1.png","1","vehicles","","plane","2","0"
"html-keyboard-response","122","656789","0.0-9.0-2.0-0.18","1722","2","2","""event"",""trial"",""time""
""fullscreenenter"",""1"",""5948""
","
","
","""event"",""trial"",""time""
""fullscreenenter"",""1"",""5948""
","
","","","","","","null","<div style=""font-size:60px;"">+</div>","null","","fixation","","","","","","","","","","","","","",""
"learning-trial","123","660797","0.0-9.0-2.0-1.18","1722","2","2","""event"",""trial"",""time""
""fullscreenenter"",""1"",""5948""
","
","
","""event"",""trial"",""time""
""fullscreenenter"",""1"",""5948""
","
","","","","","","1991.5","images/truck4.png","","","learning","images/vehicles_choice2.png","images/vehicles_choice3.png","images/vehicles_choice1.png","[1,2,0]","2","1","2","images/vehicles_choice3.png","1","vehicles","","truck","2","0"
"html-keyboard-response","124","661299","0.0-9.0-2.0-0.19","1722","2","2","""event"",""trial"",""time""
""fullscreenenter"",""1"",""5948""
","
","
","""event"",""trial"",""time""
""fullscreenenter"",""1"",""5948""
","
","","","","","","null","<div style=""font-size:60px;"">+</div>","null","","fixation","","","","","","","","","","","","","",""
"learning-trial","125","665307","0.0-9.0-2.0-1.19","1722","2","2","""event"",""trial"",""time""
""fullscreenenter"",""1"",""5948""
","
","
","""event"",""trial"",""time""
""fullscreenenter"",""1"",""5948""
","
","","","","","","2776.2000000476837","images/plane3.png","","","learning","images/vehicles_choice1.png","images/vehicles_choice3.png","images/vehicles_choice2.png","[0,2,1]","2","1","3","images/vehicles_choice2.png","1","vehicles","","plane","2","0"
"html-keyboard-response","126","665809","0.0-9.0-2.0-0.20","1722","2","2","""event"",""trial"",""time""
""fullscreenenter"",""1"",""5948""
","
","
","""event"",""trial"",""time""
""fullscreenenter"",""1"",""5948""
","
","","","","","","null","<div style=""font-size:60px;"">+</div>","null","","fixation","","","","","","","","","","","","","",""
"learning-trial","127","669816","0.0-9.0-2.0-1.20","1722","2","2","""event"",""trial"",""time""
""fullscreenenter"",""1"",""5948""
","
","
","""event"",""trial"",""time""
""fullscreenenter"",""1"",""5948""
","
","","","","","","1223.7999999523163","images/truck2.png","","","learning","images/vehicles_choice1.png","images/vehicles_choice2.png","images/vehicles_choice3.png","[0,1,2]","0","0","1","images/vehicles_choice1.png","-1","vehicles","","truck","2","0"
"html-keyboard-response","128","670318","0.0-9.0-2.0-0.21","1722","2","2","""event"",""trial"",""time""
""fullscreenenter"",""1"",""5948""
","
","
","""event"",""trial"",""time""
""fullscreenenter"",""1"",""5948""
","
","","","","","","null","<div style=""font-size:60px;"">+</div>","null","","fixation","","","","","","","","","","","","","",""
"learning-trial","129","674328","0.0-9.0-2.0-1.21","1722","2","2","""event"",""trial"",""time""
""fullscreenenter"",""1"",""5948""
","
","
","""event"",""trial"",""time""
""fullscreenenter"",""1"",""5948""
","
","","","","","","1306.5","images/plane5.png","","","learning","images/vehicles_choice1.png","images/vehicles_choice3.png","images/vehicles_choice2.png","[0,2,1]","1","2","1","images/vehicles_choice1.png","-1","vehicles","","plane","2","0"
"html-keyboard-response","130","674832","0.0-9.0-2.0-0.22","1722","2","2","""event"",""trial"",""time""
""fullscreenenter"",""1"",""5948""
","
","
","""event"",""trial"",""time""
""fullscreenenter"",""1"",""5948""
","
","","","","","","null","<div style=""font-size:60px;"">+</div>","null","","fixation","","","","","","","","","","","","","",""
"learning-trial","131","678841","0.0-9.0-2.0-1.22","1722","2","2","""event"",""trial"",""time""
""fullscreenenter"",""1"",""5948""
","
","
","""event"",""trial"",""time""
""fullscreenenter"",""1"",""5948""
","
","","","","","","1622.3999999761581","images/truck4.png","","","learning","images/vehicles_choice1.png","images/vehicles_choice3.png","images/vehicles_choice2.png","[0,2,1]","2","1","2","images/vehicles_choice3.png","1","vehicles","","truck","2","0"
"html-keyboard-response","132","679343","0.0-9.0-2.0-0.23","1722","2","2","""event"",""trial"",""time""
""fullscreenenter"",""1"",""5948""
","
","
","""event"",""trial"",""time""
""fullscreenenter"",""1"",""5948""
","
","","","","","","null","<div style=""font-size:60px;"">+</div>","null","","fixation","","","","","","","","","","","","","",""
"learning-trial","133","683352","0.0-9.0-2.0-1.23","1722","2","2","""event"",""trial"",""time""
""fullscreenenter"",""1"",""5948""
","
","
","""event"",""trial"",""time""
""fullscreenenter"",""1"",""5948""
","
","","","","","","1535.5999999046326","images/truck5.png","","","learning","images/vehicles_choice2.png","images/vehicles_choice3.png","images/vehicles_choice1.png","[1,2,0]","1","0","1","images/vehicles_choice2.png","1","vehicles","","truck","2","0"
"html-keyboard-response","134","683901","0.0-9.0-2.0-0.24","1722","2","2","""event"",""trial"",""time""
""fullscreenenter"",""1"",""5948""
","
","
","""event"",""trial"",""time""
""fullscreenenter"",""1"",""5948""
","
","","","","","","null","<div style=""font-size:60px;"">+</div>","null","","fixation","","","","","","","","","","","","","",""
"learning-trial","135","687944","0.0-9.0-2.0-1.24","1722","2","2","""event"",""trial"",""time""
""fullscreenenter"",""1"",""5948""
","
","
","""event"",""trial"",""time""
""fullscreenenter"",""1"",""5948""
","
","","","","","","1348.3999999761581","images/truck4.png","","","learning","images/vehicles_choice3.png","images/vehicles_choice1.png","images/vehicles_choice2.png","[2,0,1]","2","0","1","images/vehicles_choice3.png","1","vehicles","","truck","2","0"
"html-keyboard-response","136","688447","0.0-9.0-2.0-0.25","1722","2","2","""event"",""trial"",""time""
""fullscreenenter"",""1"",""5948""
","
","
","""event"",""trial"",""time""
""fullscreenenter"",""1"",""5948""
","
","","","","","","null","<div style=""font-size:60px;"">+</div>","null","","fixation","","","","","","","","","","","","","",""
"learning-trial","137","692458","0.0-9.0-2.0-1.25","1722","2","2","""event"",""trial"",""time""
""fullscreenenter"",""1"",""5948""
","
","
","""event"",""trial"",""time""
""fullscreenenter"",""1"",""5948""
","
","","","","","","1667.7999999523163","images/truck2.png","","","learning","images/vehicles_choice2.png","images/vehicles_choice3.png","images/vehicles_choice1.png","[1,2,0]","0","2","3","images/vehicles_choice1.png","1","vehicles","","truck","2","0"
"html-keyboard-response","138","692960","0.0-9.0-2.0-0.26","1722","2","2","""event"",""trial"",""time""
""fullscreenenter"",""1"",""5948""
","
","
","""event"",""trial"",""time""
""fullscreenenter"",""1"",""5948""
","
","","","","","","null","<div style=""font-size:60px;"">+</div>","null","","fixation","","","","","","","","","","","","","",""
"learning-trial","139","696969","0.0-9.0-2.0-1.26","1722","2","2","""event"",""trial"",""time""
""fullscreenenter"",""1"",""5948""
","
","
","""event"",""trial"",""time""
""fullscreenenter"",""1"",""5948""
","
","","","","","","1717","images/plane5.png","","","learning","images/vehicles_choice3.png","images/vehicles_choice1.png","images/vehicles_choice2.png","[2,0,1]","1","2","2","images/vehicles_choice1.png","-1","vehicles","","plane","2","0"
"html-keyboard-response","140","697471","0.0-9.0-2.0-0.27","1722","2","2","""event"",""trial"",""time""
""fullscreenenter"",""1"",""5948""
","
","
","""event"",""trial"",""time""
""fullscreenenter"",""1"",""5948""
","
","","","","","","null","<div style=""font-size:60px;"">+</div>","null","","fixation","","","","","","","","","","","","","",""
"learning-trial","141","701480","0.0-9.0-2.0-1.27","1722","2","2","""event"",""trial"",""time""
""fullscreenenter"",""1"",""5948""
","
","
","""event"",""trial"",""time""
""fullscreenenter"",""1"",""5948""
","
","","","","","","1808.3000000715256","images/train1.png","","","learning","images/vehicles_choice2.png","images/vehicles_choice3.png","images/vehicles_choice1.png","[1,2,0]","2","1","2","images/vehicles_choice3.png","1","vehicles","","train","2","0"
"html-keyboard-response","142","701982","0.0-9.0-2.0-0.28","1722","2","2","""event"",""trial"",""time""
""fullscreenenter"",""1"",""5948""
","
","
","""event"",""trial"",""time""
""fullscreenenter"",""1"",""5948""
","
","","","","","","null","<div style=""font-size:60px;"">+</div>","null","","fixation","","","","","","","","","","","","","",""
"learning-trial","143","705989","0.0-9.0-2.0-1.28","1722","2","2","""event"",""trial"",""time""
""fullscreenenter"",""1"",""5948""
","
","
","""event"",""trial"",""time""
""fullscreenenter"",""1"",""5948""
","
","","","","","","1633.5","images/train1.png","","","learning","images/vehicles_choice2.png","images/vehicles_choice1.png","images/vehicles_choice3.png","[1,0,2]","2","2","3","images/vehicles_choice3.png","1","vehicles","","train","2","0"
"html-keyboard-response","144","706492","0.0-9.0-2.0-0.29","1722","2","2","""event"",""trial"",""time""
""fullscreenenter"",""1"",""5948""
","
","
","""event"",""trial"",""time""
""fullscreenenter"",""1"",""5948""
","
","","","","","","null","<div style=""font-size:60px;"">+</div>","null","","fixation","","","","","","","","","","","","","",""
"learning-trial","145","710501","0.0-9.0-2.0-1.29","1722","2","2","""event"",""trial"",""time""
""fullscreenenter"",""1"",""5948""
","
","
","""event"",""trial"",""time""
""fullscreenenter"",""1"",""5948""
","
","","","","","","2402.4000000953674","images/train4.png","","","learning","images/vehicles_choice3.png","images/vehicles_choice1.png","images/vehicles_choice2.png","[2,0,1]","1","2","2","images/vehicles_choice1.png","1","vehicles","","train","2","0"
"html-keyboard-response","146","711003","0.0-9.0-2.0-0.30","1722","2","2","""event"",""trial"",""time""
""fullscreenenter"",""1"",""5948""
","
","
","""event"",""trial"",""time""
""fullscreenenter"",""1"",""5948""
","
","","","","","","null","<div style=""font-size:60px;"">+</div>","null","","fixation","","","","","","","","","","","","","",""
"learning-trial","147","715011","0.0-9.0-2.0-1.30","1722","2","2","""event"",""trial"",""time""
""fullscreenenter"",""1"",""5948""
","
","
","""event"",""trial"",""time""
""fullscreenenter"",""1"",""5948""
","
","","","","","","2121.9000000953674","images/train2.png","","","learning","images/vehicles_choice1.png","images/vehicles_choice2.png","images/vehicles_choice3.png","[0,1,2]","0","0","1","images/vehicles_choice1.png","1","vehicles","","train","2","0"
"html-keyboard-response","148","715513","0.0-9.0-2.0-0.31","1722","2","2","""event"",""trial"",""time""
""fullscreenenter"",""1"",""5948""
","
","
","""event"",""trial"",""time""
""fullscreenenter"",""1"",""5948""
","
","","","","","","null","<div style=""font-size:60px;"">+</div>","null","","fixation","","","","","","","","","","","","","",""
"learning-trial","149","719521","0.0-9.0-2.0-1.31","1722","2","2","""event"",""trial"",""time""
""fullscreenenter"",""1"",""5948""
","
","
","""event"",""trial"",""time""
""fullscreenenter"",""1"",""5948""
","
","","","","","","1559.2000000476837","images/train2.png","","","learning","images/vehicles_choice1.png","images/vehicles_choice3.png","images/vehicles_choice2.png","[0,2,1]","0","0","1","images/vehicles_choice1.png","1","vehicles","","train","2","0"
"html-keyboard-response","150","720023","0.0-9.0-2.0-0.32","1722","2","2","""event"",""trial"",""time""
""fullscreenenter"",""1"",""5948""
","
","
","""event"",""trial"",""time""
""fullscreenenter"",""1"",""5948""
","
","","","","","","null","<div style=""font-size:60px;"">+</div>","null","","fixation","","","","","","","","","","","","","",""
"learning-trial","151","724031","0.0-9.0-2.0-1.32","1722","2","2","""event"",""trial"",""time""
""fullscreenenter"",""1"",""5948""
","
","
","""event"",""trial"",""time""
""fullscreenenter"",""1"",""5948""
","
","","","","","","1423.1000000238419","images/train2.png","","","learning","images/vehicles_choice3.png","images/vehicles_choice2.png","images/vehicles_choice1.png","[2,1,0]","0","2","3","images/vehicles_choice1.png","1","vehicles","","train","2","0"
"html-keyboard-response","152","724533","0.0-9.0-2.0-0.33","1722","2","2","""event"",""trial"",""time""
""fullscreenenter"",""1"",""5948""
","
","
","""event"",""trial"",""time""
""fullscreenenter"",""1"",""5948""
","
","","","","","","null","<div style=""font-size:60px;"">+</div>","null","","fixation","","","","","","","","","","","","","",""
"learning-trial","153","728541","0.0-9.0-2.0-1.33","1722","2","2","""event"",""trial"",""time""
""fullscreenenter"",""1"",""5948""
","
","
","""event"",""trial"",""time""
""fullscreenenter"",""1"",""5948""
","
","","","","","","2906.4000000953674","images/truck5.png","","","learning","images/vehicles_choice2.png","images/vehicles_choice3.png","images/vehicles_choice1.png","[1,2,0]","1","0","1","images/vehicles_choice2.png","1","vehicles","","truck","2","0"
"html-keyboard-response","154","729044","0.0-9.0-2.0-0.34","1722","2","2","""event"",""trial"",""time""
""fullscreenenter"",""1"",""5948""
","
","
","""event"",""trial"",""time""
""fullscreenenter"",""1"",""5948""
","
","","","","","","null","<div style=""font-size:60px;"">+</div>","null","","fixation","","","","","","","","","","","","","",""
"learning-trial","155","733053","0.0-9.0-2.0-1.34","1722","2","2","""event"",""trial"",""time""
""fullscreenenter"",""1"",""5948""
","
","
","""event"",""trial"",""time""
""fullscreenenter"",""1"",""5948""
","
","","","","","","2908.7000000476837","images/plane3.png","","","learning","images/vehicles_choice1.png","images/vehicles_choice2.png","images/vehicles_choice3.png","[0,1,2]","2","2","3","images/vehicles_choice3.png","1","vehicles","","plane","2","0"
"html-keyboard-response","156","733555","0.0-9.0-2.0-0.35","1722","2","2","""event"",""trial"",""time""
""fullscreenenter"",""1"",""5948""
","
","
","""event"",""trial"",""time""
""fullscreenenter"",""1"",""5948""
","
","","","","","","null","<div style=""font-size:60px;"">+</div>","null","","fixation","","","","","","","","","","","","","",""
"learning-trial","157","737563","0.0-9.0-2.0-1.35","1722","2","2","""event"",""trial"",""time""
""fullscreenenter"",""1"",""5948""
","
","
","""event"",""trial"",""time""
""fullscreenenter"",""1"",""5948""
","
","","","","","","1719.6000000238419","images/train4.png","","","learning","images/vehicles_choice2.png","images/vehicles_choice1.png","images/vehicles_choice3.png","[1,0,2]","1","0","2","images/vehicles_choice1.png","-1","vehicles","","train","2","0"
"html-keyboard-response","158","738065","0.0-9.0-2.0-0.36","1722","2","2","""event"",""trial"",""time""
""fullscreenenter"",""1"",""5948""
","
","
","""event"",""trial"",""time""
""fullscreenenter"",""1"",""5948""
","
","","","","","","null","<div style=""font-size:60px;"">+</div>","null","","fixation","","","","","","","","","","","","","",""
"learning-trial","159","742073","0.0-9.0-2.0-1.36","1722","2","2","""event"",""trial"",""time""
""fullscreenenter"",""1"",""5948""
","
","
","""event"",""trial"",""time""
""fullscreenenter"",""1"",""5948""
","
","","","","","","2012.3999999761581","images/train1.png","","","learning","images/vehicles_choice3.png","images/vehicles_choice2.png","images/vehicles_choice1.png","[2,1,0]","2","0","1","images/vehicles_choice3.png","-1","vehicles","","train","2","0"
"html-keyboard-response","160","742575","0.0-9.0-2.0-0.37","1722","2","2","""event"",""trial"",""time""
""fullscreenenter"",""1"",""5948""
","
","
","""event"",""trial"",""time""
""fullscreenenter"",""1"",""5948""
","
","","","","","","null","<div style=""font-size:60px;"">+</div>","null","","fixation","","","","","","","","","","","","","",""
"learning-trial","161","746583","0.0-9.0-2.0-1.37","1722","2","2","""event"",""trial"",""time""
""fullscreenenter"",""1"",""5948""
","
","
","""event"",""trial"",""time""
""fullscreenenter"",""1"",""5948""
","
","","","","","","2315.100000023842","images/plane3.png","","","learning","images/vehicles_choice2.png","images/vehicles_choice1.png","images/vehicles_choice3.png","[1,0,2]","2","2","3","images/vehicles_choice3.png","1","vehicles","","plane","2","0"
"html-keyboard-response","162","747088","0.0-9.0-2.0-0.38","1722","2","2","""event"",""trial"",""time""
""fullscreenenter"",""1"",""5948""
","
","
","""event"",""trial"",""time""
""fullscreenenter"",""1"",""5948""
","
","","","","","","null","<div style=""font-size:60px;"">+</div>","null","","fixation","","","","","","","","","","","","","",""
"learning-trial","163","751096","0.0-9.0-2.0-1.38","1722","2","2","""event"",""trial"",""time""
""fullscreenenter"",""1"",""5948""
","
","
","""event"",""trial"",""time""
""fullscreenenter"",""1"",""5948""
","
","","","","","","1925.2999999523163","images/plane4.png","","","learning","images/vehicles_choice2.png","images/vehicles_choice3.png","images/vehicles_choice1.png","[1,2,0]","0","2","2","images/vehicles_choice3.png","-1","vehicles","","plane","2","0"
"html-keyboard-response","164","751598","0.0-9.0-2.0-0.39","1722","2","2","""event"",""trial"",""time""
""fullscreenenter"",""1"",""5948""
","
","
","""event"",""trial"",""time""
""fullscreenenter"",""1"",""5948""
","
","","","","","","null","<div style=""font-size:60px;"">+</div>","null","","fixation","","","","","","","","","","","","","",""
"learning-trial","165","755606","0.0-9.0-2.0-1.39","1722","2","2","""event"",""trial"",""time""
""fullscreenenter"",""1"",""5948""
","
","
","""event"",""trial"",""time""
""fullscreenenter"",""1"",""5948""
","
","","","","","","2100.2000000476837","images/train1.png","","","learning","images/vehicles_choice1.png","images/vehicles_choice3.png","images/vehicles_choice2.png","[0,2,1]","2","1","1","images/vehicles_choice1.png","-1","vehicles","","train","2","0"
"html-keyboard-response","166","756108","0.0-9.0-2.0-0.40","1722","2","2","""event"",""trial"",""time""
""fullscreenenter"",""1"",""5948""
","
","
","""event"",""trial"",""time""
""fullscreenenter"",""1"",""5948""
","
","","","","","","null","<div style=""font-size:60px;"">+</div>","null","","fixation","","","","","","","","","","","","","",""
"learning-trial","167","760116","0.0-9.0-2.0-1.40","1722","2","2","""event"",""trial"",""time""
""fullscreenenter"",""1"",""5948""
","
","
","""event"",""trial"",""time""
""fullscreenenter"",""1"",""5948""
","
","","","","","","2670.5","images/truck4.png","","","learning","images/vehicles_choice1.png","images/vehicles_choice2.png","images/vehicles_choice3.png","[0,1,2]","2","2","3","images/vehicles_choice3.png","1","vehicles","","truck","2","0"
"html-keyboard-response","168","760618","0.0-9.0-2.0-0.41","1722","2","2","""event"",""trial"",""time""
""fullscreenenter"",""1"",""5948""
","
","
","""event"",""trial"",""time""
""fullscreenenter"",""1"",""5948""
","
","","","","","","null","<div style=""font-size:60px;"">+</div>","null","","fixation","","","","","","","","","","","","","",""
"learning-trial","169","764626","0.0-9.0-2.0-1.41","1722","2","2","""event"",""trial"",""time""
""fullscreenenter"",""1"",""5948""
","
","
","""event"",""trial"",""time""
""fullscreenenter"",""1"",""5948""
","
","","","","","","1411.2000000476837","images/train4.png","","","learning","images/vehicles_choice3.png","images/vehicles_choice2.png","images/vehicles_choice1.png","[2,1,0]","1","1","3","images/vehicles_choice1.png","-1","vehicles","","train","2","0"
"html-keyboard-response","170","765128","0.0-9.0-2.0-0.42","1722","2","2","""event"",""trial"",""time""
""fullscreenenter"",""1"",""5948""
","
","
","""event"",""trial"",""time""
""fullscreenenter"",""1"",""5948""
","
","","","","","","null","<div style=""font-size:60px;"">+</div>","null","","fixation","","","","","","","","","","","","","",""
"learning-trial","171","769136","0.0-9.0-2.0-1.42","1722","2","2","""event"",""trial"",""time""
""fullscreenenter"",""1"",""5948""
","
","
","""event"",""trial"",""time""
""fullscreenenter"",""1"",""5948""
","
","","","","","","1848","images/plane5.png","","","learning","images/vehicles_choice2.png","images/vehicles_choice1.png","images/vehicles_choice3.png","[1,0,2]","1","0","1","images/vehicles_choice2.png","1","vehicles","","plane","2","0"
"html-keyboard-response","172","769638","0.0-9.0-2.0-0.43","1722","2","2","""event"",""trial"",""time""
""fullscreenenter"",""1"",""5948""
","
","
","""event"",""trial"",""time""
""fullscreenenter"",""1"",""5948""
","
","","","","","","null","<div style=""font-size:60px;"">+</div>","null","","fixation","","","","","","","","","","","","","",""
"learning-trial","173","773646","0.0-9.0-2.0-1.43","1722","2","2","""event"",""trial"",""time""
""fullscreenenter"",""1"",""5948""
","
","
","""event"",""trial"",""time""
""fullscreenenter"",""1"",""5948""
","
","","","","","","513.3000000715256","images/plane4.png","","","learning","images/vehicles_choice1.png","images/vehicles_choice2.png","images/vehicles_choice3.png","[0,1,2]","0","0","3","images/vehicles_choice3.png","-1","vehicles","","plane","2","0"
"html-keyboard-response","174","774149","0.0-9.0-2.0-0.44","1722","2","2","""event"",""trial"",""time""
""fullscreenenter"",""1"",""5948""
","
","
","""event"",""trial"",""time""
""fullscreenenter"",""1"",""5948""
","
","","","","","","null","<div style=""font-size:60px;"">+</div>","null","","fixation","","","","","","","","","","","","","",""
"learning-trial","175","778156","0.0-9.0-2.0-1.44","1722","2","2","""event"",""trial"",""time""
""fullscreenenter"",""1"",""5948""
","
","
","""event"",""trial"",""time""
""fullscreenenter"",""1"",""5948""
","
","","","","","","888.8999999761581","images/train4.png","","","learning","images/vehicles_choice1.png","images/vehicles_choice3.png","images/vehicles_choice2.png","[0,2,1]","1","2","2","images/vehicles_choice3.png","-1","vehicles","","train","2","0"
"html-keyboard-response","176","778659","0.0-9.0-2.0-0.45","1722","2","2","""event"",""trial"",""time""
""fullscreenenter"",""1"",""5948""
","
","
","""event"",""trial"",""time""
""fullscreenenter"",""1"",""5948""
","
","","","","","","null","<div style=""font-size:60px;"">+</div>","null","","fixation","","","","","","","","","","","","","",""
"learning-trial","177","782667","0.0-9.0-2.0-1.45","1722","2","2","""event"",""trial"",""time""
""fullscreenenter"",""1"",""5948""
","
","
","""event"",""trial"",""time""
""fullscreenenter"",""1"",""5948""
","
","","","","","","1504.1000000238419","images/plane5.png","","","learning","images/vehicles_choice1.png","images/vehicles_choice3.png","images/vehicles_choice2.png","[0,2,1]","1","2","1","images/vehicles_choice1.png","-1","vehicles","","plane","2","0"
"html-keyboard-response","178","783169","0.0-9.0-2.0-0.46","1722","2","2","""event"",""trial"",""time""
""fullscreenenter"",""1"",""5948""
","
","
","""event"",""trial"",""time""
""fullscreenenter"",""1"",""5948""
","
","","","","","","null","<div style=""font-size:60px;"">+</div>","null","","fixation","","","","","","","","","","","","","",""
"learning-trial","179","787177","0.0-9.0-2.0-1.46","1722","2","2","""event"",""trial"",""time""
""fullscreenenter"",""1"",""5948""
","
","
","""event"",""trial"",""time""
""fullscreenenter"",""1"",""5948""
","
","","","","","","1746.2000000476837","images/truck2.png","","","learning","images/vehicles_choice3.png","images/vehicles_choice1.png","images/vehicles_choice2.png","[2,0,1]","0","1","2","images/vehicles_choice1.png","1","vehicles","","truck","2","0"
"html-keyboard-response","180","787679","0.0-9.0-2.0-0.47","1722","2","2","""event"",""trial"",""time""
""fullscreenenter"",""1"",""5948""
","
","
","""event"",""trial"",""time""
""fullscreenenter"",""1"",""5948""
","
","","","","","","null","<div style=""font-size:60px;"">+</div>","null","","fixation","","","","","","","","","","","","","",""
"learning-trial","181","791687","0.0-9.0-2.0-1.47","1722","2","2","""event"",""trial"",""time""
""fullscreenenter"",""1"",""5948""
","
","
","""event"",""trial"",""time""
""fullscreenenter"",""1"",""5948""
","
","","","","","","505.10000002384186","images/plane4.png","","","learning","images/vehicles_choice3.png","images/vehicles_choice1.png","images/vehicles_choice2.png","[2,0,1]","0","1","3","images/vehicles_choice2.png","-1","vehicles","","plane","2","0"
"html-keyboard-response","182","792189","0.0-9.0-2.0-0.48","1722","2","2","""event"",""trial"",""time""
""fullscreenenter"",""1"",""5948""
","
","
","""event"",""trial"",""time""
""fullscreenenter"",""1"",""5948""
","
","","","","","","null","<div style=""font-size:60px;"">+</div>","null","","fixation","","","","","","","","","","","","","",""
"learning-trial","183","796198","0.0-9.0-2.0-1.48","1722","2","2","""event"",""trial"",""time""
""fullscreenenter"",""1"",""5948""
","
","
","""event"",""trial"",""time""
""fullscreenenter"",""1"",""5948""
","
","","","","","","1718.8999999761581","images/train1.png","","","learning","images/vehicles_choice3.png","images/vehicles_choice1.png","images/vehicles_choice2.png","[2,0,1]","2","0","1","images/vehicles_choice3.png","1","vehicles","","train","2","0"
"html-keyboard-response","184","796701","0.0-9.0-2.0-0.49","1722","2","2","""event"",""trial"",""time""
""fullscreenenter"",""1"",""5948""
","
","
","""event"",""trial"",""time""
""fullscreenenter"",""1"",""5948""
","
","","","","","","null","<div style=""font-size:60px;"">+</div>","null","","fixation","","","","","","","","","","","","","",""
"learning-trial","185","800709","0.0-9.0-2.0-1.49","1722","2","2","""event"",""trial"",""time""
""fullscreenenter"",""1"",""5948""
","
","
","""event"",""trial"",""time""
""fullscreenenter"",""1"",""5948""
","
","","","","","","987.1000000238419","images/train2.png","","","learning","images/vehicles_choice2.png","images/vehicles_choice3.png","images/vehicles_choice1.png","[1,2,0]","0","2","3","images/vehicles_choice1.png","1","vehicles","","train","2","0"
"html-keyboard-response","186","801211","0.0-9.0-2.0-0.50","1722","2","2","""event"",""trial"",""time""
""fullscreenenter"",""1"",""5948""
","
","
","""event"",""trial"",""time""
""fullscreenenter"",""1"",""5948""
","
","","","","","","null","<div style=""font-size:60px;"">+</div>","null","","fixation","","","","","","","","","","","","","",""
"learning-trial","187","805218","0.0-9.0-2.0-1.50","1722","2","2","""event"",""trial"",""time""
""fullscreenenter"",""1"",""5948""
","
","
","""event"",""trial"",""time""
""fullscreenenter"",""1"",""5948""
","
","","","","","","1320.8999999761581","images/truck4.png","","","learning","images/vehicles_choice2.png","images/vehicles_choice3.png","images/vehicles_choice1.png","[1,2,0]","2","1","2","images/vehicles_choice3.png","1","vehicles","","truck","2","0"
"html-keyboard-response","188","805721","0.0-9.0-2.0-0.51","1722","2","2","""event"",""trial"",""time""
""fullscreenenter"",""1"",""5948""
","
","
","""event"",""trial"",""time""
""fullscreenenter"",""1"",""5948""
","
","","","","","","null","<div style=""font-size:60px;"">+</div>","null","","fixation","","","","","","","","","","","","","",""
"learning-trial","189","809729","0.0-9.0-2.0-1.51","1722","2","2","""event"",""trial"",""time""
""fullscreenenter"",""1"",""5948""
","
","
","""event"",""trial"",""time""
""fullscreenenter"",""1"",""5948""
","
","","","","","","3062.100000023842","images/plane4.png","","","learning","images/vehicles_choice1.png","images/vehicles_choice2.png","images/vehicles_choice3.png","[0,1,2]","0","0","3","images/vehicles_choice3.png","-1","vehicles","","plane","2","0"
"html-keyboard-response","190","810231","0.0-9.0-2.0-0.52","1722","2","2","""event"",""trial"",""time""
""fullscreenenter"",""1"",""5948""
","
","
","""event"",""trial"",""time""
""fullscreenenter"",""1"",""5948""
","
","","","","","","null","<div style=""font-size:60px;"">+</div>","null","","fixation","","","","","","","","","","","","","",""
"learning-trial","191","814238","0.0-9.0-2.0-1.52","1722","2","2","""event"",""trial"",""time""
""fullscreenenter"",""1"",""5948""
","
","
","""event"",""trial"",""time""
""fullscreenenter"",""1"",""5948""
","
","","","","","","1671.5","images/truck2.png","","","learning","images/vehicles_choice2.png","images/vehicles_choice1.png","images/vehicles_choice3.png","[1,0,2]","0","1","2","images/vehicles_choice1.png","1","vehicles","","truck","2","0"
"html-keyboard-response","192","814740","0.0-9.0-2.0-0.53","1722","2","2","""event"",""trial"",""time""
""fullscreenenter"",""1"",""5948""
","
","
","""event"",""trial"",""time""
""fullscreenenter"",""1"",""5948""
","
","","","","","","null","<div style=""font-size:60px;"">+</div>","null","","fixation","","","","","","","","","","","","","",""
"learning-trial","193","818749","0.0-9.0-2.0-1.53","1722","2","2","""event"",""trial"",""time""
""fullscreenenter"",""1"",""5948""
","
","
","""event"",""trial"",""time""
""fullscreenenter"",""1"",""5948""
","
","","","","","","2325.2000000476837","images/truck4.png","","","learning","images/vehicles_choice3.png","images/vehicles_choice2.png","images/vehicles_choice1.png","[2,1,0]","2","0","1","images/vehicles_choice3.png","1","vehicles","","truck","2","0"
"html-keyboard-response","194","819251","0.0-9.0-2.0-0.54","1722","2","2","""event"",""trial"",""time""
""fullscreenenter"",""1"",""5948""
","
","
","""event"",""trial"",""time""
""fullscreenenter"",""1"",""5948""
","
","","","","","","null","<div style=""font-size:60px;"">+</div>","null","","fixation","","","","","","","","","","","","","",""
"learning-trial","195","823259","0.0-9.0-2.0-1.54","1722","2","2","""event"",""trial"",""time""
""fullscreenenter"",""1"",""5948""
","
","
","""event"",""trial"",""time""
""fullscreenenter"",""1"",""5948""
","
","","","","","","2462.6999999284744","images/plane4.png","","","learning","images/vehicles_choice2.png","images/vehicles_choice3.png","images/vehicles_choice1.png","[1,2,0]","0","2","2","images/vehicles_choice3.png","-1","vehicles","","plane","2","0"
"html-keyboard-response","196","823761","0.0-9.0-2.0-0.55","1722","2","2","""event"",""trial"",""time""
""fullscreenenter"",""1"",""5948""
","
","
","""event"",""trial"",""time""
""fullscreenenter"",""1"",""5948""
","
","","","","","","null","<div style=""font-size:60px;"">+</div>","null","","fixation","","","","","","","","","","","","","",""
"learning-trial","197","827769","0.0-9.0-2.0-1.55","1722","2","2","""event"",""trial"",""time""
""fullscreenenter"",""1"",""5948""
","
","
","""event"",""trial"",""time""
""fullscreenenter"",""1"",""5948""
","
","","","","","","3410.7000000476837","images/plane5.png","","","learning","images/vehicles_choice3.png","images/vehicles_choice2.png","images/vehicles_choice1.png","[2,1,0]","1","1","1","images/vehicles_choice3.png","-1","vehicles","","plane","2","0"
"html-keyboard-response","198","828272","0.0-9.0-2.0-0.56","1722","2","2","""event"",""trial"",""time""
""fullscreenenter"",""1"",""5948""
","
","
","""event"",""trial"",""time""
""fullscreenenter"",""1"",""5948""
","
","","","","","","null","<div style=""font-size:60px;"">+</div>","null","","fixation","","","","","","","","","","","","","",""
"learning-trial","199","832279","0.0-9.0-2.0-1.56","1722","2","2","""event"",""trial"",""time""
""fullscreenenter"",""1"",""5948""
","
","
","""event"",""trial"",""time""
""fullscreenenter"",""1"",""5948""
","
","","","","","","2001.3999999761581","images/plane3.png","","","learning","images/vehicles_choice1.png","images/vehicles_choice3.png","images/vehicles_choice2.png","[0,2,1]","2","1","1","images/vehicles_choice1.png","-1","vehicles","","plane","2","0"
"html-keyboard-response","200","832782","0.0-9.0-2.0-0.57","1722","2","2","""event"",""trial"",""time""
""fullscreenenter"",""1"",""5948""
","
","
","""event"",""trial"",""time""
""fullscreenenter"",""1"",""5948""
","
","","","","","","null","<div style=""font-size:60px;"">+</div>","null","","fixation","","","","","","","","","","","","","",""
"learning-trial","201","836788","0.0-9.0-2.0-1.57","1722","2","2","""event"",""trial"",""time""
""fullscreenenter"",""1"",""5948""
","
","
","""event"",""trial"",""time""
""fullscreenenter"",""1"",""5948""
","
","","","","","","2480.100000023842","images/truck2.png","","","learning","images/vehicles_choice3.png","images/vehicles_choice2.png","images/vehicles_choice1.png","[2,1,0]","0","2","3","images/vehicles_choice1.png","1","vehicles","","truck","2","0"
"html-keyboard-response","202","837291","0.0-9.0-2.0-0.58","1722","2","2","""event"",""trial"",""time""
""fullscreenenter"",""1"",""5948""
","
","
","""event"",""trial"",""time""
""fullscreenenter"",""1"",""5948""
","
","","","","","","null","<div style=""font-size:60px;"">+</div>","null","","fixation","","","","","","","","","","","","","",""
"learning-trial","203","841299","0.0-9.0-2.0-1.58","1722","2","2","""event"",""trial"",""time""
""fullscreenenter"",""1"",""5948""
","
","
","""event"",""trial"",""time""
""fullscreenenter"",""1"",""5948""
","
","","","","","","1209.3999999761581","images/plane5.png","","","learning","images/vehicles_choice3.png","images/vehicles_choice1.png","images/vehicles_choice2.png","[2,0,1]","1","2","1","images/vehicles_choice3.png","-1","vehicles","","plane","2","0"
"html-keyboard-response","204","841801","0.0-9.0-2.0-0.59","1722","2","2","""event"",""trial"",""time""
""fullscreenenter"",""1"",""5948""
","
","
","""event"",""trial"",""time""
""fullscreenenter"",""1"",""5948""
","
","","","","","","null","<div style=""font-size:60px;"">+</div>","null","","fixation","","","","","","","","","","","","","",""
"learning-trial","205","845809","0.0-9.0-2.0-1.59","1722","2","2","""event"",""trial"",""time""
""fullscreenenter"",""1"",""5948""
","
","
","""event"",""trial"",""time""
""fullscreenenter"",""1"",""5948""
","
","","","","","","1400","images/truck4.png","","","learning","images/vehicles_choice2.png","images/vehicles_choice1.png","images/vehicles_choice3.png","[1,0,2]","2","2","3","images/vehicles_choice3.png","1","vehicles","","truck","2","0"
"html-keyboard-response","206","846311","0.0-9.0-2.0-0.60","1722","2","2","""event"",""trial"",""time""
""fullscreenenter"",""1"",""5948""
","
","
","""event"",""trial"",""time""
""fullscreenenter"",""1"",""5948""
","
","","","","","","null","<div style=""font-size:60px;"">+</div>","null","","fixation","","","","","","","","","","","","","",""
"learning-trial","207","850319","0.0-9.0-2.0-1.60","1722","2","2","""event"",""trial"",""time""
""fullscreenenter"",""1"",""5948""
","
","
","""event"",""trial"",""time""
""fullscreenenter"",""1"",""5948""
","
","","","","","","1584.2999999523163","images/truck2.png","","","learning","images/vehicles_choice2.png","images/vehicles_choice3.png","images/vehicles_choice1.png","[1,2,0]","0","2","3","images/vehicles_choice1.png","1","vehicles","","truck","2","0"
"html-keyboard-response","208","850821","0.0-9.0-2.0-0.61","1722","2","2","""event"",""trial"",""time""
""fullscreenenter"",""1"",""5948""
","
","
","""event"",""trial"",""time""
""fullscreenenter"",""1"",""5948""
","
","","","","","","null","<div style=""font-size:60px;"">+</div>","null","","fixation","","","","","","","","","","","","","",""
"learning-trial","209","854830","0.0-9.0-2.0-1.61","1722","2","2","""event"",""trial"",""time""
""fullscreenenter"",""1"",""5948""
","
","
","""event"",""trial"",""time""
""fullscreenenter"",""1"",""5948""
","
","","","","","","1117.0999999046326","images/plane3.png","","","learning","images/vehicles_choice3.png","images/vehicles_choice2.png","images/vehicles_choice1.png","[2,1,0]","2","0","1","images/vehicles_choice3.png","1","vehicles","","plane","2","0"
"html-keyboard-response","210","855332","0.0-9.0-2.0-0.62","1722","2","2","""event"",""trial"",""time""
""fullscreenenter"",""1"",""5948""
","
","
","""event"",""trial"",""time""
""fullscreenenter"",""1"",""5948""
","
","","","","","","null","<div style=""font-size:60px;"">+</div>","null","","fixation","","","","","","","","","","","","","",""
"learning-trial","211","859340","0.0-9.0-2.0-1.62","1722","2","2","""event"",""trial"",""time""
""fullscreenenter"",""1"",""5948""
","
","
","""event"",""trial"",""time""
""fullscreenenter"",""1"",""5948""
","
","","","","","","1320.7999999523163","images/truck4.png","","","learning","images/vehicles_choice3.png","images/vehicles_choice1.png","images/vehicles_choice2.png","[2,0,1]","2","0","1","images/vehicles_choice3.png","-1","vehicles","","truck","2","0"
"html-keyboard-response","212","859843","0.0-9.0-2.0-0.63","1722","2","2","""event"",""trial"",""time""
""fullscreenenter"",""1"",""5948""
","
","
","""event"",""trial"",""time""
""fullscreenenter"",""1"",""5948""
","
","","","","","","null","<div style=""font-size:60px;"">+</div>","null","","fixation","","","","","","","","","","","","","",""
"learning-trial","213","863850","0.0-9.0-2.0-1.63","1722","2","2","""event"",""trial"",""time""
""fullscreenenter"",""1"",""5948""
","
","
","""event"",""trial"",""time""
""fullscreenenter"",""1"",""5948""
","
","","","","","","1258.5","images/plane5.png","","","learning","images/vehicles_choice1.png","images/vehicles_choice3.png","images/vehicles_choice2.png","[0,2,1]","1","2","1","images/vehicles_choice1.png","-1","vehicles","","plane","2","0"
"html-keyboard-response","214","864353","0.0-9.0-2.0-0.64","1722","2","2","""event"",""trial"",""time""
""fullscreenenter"",""1"",""5948""
","
","
","""event"",""trial"",""time""
""fullscreenenter"",""1"",""5948""
","
","","","","","","null","<div style=""font-size:60px;"">+</div>","null","","fixation","","","","","","","","","","","","","",""
"learning-trial","215","868360","0.0-9.0-2.0-1.64","1722","2","2","""event"",""trial"",""time""
""fullscreenenter"",""1"",""5948""
","
","
","""event"",""trial"",""time""
""fullscreenenter"",""1"",""5948""
","
","","","","","","1627.9000000953674","images/plane4.png","","","learning","images/vehicles_choice3.png","images/vehicles_choice2.png","images/vehicles_choice1.png","[2,1,0]","0","2","2","images/vehicles_choice2.png","-1","vehicles","","plane","2","0"
"html-keyboard-response","216","868863","0.0-9.0-2.0-0.65","1722","2","2","""event"",""trial"",""time""
""fullscreenenter"",""1"",""5948""
","
","
","""event"",""trial"",""time""
""fullscreenenter"",""1"",""5948""
","
","","","","","","null","<div style=""font-size:60px;"">+</div>","null","","fixation","","","","","","","","","","","","","",""
"learning-trial","217","872870","0.0-9.0-2.0-1.65","1722","2","2","""event"",""trial"",""time""
""fullscreenenter"",""1"",""5948""
","
","
","""event"",""trial"",""time""
""fullscreenenter"",""1"",""5948""
","
","","","","","","1664.3000000715256","images/train4.png","","","learning","images/vehicles_choice1.png","images/vehicles_choice3.png","images/vehicles_choice2.png","[0,2,1]","1","2","1","images/vehicles_choice1.png","-1","vehicles","","train","2","0"
"html-keyboard-response","218","873373","0.0-9.0-2.0-0.66","1722","2","2","""event"",""trial"",""time""
""fullscreenenter"",""1"",""5948""
","
","
","""event"",""trial"",""time""
""fullscreenenter"",""1"",""5948""
","
","","","","","","null","<div style=""font-size:60px;"">+</div>","null","","fixation","","","","","","","","","","","","","",""
"learning-trial","219","877381","0.0-9.0-2.0-1.66","1722","2","2","""event"",""trial"",""time""
""fullscreenenter"",""1"",""5948""
","
","
","""event"",""trial"",""time""
""fullscreenenter"",""1"",""5948""
","
","","","","","","2239.899999976158","images/truck5.png","","","learning","images/vehicles_choice1.png","images/vehicles_choice3.png","images/vehicles_choice2.png","[0,2,1]","1","2","3","images/vehicles_choice2.png","1","vehicles","","truck","2","0"
"html-keyboard-response","220","877883","0.0-9.0-2.0-0.67","1722","2","2","""event"",""trial"",""time""
""fullscreenenter"",""1"",""5948""
","
","
","""event"",""trial"",""time""
""fullscreenenter"",""1"",""5948""
","
","","","","","","null","<div style=""font-size:60px;"">+</div>","null","","fixation","","","","","","","","","","","","","",""
"learning-trial","221","881891","0.0-9.0-2.0-1.67","1722","2","2","""event"",""trial"",""time""
""fullscreenenter"",""1"",""5948""
","
","
","""event"",""trial"",""time""
""fullscreenenter"",""1"",""5948""
","
","","","","","","1131.5","images/truck2.png","","","learning","images/vehicles_choice1.png","images/vehicles_choice2.png","images/vehicles_choice3.png","[0,1,2]","0","0","1","images/vehicles_choice1.png","-1","vehicles","","truck","2","0"
"html-keyboard-response","222","882393","0.0-9.0-2.0-0.68","1722","2","2","""event"",""trial"",""time""
""fullscreenenter"",""1"",""5948""
","
","
","""event"",""trial"",""time""
""fullscreenenter"",""1"",""5948""
","
","","","","","","null","<div style=""font-size:60px;"">+</div>","null","","fixation","","","","","","","","","","","","","",""
"learning-trial","223","886401","0.0-9.0-2.0-1.68","1722","2","2","""event"",""trial"",""time""
""fullscreenenter"",""1"",""5948""
","
","
","""event"",""trial"",""time""
""fullscreenenter"",""1"",""5948""
","
","","","","","","1269.8999999761581","images/train2.png","","","learning","images/vehicles_choice2.png","images/vehicles_choice3.png","images/vehicles_choice1.png","[1,2,0]","0","2","3","images/vehicles_choice1.png","1","vehicles","","train","2","0"
"html-keyboard-response","224","886903","0.0-9.0-2.0-0.69","1722","2","2","""event"",""trial"",""time""
""fullscreenenter"",""1"",""5948""
","
","
","""event"",""trial"",""time""
""fullscreenenter"",""1"",""5948""
","
","","","","","","null","<div style=""font-size:60px;"">+</div>","null","","fixation","","","","","","","","","","","","","",""
"learning-trial","225","890911","0.0-9.0-2.0-1.69","1722","2","2","""event"",""trial"",""time""
""fullscreenenter"",""1"",""5948""
","
","
","""event"",""trial"",""time""
""fullscreenenter"",""1"",""5948""
","
","","","","","","1592.6999999284744","images/truck2.png","","","learning","images/vehicles_choice3.png","images/vehicles_choice1.png","images/vehicles_choice2.png","[2,0,1]","0","1","1","images/vehicles_choice3.png","-1","vehicles","","truck","2","0"
"html-keyboard-response","226","891413","0.0-9.0-2.0-0.70","1722","2","2","""event"",""trial"",""time""
""fullscreenenter"",""1"",""5948""
","
","
","""event"",""trial"",""time""
""fullscreenenter"",""1"",""5948""
","
","","","","","","null","<div style=""font-size:60px;"">+</div>","null","","fixation","","","","","","","","","","","","","",""
"learning-trial","227","895421","0.0-9.0-2.0-1.70","1722","2","2","""event"",""trial"",""time""
""fullscreenenter"",""1"",""5948""
","
","
","""event"",""trial"",""time""
""fullscreenenter"",""1"",""5948""
","
","","","","","","1598","images/plane3.png","","","learning","images/vehicles_choice1.png","images/vehicles_choice2.png","images/vehicles_choice3.png","[0,1,2]","2","2","1","images/vehicles_choice1.png","-1","vehicles","","plane","2","0"
"html-keyboard-response","228","895924","0.0-9.0-2.0-0.71","1722","2","2","""event"",""trial"",""time""
""fullscreenenter"",""1"",""5948""
","
","
","""event"",""trial"",""time""
""fullscreenenter"",""1"",""5948""
","
","","","","","","null","<div style=""font-size:60px;"">+</div>","null","","fixation","","","","","","","","","","","","","",""
"learning-trial","229","899931","0.0-9.0-2.0-1.71","1722","2","2","""event"",""trial"",""time""
""fullscreenenter"",""1"",""5948""
","
","
","""event"",""trial"",""time""
""fullscreenenter"",""1"",""5948""
","
","","","","","","2550.0999999046326","images/truck5.png","","","learning","images/vehicles_choice3.png","images/vehicles_choice2.png","images/vehicles_choice1.png","[2,1,0]","1","1","2","images/vehicles_choice2.png","-1","vehicles","","truck","2","0"
"html-button-response","230","911934","0.0-9.0-3.0","1722","2","2","""event"",""trial"",""time""
""fullscreenenter"",""1"",""5948""
","
","
","""event"",""trial"",""time""
""fullscreenenter"",""1"",""5948""
","
","","","","","","11997.100000023842","<p> You have completed the round! <p> In this round, you earned 2 points! </p>","0","","break","","","","","","","","","","","","","",""
"html-button-response","231","916087","0.0-10.0","1722","2","2","""event"",""trial"",""time""
""fullscreenenter"",""1"",""5948""
","
","
","""event"",""trial"",""time""
""fullscreenenter"",""1"",""5948""
","
","","","","","","4146.099999904633","<p> Now it's time to play another round. </p>","0","","transition_screen","","","","","","","","","","","","","",""
"preload","232","917749","0.0-11.0-0.0","1722","2","2","""event"",""trial"",""time""
""fullscreenenter"",""1"",""5948""
","
","
","""event"",""trial"",""time""
""fullscreenenter"",""1"",""5948""
","
","true","false","[]","[]","[]","","","","","","","","","","","","","","","","","","",""
"learning-instructions","233","932217","0.0-11.0-1.0-0.0","1722","2","2","""event"",""trial"",""time""
""fullscreenenter"",""1"",""5948""
","
","
","""event"",""trial"",""time""
""fullscreenenter"",""1"",""5948""
","
","","","","","","7019.699999928474","<p> Your goal in this round is to grow a beautiful garden by watering plants. </p><p> You will need to water many different plants. </p></div>","","0","instructions","","","","","","","","","","","","","",""
"learning-instructions","234","948858","0.0-11.0-1.0-0.1","1722","2","2","""event"",""trial"",""time""
""fullscreenenter"",""1"",""5948""
","
","
","""event"",""trial"",""time""
""fullscreenenter"",""1"",""5948""
","
","","","","","","3361.8000000715256","<p> On each turn, you will see a picture of one of your plants and three different watering cans.  </p><p> Each watering can has a different mixture of water and fertilizer.  </p><p> You need to select which watering can to use for each plant. </p>","","0","instructions","","","","","","","","","","","","","",""
"learning-instructions","235","959160","0.0-11.0-1.0-0.2","1722","2","2","""event"",""trial"",""time""
""fullscreenenter"",""1"",""5948""
","
","
","""event"",""trial"",""time""
""fullscreenenter"",""1"",""5948""
","
