"trial_type","trial_index","time_elapsed","internal_node_id","subject_id","condition","task_version","interactions","blur_events","focus_events","fullscreenenter_events","fullscreenexit_events","success","timeout","failed_images","failed_audio","failed_video","rt","stimulus","response","button_pressed","task_part","left_choice","middle_choice","right_choice","choice_positions","correct_response","correct_position","key_press","option_selected","points","task_block","correct","stim_cat","block_condition","block_number"
"pavlovia","0","3","0.0-0.0","1528","1","2","""event"",""trial"",""time""
""fullscreenenter"",""1"",""3294""
","
","
","""event"",""trial"",""time""
""fullscreenenter"",""1"",""3294""
","
","","","","","","","","","","","","","","","","","","","","","","","",""
"fullscreen","1","4265","0.0-1.0","1528","1","2","""event"",""trial"",""time""
""fullscreenenter"",""1"",""3294""
","
","
","""event"",""trial"",""time""
""fullscreenenter"",""1"",""3294""
","
","true","","","","","","","","","","","","","","","","","","","","","","",""
"preload","2","15975","0.0-2.0","1528","1","2","""event"",""trial"",""time""
""fullscreenenter"",""1"",""3294""
","
","
","""event"",""trial"",""time""
""fullscreenenter"",""1"",""3294""
","
","true","false","[]","[]","[]","","","","","","","","","","","","","","","","","","",""
"audio-keyboard-response","3","17371","0.0-3.0","1528","1","2","""event"",""trial"",""time""
""fullscreenenter"",""1"",""3294""
","
","
","""event"",""trial"",""time""
""fullscreenenter"",""1"",""3294""
","
","","","","","","1381.333333333334","audio/beep_loop.wav","audiovolumedown","","","","","","","","","","","","","","","",""
"audio-button-response","4","19354","0.0-4.0","1528","1","2","""event"",""trial"",""time""
""fullscreenenter"",""1"",""3294""
","
","
","""event"",""trial"",""time""
""fullscreenenter"",""1"",""3294""
","
","","","","","","1981","audio/shark.wav","4","","","","","","","","","","","","","","","",""
"audio-button-response","5","21821","0.0-5.0","1528","1","2","""event"",""trial"",""time""
""fullscreenenter"",""1"",""3294""
","
","
","""event"",""trial"",""time""
""fullscreenenter"",""1"",""3294""
","
","","","","","","1440","audio/turtle.wav","1","","","","","","","","","","","","","","","",""
"preload","6","29196","0.0-6.0","1528","1","2","""event"",""trial"",""time""
""fullscreenenter"",""1"",""3294""
","
","
","""event"",""trial"",""time""
""fullscreenenter"",""1"",""3294""
","
","true","false","[]","[]","[]","","","","","","","","","","","","","","","","","","",""
"html-keyboard-response","7","32620","0.0-7.0","1528","1","2","""event"",""trial"",""time""
""fullscreenenter"",""1"",""3294""
","
","
","""event"",""trial"",""time""
""fullscreenenter"",""1"",""3294""
","
","","","","","","3423.100000023842","Welcome to the experiment. Press any key to begin and to advance the instructions."," ","","","","","","","","","","","","","","","",""
"learning-instructions","8","43971","0.0-8.0-0.0-0.0","1528","1","2","""event"",""trial"",""time""
""fullscreenenter"",""1"",""3294""
","
","
","""event"",""trial"",""time""
""fullscreenenter"",""1"",""3294""
","
","","","","","","3597.399999976158","<p> Welcome! Today you are going to play 6 different rounds of a decision-making game. </p><p> Use the mouse to click next to continue. </p>","","0","instructions","","","","","","","","","","","","","",""
"learning-instructions","9","47333","0.0-8.0-0.0-0.1","1528","1","2","""event"",""trial"",""time""
""fullscreenenter"",""1"",""3294""
","
","
","""event"",""trial"",""time""
""fullscreenenter"",""1"",""3294""
","
","","","","","","351.10000002384186","<p> You will start with a practice round to learn the rules. </p>","","0","instructions","","","","","","","","","","","","","",""
"learning-instructions","10","58941","0.0-8.0-0.0-0.2","1528","1","2","""event"",""trial"",""time""
""fullscreenenter"",""1"",""3294""
","
","
","""event"",""trial"",""time""
""fullscreenenter"",""1"",""3294""
","
","","","","","","3865.5","<p> Your goal in this round is to deliver sports equipment to three different parks. </p><p> You will need to deliver many types of equipment. </p></div>","","0","instructions","","","","","","","","","","","","","",""
"learning-instructions","11","68280","0.0-8.0-0.0-0.3","1528","1","2","""event"",""trial"",""time""
""fullscreenenter"",""1"",""3294""
","
","
","""event"",""trial"",""time""
""fullscreenenter"",""1"",""3294""
","
","","","","","","844.1000000238419","<p> On each turn, you will see one piece of sports equipment and three different parks.  </p><p> You need to select which park to deliver the equipment to.  </p>","","0","instructions","","","","","","","","","","","","","",""
"learning-instructions","12","85717","0.0-8.0-0.0-0.4","1528","1","2","""event"",""trial"",""time""
""fullscreenenter"",""1"",""3294""
","
","
","""event"",""trial"",""time""
""fullscreenenter"",""1"",""3294""
","
","","","","","","4140.099999904633","<p> You can select the park on the left by pressing the '1' key on your keyboard. <br>You can select the park in the middle by pressing the '2' key on your keyboard. <br>You can select the park on the right by pressing the '3' key on your keyboard.  </p><br><div class=""choice-instructions-grid""> <div class=""choice-option""><img src=""images/park1.png"" class=""choice-option-img"" stage=""instructions"" position=""0"" ><div class=""choice-option-text""> Press ""1."" </div></div><div class=""choice-option""><img src=""images/park2.png"" class=""choice-option-img"" stage=""instructions"" position=""1"" ><div class=""choice-option-text""> Press ""2."" </div></div><div class=""choice-option""><img src=""images/park3.png"" class=""choice-option-img"" stage=""instructions"" position=""2"" ><div class=""choice-option-text""> Press ""3."" </div></div></div>","","0","instructions","","","","","","","","","","","","","",""
"learning-instructions","13","92175","0.0-8.0-0.0-0.5","1528","1","2","""event"",""trial"",""time""
""fullscreenenter"",""1"",""3294""
","
","
","""event"",""trial"",""time""
""fullscreenenter"",""1"",""3294""
","
","","","","","","1069.0999999046326","<p> If the kids in the park you chose like the equipment, they will be very happy! </p><div style='float: center;'><img src='images/check.png' width = '200' height = '200'></img>","","0","instructions","","","","","","","","","","","","","",""
"learning-instructions","14","98842","0.0-8.0-0.0-0.6","1528","1","2","""event"",""trial"",""time""
""fullscreenenter"",""1"",""3294""
","
","
","""event"",""trial"",""time""
""fullscreenenter"",""1"",""3294""
","
","","","","","","1076","<p> But, if the kids in the park you chose do not like the equipment, they will be sad. </p><div style='float: center;'><img src='images/x.png' width = '200' height = '200'></img>","","0","instructions","","","","","","","","","","","","","",""
"learning-instructions","15","106037","0.0-8.0-0.0-0.7","1528","1","2","""event"",""trial"",""time""
""fullscreenenter"",""1"",""3294""
","
","
","""event"",""trial"",""time""
""fullscreenenter"",""1"",""3294""
","
","","","","","","761","<p> Importantly, the kids in each park like some pieces of sports equipment more than others. </p>","","0","instructions","","","","","","","","","","","","","",""
"learning-instructions","16","112672","0.0-8.0-0.0-0.8","1528","1","2","""event"",""trial"",""time""
""fullscreenenter"",""1"",""3294""
","
","
","""event"",""trial"",""time""
""fullscreenenter"",""1"",""3294""
","
","","","","","","576","<p> If you choose the best park for each piece of equipment, the kids there will usually be happy. </p>","","0","instructions","","","","","","","","","","","","","",""
"learning-instructions","17","119986","0.0-8.0-0.0-0.9","1528","1","2","""event"",""trial"",""time""
""fullscreenenter"",""1"",""3294""
","
","
","""event"",""trial"",""time""
""fullscreenenter"",""1"",""3294""
","
","","","","","","654","<p> However, even if you choose the best park for the equipment, the kids may sometimes be sad. </p>","","0","instructions","","","","","","","","","","","","","",""
"learning-instructions","18","127921","0.0-8.0-0.0-0.10","1528","1","2","""event"",""trial"",""time""
""fullscreenenter"",""1"",""3294""
","
","
","""event"",""trial"",""time""
""fullscreenenter"",""1"",""3294""
","
","","","","","","689.1000000238419","<p> Similarly, even if you choose the <i>wrong</i> park for the equipment, the kids may still be happy sometimes.","","0","instructions","","","","","","","","","","","","","",""
"learning-instructions","19","133800","0.0-8.0-0.0-0.11","1528","1","2","""event"",""trial"",""time""
""fullscreenenter"",""1"",""3294""
","
","
","""event"",""trial"",""time""
""fullscreenenter"",""1"",""3294""
","
","","","","","","817","<p> For example, the best park for this soccer ball is this one.<div style='float: center;'><img src='images/i1.png' width = '500' height = '268'></img>","","0","instructions","","","","","","","","","","","","","",""
"learning-instructions","20","139659","0.0-8.0-0.0-0.12","1528","1","2","""event"",""trial"",""time""
""fullscreenenter"",""1"",""3294""
","
","
","""event"",""trial"",""time""
""fullscreenenter"",""1"",""3294""
","
","","","","","","556.8999999761581","<p> Let's see what happens if you choose this park for the soccer ball five times.","","0","instructions","","","","","","","","","","","","","",""
"learning-instructions","21","142513","0.0-8.0-0.0-0.13","1528","1","2","""event"",""trial"",""time""
""fullscreenenter"",""1"",""3294""
","
","
","""event"",""trial"",""time""
""fullscreenenter"",""1"",""3294""
","
","","","","","","680.5999999046326","<p> The kids are happy.<div style='float: left;'><img src='images/i2.png' width = '640' height = '360'></img>","","0","instructions","","","","","","","","","","","","","",""
"learning-instructions","22","145590","0.0-8.0-0.0-0.14","1528","1","2","""event"",""trial"",""time""
""fullscreenenter"",""1"",""3294""
","
","
","""event"",""trial"",""time""
""fullscreenenter"",""1"",""3294""
","
","","","","","","887.7000000476837","<p> The kids are happy.<div style='float: left;'><img src='images/i3.png' width = '640' height = '360'></img>","","0","instructions","","","","","","","","","","","","","",""
"learning-instructions","23","148886","0.0-8.0-0.0-0.15","1528","1","2","""event"",""trial"",""time""
""fullscreenenter"",""1"",""3294""
","
","
","""event"",""trial"",""time""
""fullscreenenter"",""1"",""3294""
","
","","","","","","1121.8999999761581","<p> The kids are happy.<div style='float: left;'><img src='images/i4.png' width = '640' height = '360'></img>","","0","instructions","","","","","","","","","","","","","",""
"learning-instructions","24","151681","0.0-8.0-0.0-0.16","1528","1","2","""event"",""trial"",""time""
""fullscreenenter"",""1"",""3294""
","
","
","""event"",""trial"",""time""
""fullscreenenter"",""1"",""3294""
","
","","","","","","577.7999999523163","<p> The kids are sad.<div style='float: left;'><img src='images/i5.png' width = '640' height = '360'></img>","","0","instructions","","","","","","","","","","","","","",""
"learning-instructions","25","155308","0.0-8.0-0.0-0.17","1528","1","2","""event"",""trial"",""time""
""fullscreenenter"",""1"",""3294""
","
","
","""event"",""trial"",""time""
""fullscreenenter"",""1"",""3294""
","
","","","","","","1445.3000000715256","<p> The kids are happy.<div style='float: left;'><img src='images/i6.png' width = '640' height = '360'></img>","","0","instructions","","","","","","","","","","","","","",""
"learning-instructions","26","163050","0.0-8.0-0.0-0.18","1528","1","2","""event"",""trial"",""time""
""fullscreenenter"",""1"",""3294""
","
","
","""event"",""trial"",""time""
""fullscreenenter"",""1"",""3294""
","
","","","","","","467.5","<p> As you can see, selecting that park for the soccer ball made the kids happy most of the time, but not all the time.","","0","instructions","","","","","","","","","","","","","",""
"learning-instructions","27","169501","0.0-8.0-0.0-0.19","1528","1","2","""event"",""trial"",""time""
""fullscreenenter"",""1"",""3294""
","
","
","""event"",""trial"",""time""
""fullscreenenter"",""1"",""3294""
","
","","","","","","449.2999999523163","<p> Now let's see what happens if you choose a DIFFERENT park for the soccer ball 5 times.","","0","instructions","","","","","","","","","","","","","",""
"learning-instructions","28","172437","0.0-8.0-0.0-0.20","1528","1","2","""event"",""trial"",""time""
""fullscreenenter"",""1"",""3294""
","
","
","""event"",""trial"",""time""
""fullscreenenter"",""1"",""3294""
","
","","","","","","724.7999999523163","<p> The kids are sad.<div style='float: left;'><img src='images/i7.png' width = '640' height = '360'></img>","","0","instructions","","","","","","","","","","","","","",""
"learning-instructions","29","175331","0.0-8.0-0.0-0.21","1528","1","2","""event"",""trial"",""time""
""fullscreenenter"",""1"",""3294""
","
","
","""event"",""trial"",""time""
""fullscreenenter"",""1"",""3294""
","
","","","","","","688.6999999284744","<p> The kids are sad.<div style='float: left;'><img src='images/i8.png' width = '640' height = '360'></img>","","0","instructions","","","","","","","","","","","","","",""
"learning-instructions","30","178099","0.0-8.0-0.0-0.22","1528","1","2","""event"",""trial"",""time""
""fullscreenenter"",""1"",""3294""
","
","
","""event"",""trial"",""time""
""fullscreenenter"",""1"",""3294""
","
","","","","","","586.5","<p> The kids are happy.<div style='float: left;'><img src='images/i9.png' width = '640' height = '360'></img>","","0","instructions","","","","","","","","","","","","","",""
"learning-instructions","31","181040","0.0-8.0-0.0-0.23","1528","1","2","""event"",""trial"",""time""
""fullscreenenter"",""1"",""3294""
","
","
","""event"",""trial"",""time""
""fullscreenenter"",""1"",""3294""
","
","","","","","","728.6000000238419","<p> The kids are sad.<div style='float: left;'><img src='images/i10.png' width = '640' height = '360'></img>","","0","instructions","","","","","","","","","","","","","",""
"learning-instructions","32","184256","0.0-8.0-0.0-0.24","1528","1","2","""event"",""trial"",""time""
""fullscreenenter"",""1"",""3294""
","
","
","""event"",""trial"",""time""
""fullscreenenter"",""1"",""3294""
","
","","","","","","994.6999999284744","<p> The kids are sad.<div style='float: left;'><img src='images/i11.png' width = '640' height = '360'></img>","","0","instructions","","","","","","","","","","","","","",""
"learning-instructions","33","192982","0.0-8.0-0.0-0.25","1528","1","2","""event"",""trial"",""time""
""fullscreenenter"",""1"",""3294""
","
","
","""event"",""trial"",""time""
""fullscreenenter"",""1"",""3294""
","
","","","","","","601","<p> As you can see, selecting the wrong park for the soccer ball made the kids sad most of the time, but not all the time.","","0","instructions","","","","","","","","","","","","","",""
"learning-instructions","34","202531","0.0-8.0-0.0-0.26","1528","1","2","""event"",""trial"",""time""
""fullscreenenter"",""1"",""3294""
","
","
","""event"",""trial"",""time""
""fullscreenenter"",""1"",""3294""
","
","","","","","","430","<p> The different pieces of equipment belong in different parks. You need to try to learn which is the best park for each piece of equipment.","","0","instructions","","","","","","","","","","","","","",""
"learning-instructions","35","219504","0.0-8.0-0.0-0.27","1528","1","2","""event"",""trial"",""time""
""fullscreenenter"",""1"",""3294""
","
","
","""event"",""trial"",""time""
""fullscreenenter"",""1"",""3294""
","
","","","","","","583.1999999284744","<p> Try to choose the best park for each piece of equipment, because you will <b> WIN </b> 1 point for each time you make the kids happy and <b>LOSE</b> 1 point for each time you make them sad. </p><p> Remember, if you make the best choice, you will win 1 point most of the time, but not all the time. </p>","","0","instructions","","","","","","","","","","","","","",""
"learning-instructions","36","225493","0.0-8.0-0.0-0.28","1528","1","2","""event"",""trial"",""time""
""fullscreenenter"",""1"",""3294""
","
","
","""event"",""trial"",""time""
""fullscreenenter"",""1"",""3294""
","
","","","","","","492.3000000715256","<p> This is just a practice round, but in the real game, your bonus payment will depend on your total number of points.","","0","instructions","","","","","","","","","","","","","",""
"learning-instructions","37","236260","0.0-8.0-0.0-0.29","1528","1","2","""event"",""trial"",""time""
""fullscreenenter"",""1"",""3294""
","
","
","""event"",""trial"",""time""
""fullscreenenter"",""1"",""3294""
","
","","","","","","439.89999997615814","<p> The position where each park appears will change throughout the game. </p><p> The position where the park appears <i> does not </i> influence how likely the kids are to be happy or sad. </p>","","0","instructions","","","","","","","","","","","","","",""
"learning-instructions","38","249390","0.0-8.0-0.0-0.30","1528","1","2","""event"",""trial"",""time""
""fullscreenenter"",""1"",""3294""
","
","
","""event"",""trial"",""time""
""fullscreenenter"",""1"",""3294""
","
","","","","","","701.3999999761581","<p> You will have 4 seconds to make each choice. Try to respond before time runs out! </p><p> You will lose 1 point each time you do not make a response. </p>","","0","instructions","","","","","","","","","","","","","",""
"learning-instructions","39","257272","0.0-8.0-0.0-0.31","1528","1","2","""event"",""trial"",""time""
""fullscreenenter"",""1"",""3294""
","
","
","""event"",""trial"",""time""
""fullscreenenter"",""1"",""3294""
","
","","","","","","1083.1999999284744","<p> Remember, you should use the 1, 2, and 3 keys to select the park for each piece of equipment. </p><br><div class=""choice-instructions-grid""> <div class=""choice-option""><img src=""images/park1.png"" class=""choice-option-img"" stage=""instructions"" position=""0"" ><div class=""choice-option-text""> Press ""1."" </div></div><div class=""choice-option""><img src=""images/park2.png"" class=""choice-option-img"" stage=""instructions"" position=""1"" ><div class=""choice-option-text""> Press ""2."" </div></div><div class=""choice-option""><img src=""images/park3.png"" class=""choice-option-img"" stage=""instructions"" position=""2"" ><div class=""choice-option-text""> Press ""3."" </div></div></div>","","0","instructions","","","","","","","","","","","","","",""
"html-button-response","40","259101","0.0-8.0-1.0","1528","1","2","""event"",""trial"",""time""
""fullscreenenter"",""1"",""3294""
","
","
","""event"",""trial"",""time""
""fullscreenenter"",""1"",""3294""
","
","","","","","","1711.6999999284744","<p> Ready to practice? </p>","0","","","","","","","","","","","","","","","",""
"html-keyboard-response","41","259728","0.0-8.0-2.0-0.0","1528","1","2","""event"",""trial"",""time""
""fullscreenenter"",""1"",""3294""
","
","
","""event"",""trial"",""time""
""fullscreenenter"",""1"",""3294""
","
","","","","","","null","<div style=""font-size:60px;"">+</div>","null","","fixation","","","","","","","","","","","","","",""
"learning-trial","42","263748","0.0-8.0-2.0-1.0","1528","1","2","""event"",""trial"",""time""
""fullscreenenter"",""1"",""3294""
","
","
","""event"",""trial"",""time""
""fullscreenenter"",""1"",""3294""
","
","","","","","","3086.8000000715256","images/racket2.png","","","practice","images/park2.png","images/park1.png","images/park3.png","[1,0,2]","2","2","1","images/park2.png","-1","practice","","","",""
"html-keyboard-response","43","264267","0.0-8.0-2.0-0.1","1528","1","2","""event"",""trial"",""time""
""fullscreenenter"",""1"",""3294""
","
","
","""event"",""trial"",""time""
""fullscreenenter"",""1"",""3294""
","
","","","","","","null","<div style=""font-size:60px;"">+</div>","null","","fixation","","","","","","","","","","","","","",""
"learning-trial","44","268286","0.0-8.0-2.0-1.1","1528","1","2","""event"",""trial"",""time""
""fullscreenenter"",""1"",""3294""
","
","
","""event"",""trial"",""time""
""fullscreenenter"",""1"",""3294""
","
","","","","","","1884.1000000238419","images/ball1.png","","","practice","images/park1.png","images/park3.png","images/park2.png","[0,2,1]","2","1","2","images/park3.png","-1","practice","","","",""
"html-keyboard-response","45","268807","0.0-8.0-2.0-0.2","1528","1","2","""event"",""trial"",""time""
""fullscreenenter"",""1"",""3294""
","
","
","""event"",""trial"",""time""
""fullscreenenter"",""1"",""3294""
","
","","","","","","null","<div style=""font-size:60px;"">+</div>","null","","fixation","","","","","","","","","","","","","",""
"learning-trial","46","272818","0.0-8.0-2.0-1.2","1528","1","2","""event"",""trial"",""time""
""fullscreenenter"",""1"",""3294""
","
","
","""event"",""trial"",""time""
""fullscreenenter"",""1"",""3294""
","
","","","","","","2659.3000000715256","images/racket2.png","","","practice","images/park3.png","images/park1.png","images/park2.png","[2,0,1]","2","0","2","images/park1.png","1","practice","","","",""
"html-keyboard-response","47","273334","0.0-8.0-2.0-0.3","1528","1","2","""event"",""trial"",""time""
""fullscreenenter"",""1"",""3294""
","
","
","""event"",""trial"",""time""
""fullscreenenter"",""1"",""3294""
","
","","","","","","null","<div style=""font-size:60px;"">+</div>","null","","fixation","","","","","","","","","","","","","",""
"learning-trial","48","277358","0.0-8.0-2.0-1.3","1528","1","2","""event"",""trial"",""time""
""fullscreenenter"",""1"",""3294""
","
","
","""event"",""trial"",""time""
""fullscreenenter"",""1"",""3294""
","
","","","","","","2751.600000023842","images/racket4.png","","","practice","images/park3.png","images/park1.png","images/park2.png","[2,0,1]","1","2","3","images/park2.png","1","practice","","","",""
"html-keyboard-response","49","277867","0.0-8.0-2.0-0.4","1528","1","2","""event"",""trial"",""time""
""fullscreenenter"",""1"",""3294""
","
","
","""event"",""trial"",""time""
""fullscreenenter"",""1"",""3294""
","
","","","","","","null","<div style=""font-size:60px;"">+</div>","null","","fixation","","","","","","","","","","","","","",""
"learning-trial","50","281881","0.0-8.0-2.0-1.4","1528","1","2","""event"",""trial"",""time""
""fullscreenenter"",""1"",""3294""
","
","
","""event"",""trial"",""time""
""fullscreenenter"",""1"",""3294""
","
","","","","","","2169.100000023842","images/racket1.png","","","practice","images/park3.png","images/park1.png","images/park2.png","[2,0,1]","0","1","2","images/park1.png","1","practice","","","",""
"html-keyboard-response","51","282387","0.0-8.0-2.0-0.5","1528","1","2","""event"",""trial"",""time""
""fullscreenenter"",""1"",""3294""
","
","
","""event"",""trial"",""time""
""fullscreenenter"",""1"",""3294""
","
","","","","","","null","<div style=""font-size:60px;"">+</div>","null","","fixation","","","","","","","","","","","","","",""
"learning-trial","52","286396","0.0-8.0-2.0-1.5","1528","1","2","""event"",""trial"",""time""
""fullscreenenter"",""1"",""3294""
","
","
","""event"",""trial"",""time""
""fullscreenenter"",""1"",""3294""
","
","","","","","","1651.8000000715256","images/racket1.png","","","practice","images/park2.png","images/park3.png","images/park1.png","[1,2,0]","0","2","3","images/park1.png","1","practice","","","",""
"html-keyboard-response","53","286898","0.0-8.0-2.0-0.6","1528","1","2","""event"",""trial"",""time""
""fullscreenenter"",""1"",""3294""
","
","
","""event"",""trial"",""time""
""fullscreenenter"",""1"",""3294""
","
","","","","","","null","<div style=""font-size:60px;"">+</div>","null","","fixation","","","","","","","","","","","","","",""
"learning-trial","54","290917","0.0-8.0-2.0-1.6","1528","1","2","""event"",""trial"",""time""
""fullscreenenter"",""1"",""3294""
","
","
","""event"",""trial"",""time""
""fullscreenenter"",""1"",""3294""
","
","","","","","","2959","images/racket3.png","","","practice","images/park3.png","images/park2.png","images/park1.png","[2,1,0]","0","2","1","images/park3.png","1","practice","","","",""
"html-keyboard-response","55","291419","0.0-8.0-2.0-0.7","1528","1","2","""event"",""trial"",""time""
""fullscreenenter"",""1"",""3294""
","
","
","""event"",""trial"",""time""
""fullscreenenter"",""1"",""3294""
","
","","","","","","null","<div style=""font-size:60px;"">+</div>","null","","fixation","","","","","","","","","","","","","",""
"learning-trial","56","295425","0.0-8.0-2.0-1.7","1528","1","2","""event"",""trial"",""time""
""fullscreenenter"",""1"",""3294""
","
","
","""event"",""trial"",""time""
""fullscreenenter"",""1"",""3294""
","
","","","","","","2173.9000000953674","images/ball3.png","","","practice","images/park3.png","images/park2.png","images/park1.png","[2,1,0]","1","1","2","images/park2.png","1","practice","","","",""
"html-keyboard-response","57","295938","0.0-8.0-2.0-0.8","1528","1","2","""event"",""trial"",""time""
""fullscreenenter"",""1"",""3294""
","
","
","""event"",""trial"",""time""
""fullscreenenter"",""1"",""3294""
","
","","","","","","null","<div style=""font-size:60px;"">+</div>","null","","fixation","","","","","","","","","","","","","",""
"learning-trial","58","299950","0.0-8.0-2.0-1.8","1528","1","2","""event"",""trial"",""time""
""fullscreenenter"",""1"",""3294""
","
","
","""event"",""trial"",""time""
""fullscreenenter"",""1"",""3294""
","
","","","","","","1869.5999999046326","images/ball3.png","","","practice","images/park3.png","images/park2.png","images/park1.png","[2,1,0]","1","1","2","images/park2.png","1","practice","","","",""
"html-keyboard-response","59","300457","0.0-8.0-2.0-0.9","1528","1","2","""event"",""trial"",""time""
""fullscreenenter"",""1"",""3294""
","
","
","""event"",""trial"",""time""
""fullscreenenter"",""1"",""3294""
","
","","","","","","null","<div style=""font-size:60px;"">+</div>","null","","fixation","","","","","","","","","","","","","",""
"learning-trial","60","304473","0.0-8.0-2.0-1.9","1528","1","2","""event"",""trial"",""time""
""fullscreenenter"",""1"",""3294""
","
","
","""event"",""trial"",""time""
""fullscreenenter"",""1"",""3294""
","
","","","","","","2395.7000000476837","images/racket3.png","","","practice","images/park1.png","images/park2.png","images/park3.png","[0,1,2]","0","0","3","images/park3.png","-1","practice","","","",""
"html-keyboard-response","61","304974","0.0-8.0-2.0-0.10","1528","1","2","""event"",""trial"",""time""
""fullscreenenter"",""1"",""3294""
","
","
","""event"",""trial"",""time""
""fullscreenenter"",""1"",""3294""
","
","","","","","","null","<div style=""font-size:60px;"">+</div>","null","","fixation","","","","","","","","","","","","","",""
"learning-trial","62","308984","0.0-8.0-2.0-1.10","1528","1","2","""event"",""trial"",""time""
""fullscreenenter"",""1"",""3294""
","
","
","""event"",""trial"",""time""
""fullscreenenter"",""1"",""3294""
","
","","","","","","1995.3999999761581","images/ball1.png","","","practice","images/park1.png","images/park3.png","images/park2.png","[0,2,1]","2","1","2","images/park3.png","1","practice","","","",""
"html-keyboard-response","63","309496","0.0-8.0-2.0-0.11","1528","1","2","""event"",""trial"",""time""
""fullscreenenter"",""1"",""3294""
","
","
","""event"",""trial"",""time""
""fullscreenenter"",""1"",""3294""
","
","","","","","","null","<div style=""font-size:60px;"">+</div>","null","","fixation","","","","","","","","","","","","","",""
"learning-trial","64","313504","0.0-8.0-2.0-1.11","1528","1","2","""event"",""trial"",""time""
""fullscreenenter"",""1"",""3294""
","
","
","""event"",""trial"",""time""
""fullscreenenter"",""1"",""3294""
","
","","","","","","1629.7000000476837","images/racket4.png","","","practice","images/park1.png","images/park2.png","images/park3.png","[0,1,2]","1","1","1","images/park1.png","-1","practice","","","",""
"html-button-response","65","315254","0.0-8.0-3.0","1528","1","2","""event"",""trial"",""time""
""fullscreenenter"",""1"",""3294""
","
","
","""event"",""trial"",""time""
""fullscreenenter"",""1"",""3294""
","
","","","","","","1747.1000000238419","<p> You earned 4 points in the practice round! </p>","0","","break","","","","","","","","","","","","","",""
"learning-instructions","66","324303","0.0-8.0-4.0-0.0","1528","1","2","""event"",""trial"",""time""
""fullscreenenter"",""1"",""3294""
","
","
","""event"",""trial"",""time""
""fullscreenenter"",""1"",""3294""
","
","","","","","","910.1999999284744","<p> It's almost time to start the real game. </p><p> Before you start, we're going to ask you a few questions about how the game works. </p>","","0","instructions","","","","","","","","","","","","","",""
"preload","67","327788","0.0-8.0-5.0","1528","1","2","""event"",""trial"",""time""
""fullscreenenter"",""1"",""3294""
","
","
","""event"",""trial"",""time""
""fullscreenenter"",""1"",""3294""
","
","true","false","[]","[]","[]","","","","","","","","","","","","","","","","","","",""
"comp-q","68","334718","0.0-8.0-6.0-0.0","1528","1","2","""event"",""trial"",""time""
""fullscreenenter"",""1"",""3294""
","
","
","""event"",""trial"",""time""
""fullscreenenter"",""1"",""3294""
","
","","","","","","1484.2000000476837","<p> <b> True or False? </b> </p><p> If you choose the best option, you will always earn 1 point. </p>","","1","comp_question","","","","","","","","","","","true","","",""
"comp-q","69","341566","0.0-8.0-6.0-1.0","1528","1","2","""event"",""trial"",""time""
""fullscreenenter"",""1"",""3294""
","
","
","""event"",""trial"",""time""
""fullscreenenter"",""1"",""3294""
","
","","","","","","1172.6999999284744","<p><b> That's right! </b> Sometimes you will lose 1 point, even if you choose the best option. </p>","","0","comp_answer","","","","","","","","","","","","","",""
"comp-q","70","347003","0.0-8.0-6.0-0.1","1528","1","2","""event"",""trial"",""time""
""fullscreenenter"",""1"",""3294""
","
","
","""event"",""trial"",""time""
""fullscreenenter"",""1"",""3294""
","
","","","","","","800.3999999761581","<p> <b> True or False? </b> </p><p> You will have as much time as you want to make each choice. </p>","","1","comp_question","","","","","","","","","","","true","","",""
"comp-q","71","359122","0.0-8.0-6.0-1.1","1528","1","2","""event"",""trial"",""time""
""fullscreenenter"",""1"",""3294""
","
","
","""event"",""trial"",""time""
""fullscreenenter"",""1"",""3294""
","
","","","","","","7289","<p> <b> That's right! </b> You will only have 4 seconds to make each choice. </p>","","0","comp_answer","","","","","","","","","","","","","",""
"comp-q","72","366526","0.0-8.0-6.0-0.2","1528","1","2","""event"",""trial"",""time""
""fullscreenenter"",""1"",""3294""
","
","
","""event"",""trial"",""time""
""fullscreenenter"",""1"",""3294""
","
","","","","","","1242","<p> <b> True or False? </b> </p><p> You should use the '1', '2', and '3' keys to make your choices. </p>","","0","comp_question","","","","","","","","","","","true","","",""
"comp-q","73","372270","0.0-8.0-6.0-1.2","1528","1","2","""event"",""trial"",""time""
""fullscreenenter"",""1"",""3294""
","
","
","""event"",""trial"",""time""
""fullscreenenter"",""1"",""3294""
","
","","","","","","890.5","<p> <b> That's right! </b> You should use the '1', '2', and '3' keys to make each choice. </p>","","0","comp_answer","","","","","","","","","","","","","",""
"learning-instructions","74","381972","0.0-8.0-7.0-0.0","1528","1","2","""event"",""trial"",""time""
""fullscreenenter"",""1"",""3294""
","
","
","""event"",""trial"",""time""
""fullscreenenter"",""1"",""3294""
","
","","","","","","1202.9000000953674","<p> It's now time to start the real game. </p>Do your best, because the points you earn in the next rounds will influence your bonus payment. </p>","","0","instructions","","","","","","","","","","","","","",""
"preload","75","388080","0.0-9.0-0.0","1528","1","2","""event"",""trial"",""time""
""fullscreenenter"",""1"",""3294""
","
","
","""event"",""trial"",""time""
""fullscreenenter"",""1"",""3294""
","
","true","false","[]","[]","[]","","","","","","","","","","","","","","","","","","",""
"learning-instructions","76","395369","0.0-9.0-1.0-0.0","1528","1","2","""event"",""trial"",""time""
""fullscreenenter"",""1"",""3294""
","
","
","""event"",""trial"",""time""
""fullscreenenter"",""1"",""3294""
","
","","","","","","448.6999999284744","<p> Your goal in this round is to grow a beautiful garden by watering plants. </p><p> You will need to water many different plants. </p></div>","","0","instructions","","","","","","","","","","","","","",""
"learning-instructions","77","409204","0.0-9.0-1.0-0.1","1528","1","2","""event"",""trial"",""time""
""fullscreenenter"",""1"",""3294""
","
","
","""event"",""trial"",""time""
""fullscreenenter"",""1"",""3294""
","
","","","","","","534.1000000238419","<p> On each turn, you will see a picture of one of your plants and three different watering cans.  </p><p> Each watering can has a different mixture of water and fertilizer.  </p><p> You need to select which watering can to use for each plant. </p>","","0","instructions","","","","","","","","","","","","","",""
"learning-instructions","78","417425","0.0-9.0-1.0-0.2","1528","1","2","""event"",""trial"",""time""
""fullscreenenter"",""1"",""3294""
","
","
","""event"",""trial"",""time""
""fullscreenenter"",""1"",""3294""
","
","","","","","","464.6999999284744","<p> You can select the watering can on the left by pressing 1, the watering can in the middle by pressing 2, and the watering can on the right by pressing 3. </p><br><div class=""choice-instructions-grid""> <div class=""choice-option""><img src=""images/plants_choice1.png"" class=""choice-option-img"" stage=""instructions"" position=""0"" ><div class=""choice-option-text""> Press ""1."" </div></div><div class=""choice-option""><img src=""images/plants_choice2.png"" class=""choice-option-img"" stage=""instructions"" position=""1"" ><div class=""choice-option-text""> Press ""2."" </div></div><div class=""choice-option""><img src=""images/plants_choice3.png"" class=""choice-option-img"" stage=""instructions"" position=""2"" ><div class=""choice-option-text""> Press ""3."" </div></div></div>","","0","instructions","","","","","","","","","","","","","",""
"learning-instructions","79","423170","0.0-9.0-1.0-0.3","1528","1","2","""event"",""trial"",""time""
""fullscreenenter"",""1"",""3294""
","
","
","""event"",""trial"",""time""
""fullscreenenter"",""1"",""3294""
","
","","","","","","1570.5","<p> If the watering can you chose works for the plant, it will grow! </p><div style='float: center;'><img src='images/check.png' width = '200' height = '200'></img>","","0","instructions","","","","","","","","","","","","","",""
"learning-instructions","80","428608","0.0-9.0-1.0-0.4","1528","1","2","""event"",""trial"",""time""
""fullscreenenter"",""1"",""3294""
","
","
","""event"",""trial"",""time""
""fullscreenenter"",""1"",""3294""
","
","","","","","","628.5","<p> But, if the watering can you chose does not work, your plant will droop. </p><div style='float: center;'><img src='images/x.png' width = '200' height = '200'></img>","","0","instructions","","","","","","","","","","","","","",""
"learning-instructions","81","440482","0.0-9.0-1.0-0.5","1528","1","2","""event"",""trial"",""time""
""fullscreenenter"",""1"",""3294""
","
","
","""event"",""trial"",""time""
""fullscreenenter"",""1"",""3294""
","
","","","","","","1793.2000000476837","<p> Importantly, each plant has one fertilizer mixture that works best for it. </p><p> If you choose the watering can with the right fertilizer, the plant will be more likely to grow. </p>","","0","instructions","","","","","","","","","","","","","",""
"learning-instructions","82","452092","0.0-9.0-1.0-0.6","1528","1","2","""event"",""trial"",""time""
""fullscreenenter"",""1"",""3294""
","
","
","""event"",""trial"",""time""
""fullscreenenter"",""1"",""3294""
","
","","","","","","1272.6000000238419","<p> However, even if you choose the best watering can for the plant, the plant may still droop. </p><p> Similarly, even if you choose the <i>wrong</i> watering can, the plant may still grow.","","0","instructions","","","","","","","","","","","","","",""
"learning-instructions","83","465132","0.0-9.0-1.0-0.7","1528","1","2","""event"",""trial"",""time""
""fullscreenenter"",""1"",""3294""
","
","
","""event"",""trial"",""time""
""fullscreenenter"",""1"",""3294""
","
","","","","","","1163.2999999523163","<p> Try to choose the best watering can for each plant, because you will <b> WIN </b> 1 point each time a plant grows and <b>LOSE</b>  1 point each time a plant droops. </p><p> Your bonus payment will depend on your total number of points.","","0","instructions","","","","","","","","","","","","","",""
"learning-instructions","84","473669","0.0-9.0-1.0-0.8","1528","1","2","""event"",""trial"",""time""
""fullscreenenter"",""1"",""3294""
","
","
","""event"",""trial"",""time""
""fullscreenenter"",""1"",""3294""
","
","","","","","","530.2999999523163","<p> The position of each watering can will change throughout the round. </p><p> The watering can's position <i> does not </i> influence how likely each plant is to droop or grow. </p>","","0","instructions","","","","","","","","","","","","","",""
"learning-instructions","85","484132","0.0-9.0-1.0-0.9","1528","1","2","""event"",""trial"",""time""
""fullscreenenter"",""1"",""3294""
","
","
","""event"",""trial"",""time""
""fullscreenenter"",""1"",""3294""
","
","","","","","","1163.2000000476837","<p> You will have 4 seconds to make each choice. Try to respond before time runs out! </p><p> You will lose 1 point each time you do not make a response. </p>","","0","instructions","","","","","","","","","","","","","",""
"html-keyboard-response","86","484756","0.0-9.0-2.0-0.0","1528","1","2","""event"",""trial"",""time""
""fullscreenenter"",""1"",""3294""
","
","
","""event"",""trial"",""time""
""fullscreenenter"",""1"",""3294""
","
","","","","","","null","<div style=""font-size:60px;"">+</div>","null","","fixation","","","","","","","","","","","","","",""
"learning-trial","87","488777","0.0-9.0-2.0-1.0","1528","1","2","""event"",""trial"",""time""
""fullscreenenter"",""1"",""3294""
","
","
","""event"",""trial"",""time""
""fullscreenenter"",""1"",""3294""
","
","","","","","","1223.7999999523163","images/cactus3.png","","","learning","images/plants_choice1.png","images/plants_choice3.png","images/plants_choice2.png","[0,2,1]","1","2","2","images/plants_choice3.png","-1","plants","","cactus","1","0"
"html-keyboard-response","88","489297","0.0-9.0-2.0-0.1","1528","1","2","""event"",""trial"",""time""
""fullscreenenter"",""1"",""3294""
","
","
","""event"",""trial"",""time""
""fullscreenenter"",""1"",""3294""
","
","","","","","","null","<div style=""font-size:60px;"">+</div>","null","","fixation","","","","","","","","","","","","","",""
"learning-trial","89","493307","0.0-9.0-2.0-1.1","1528","1","2","""event"",""trial"",""time""
""fullscreenenter"",""1"",""3294""
","
","
","""event"",""trial"",""time""
""fullscreenenter"",""1"",""3294""
","
","","","","","","1066.5","images/bush2.png","","","learning","images/plants_choice3.png","images/plants_choice2.png","images/plants_choice1.png","[2,1,0]","2","0","3","images/plants_choice1.png","-1","plants","","bush","1","0"
"html-keyboard-response","90","493817","0.0-9.0-2.0-0.2","1528","1","2","""event"",""trial"",""time""
""fullscreenenter"",""1"",""3294""
","
","
","""event"",""trial"",""time""
""fullscreenenter"",""1"",""3294""
","
","","","","","","null","<div style=""font-size:60px;"">+</div>","null","","fixation","","","","","","","","","","","","","",""
"learning-trial","91","497837","0.0-9.0-2.0-1.2","1528","1","2","""event"",""trial"",""time""
""fullscreenenter"",""1"",""3294""
","
","
","""event"",""trial"",""time""
""fullscreenenter"",""1"",""3294""
","
","","","","","","1094.3999999761581","images/bush4.png","","","learning","images/plants_choice1.png","images/plants_choice3.png","images/plants_choice2.png","[0,2,1]","2","1","1","images/plants_choice1.png","-1","plants","","bush","1","0"
"html-keyboard-response","92","498356","0.0-9.0-2.0-0.3","1528","1","2","""event"",""trial"",""time""
""fullscreenenter"",""1"",""3294""
","
","
","""event"",""trial"",""time""
""fullscreenenter"",""1"",""3294""
","
","","","","","","null","<div style=""font-size:60px;"">+</div>","null","","fixation","","","","","","","","","","","","","",""
"learning-trial","93","502366","0.0-9.0-2.0-1.3","1528","1","2","""event"",""trial"",""time""
""fullscreenenter"",""1"",""3294""
","
","
","""event"",""trial"",""time""
""fullscreenenter"",""1"",""3294""
","
","","","","","","1344.6999999284744","images/tree3.png","","","learning","images/plants_choice2.png","images/plants_choice1.png","images/plants_choice3.png","[1,0,2]","0","1","2","images/plants_choice1.png","1","plants","","tree","1","0"
"html-keyboard-response","94","502885","0.0-9.0-2.0-0.4","1528","1","2","""event"",""trial"",""time""
""fullscreenenter"",""1"",""3294""
","
","
","""event"",""trial"",""time""
""fullscreenenter"",""1"",""3294""
","
","","","","","","null","<div style=""font-size:60px;"">+</div>","null","","fixation","","","","","","","","","","","","","",""
"learning-trial","95","506899","0.0-9.0-2.0-1.4","1528","1","2","""event"",""trial"",""time""
""fullscreenenter"",""1"",""3294""
","
","
","""event"",""trial"",""time""
""fullscreenenter"",""1"",""3294""
","
","","","","","","1106","images/tree3.png","","","learning","images/plants_choice3.png","images/plants_choice1.png","images/plants_choice2.png","[2,0,1]","0","1","2","images/plants_choice1.png","1","plants","","tree","1","0"
"html-keyboard-response","96","507415","0.0-9.0-2.0-0.5","1528","1","2","""event"",""trial"",""time""
""fullscreenenter"",""1"",""3294""
","
","
","""event"",""trial"",""time""
""fullscreenenter"",""1"",""3294""
","
","","","","","","null","<div style=""font-size:60px;"">+</div>","null","","fixation","","","","","","","","","","","","","",""
"learning-trial","97","511436","0.0-9.0-2.0-1.5","1528","1","2","""event"",""trial"",""time""
""fullscreenenter"",""1"",""3294""
","
","
","""event"",""trial"",""time""
""fullscreenenter"",""1"",""3294""
","
","","","","","","913.9000000953674","images/bush4.png","","","learning","images/plants_choice3.png","images/plants_choice1.png","images/plants_choice2.png","[2,0,1]","2","0","3","images/plants_choice2.png","-1","plants","","bush","1","0"
"html-keyboard-response","98","511946","0.0-9.0-2.0-0.6","1528","1","2","""event"",""trial"",""time""
""fullscreenenter"",""1"",""3294""
","
","
","""event"",""trial"",""time""
""fullscreenenter"",""1"",""3294""
","
","","","","","","null","<div style=""font-size:60px;"">+</div>","null","","fixation","","","","","","","","","","","","","",""
"learning-trial","99","515957","0.0-9.0-2.0-1.6","1528","1","2","""event"",""trial"",""time""
""fullscreenenter"",""1"",""3294""
","
","
","""event"",""trial"",""time""
""fullscreenenter"",""1"",""3294""
","
","","","","","","1172.2000000476837","images/tree3.png","","","learning","images/plants_choice2.png","images/plants_choice3.png","images/plants_choice1.png","[1,2,0]","0","2","3","images/plants_choice1.png","1","plants","","tree","1","0"
"html-keyboard-response","100","516459","0.0-9.0-2.0-0.7","1528","1","2","""event"",""trial"",""time""
""fullscreenenter"",""1"",""3294""
","
","
","""event"",""trial"",""time""
""fullscreenenter"",""1"",""3294""
","
","","","","","","null","<div style=""font-size:60px;"">+</div>","null","","fixation","","","","","","","","","","","","","",""
"learning-trial","101","520469","0.0-9.0-2.0-1.7","1528","1","2","""event"",""trial"",""time""
""fullscreenenter"",""1"",""3294""
","
","
","""event"",""trial"",""time""
""fullscreenenter"",""1"",""3294""
","
","","","","","","1086.2000000476837","images/cactus2.png","","","learning","images/plants_choice1.png","images/plants_choice3.png","images/plants_choice2.png","[0,2,1]","1","2","3","images/plants_choice2.png","1","plants","","cactus","1","0"
"html-keyboard-response","102","520979","0.0-9.0-2.0-0.8","1528","1","2","""event"",""trial"",""time""
""fullscreenenter"",""1"",""3294""
","
","
","""event"",""trial"",""time""
""fullscreenenter"",""1"",""3294""
","
","","","","","","null","<div style=""font-size:60px;"">+</div>","null","","fixation","","","","","","","","","","","","","",""
"learning-trial","103","524986","0.0-9.0-2.0-1.8","1528","1","2","""event"",""trial"",""time""
""fullscreenenter"",""1"",""3294""
","
","
","""event"",""trial"",""time""
""fullscreenenter"",""1"",""3294""
","
","","","","","","1013","images/tree3.png","","","learning","images/plants_choice2.png","images/plants_choice1.png","images/plants_choice3.png","[1,0,2]","0","1","2","images/plants_choice1.png","1","plants","","tree","1","0"
"html-keyboard-response","104","525492","0.0-9.0-2.0-0.9","1528","1","2","""event"",""trial"",""time""
""fullscreenenter"",""1"",""3294""
","
","
","""event"",""trial"",""time""
""fullscreenenter"",""1"",""3294""
","
","","","","","","null","<div style=""font-size:60px;"">+</div>","null","","fixation","","","","","","","","","","","","","",""
"learning-trial","105","529498","0.0-9.0-2.0-1.9","1528","1","2","""event"",""trial"",""time""
""fullscreenenter"",""1"",""3294""
","
","
","""event"",""trial"",""time""
""fullscreenenter"",""1"",""3294""
","
","","","","","","1867.3999999761581","images/cactus5.png","","","learning","images/plants_choice1.png","images/plants_choice3.png","images/plants_choice2.png","[0,2,1]","1","2","3","images/plants_choice2.png","1","plants","","cactus","1","0"
"html-keyboard-response","106","530007","0.0-9.0-2.0-0.10","1528","1","2","""event"",""trial"",""time""
""fullscreenenter"",""1"",""3294""
","
","
","""event"",""trial"",""time""
""fullscreenenter"",""1"",""3294""
","
","","","","","","null","<div style=""font-size:60px;"">+</div>","null","","fixation","","","","","","","","","","","","","",""
"learning-trial","107","534015","0.0-9.0-2.0-1.10","1528","1","2","""event"",""trial"",""time""
""fullscreenenter"",""1"",""3294""
","
","
","""event"",""trial"",""time""
""fullscreenenter"",""1"",""3294""
","
","","","","","","1398.5","images/tree3.png","","","learning","images/plants_choice3.png","images/plants_choice2.png","images/plants_choice1.png","[2,1,0]","0","2","2","images/plants_choice2.png","-1","plants","","tree","1","0"
"html-keyboard-response","108","534517","0.0-9.0-2.0-0.11","1528","1","2","""event"",""trial"",""time""
""fullscreenenter"",""1"",""3294""
","
","
","""event"",""trial"",""time""
""fullscreenenter"",""1"",""3294""
","
","","","","","","null","<div style=""font-size:60px;"">+</div>","null","","fixation","","","","","","","","","","","","","",""
"learning-trial","109","538525","0.0-9.0-2.0-1.11","1528","1","2","""event"",""trial"",""time""
""fullscreenenter"",""1"",""3294""
","
","
","""event"",""trial"",""time""
""fullscreenenter"",""1"",""3294""
","
","","","","","","1120.3000000715256","images/bush4.png","","","learning","images/plants_choice2.png","images/plants_choice3.png","images/plants_choice1.png","[1,2,0]","2","1","2","images/plants_choice3.png","1","plants","","bush","1","0"
"html-keyboard-response","110","539034","0.0-9.0-2.0-0.12","1528","1","2","""event"",""trial"",""time""
""fullscreenenter"",""1"",""3294""
","
","
","""event"",""trial"",""time""
""fullscreenenter"",""1"",""3294""
","
","","","","","","null","<div style=""font-size:60px;"">+</div>","null","","fixation","","","","","","","","","","","","","",""
"learning-trial","111","543044","0.0-9.0-2.0-1.12","1528","1","2","""event"",""trial"",""time""
""fullscreenenter"",""1"",""3294""
","
","
","""event"",""trial"",""time""
""fullscreenenter"",""1"",""3294""
","
","","","","","","1201.8999999761581","images/bush4.png","","","learning","images/plants_choice1.png","images/plants_choice3.png","images/plants_choice2.png","[0,2,1]","2","1","2","images/plants_choice3.png","1","plants","","bush","1","0"
"html-keyboard-response","112","543563","0.0-9.0-2.0-0.13","1528","1","2","""event"",""trial"",""time""
""fullscreenenter"",""1"",""3294""
","
","
","""event"",""trial"",""time""
""fullscreenenter"",""1"",""3294""
","
","","","","","","null","<div style=""font-size:60px;"">+</div>","null","","fixation","","","","","","","","","","","","","",""
"learning-trial","113","547569","0.0-9.0-2.0-1.13","1528","1","2","""event"",""trial"",""time""
""fullscreenenter"",""1"",""3294""
","
","
","""event"",""trial"",""time""
""fullscreenenter"",""1"",""3294""
","
","","","","","","1855.8999999761581","images/cactus3.png","","","learning","images/plants_choice1.png","images/plants_choice2.png","images/plants_choice3.png","[0,1,2]","1","1","2","images/plants_choice2.png","1","plants","","cactus","1","0"
"html-keyboard-response","114","548075","0.0-9.0-2.0-0.14","1528","1","2","""event"",""trial"",""time""
""fullscreenenter"",""1"",""3294""
","
","
","""event"",""trial"",""time""
""fullscreenenter"",""1"",""3294""
","
","","","","","","null","<div style=""font-size:60px;"">+</div>","null","","fixation","","","","","","","","","","","","","",""
"learning-trial","115","552086","0.0-9.0-2.0-1.14","1528","1","2","""event"",""trial"",""time""
""fullscreenenter"",""1"",""3294""
","
","
","""event"",""trial"",""time""
""fullscreenenter"",""1"",""3294""
","
","","","","","","1184.5","images/bush2.png","","","learning","images/plants_choice3.png","images/plants_choice1.png","images/plants_choice2.png","[2,0,1]","2","0","1","images/plants_choice3.png","1","plants","","bush","1","0"
"html-keyboard-response","116","552590","0.0-9.0-2.0-0.15","1528","1","2","""event"",""trial"",""time""
""fullscreenenter"",""1"",""3294""
","
","
","""event"",""trial"",""time""
""fullscreenenter"",""1"",""3294""
","
","","","","","","null","<div style=""font-size:60px;"">+</div>","null","","fixation","","","","","","","","","","","","","",""
"learning-trial","117","556593","0.0-9.0-2.0-1.15","1528","1","2","""event"",""trial"",""time""
""fullscreenenter"",""1"",""3294""
","
","
","""event"",""trial"",""time""
""fullscreenenter"",""1"",""3294""
","
","","","","","","1270.8000000715256","images/bush3.png","","","learning","images/plants_choice3.png","images/plants_choice1.png","images/plants_choice2.png","[2,0,1]","2","0","3","images/plants_choice2.png","-1","plants","","bush","1","0"
"html-keyboard-response","118","557102","0.0-9.0-2.0-0.16","1528","1","2","""event"",""trial"",""time""
""fullscreenenter"",""1"",""3294""
","
","
","""event"",""trial"",""time""
""fullscreenenter"",""1"",""3294""
","
","","","","","","null","<div style=""font-size:60px;"">+</div>","null","","fixation","","","","","","","","","","","","","",""
"learning-trial","119","561105","0.0-9.0-2.0-1.16","1528","1","2","""event"",""trial"",""time""
""fullscreenenter"",""1"",""3294""
","
","
","""event"",""trial"",""time""
""fullscreenenter"",""1"",""3294""
","
","","","","","","1045.1999999284744","images/bush3.png","","","learning","images/plants_choice3.png","images/plants_choice1.png","images/plants_choice2.png","[2,0,1]","2","0","1","images/plants_choice3.png","1","plants","","bush","1","0"
"html-keyboard-response","120","561610","0.0-9.0-2.0-0.17","1528","1","2","""event"",""trial"",""time""
""fullscreenenter"",""1"",""3294""
","
","
","""event"",""trial"",""time""
""fullscreenenter"",""1"",""3294""
","
","","","","","","null","<div style=""font-size:60px;"">+</div>","null","","fixation","","","","","","","","","","","","","",""
"learning-trial","121","565622","0.0-9.0-2.0-1.17","1528","1","2","""event"",""trial"",""time""
""fullscreenenter"",""1"",""3294""
","
","
","""event"",""trial"",""time""
""fullscreenenter"",""1"",""3294""
","
","","","","","","1243.2999999523163","images/tree4.png","","","learning","images/plants_choice1.png","images/plants_choice2.png","images/plants_choice3.png","[0,1,2]","0","0","1","images/plants_choice1.png","1","plants","","tree","1","0"
"html-keyboard-response","122","566129","0.0-9.0-2.0-0.18","1528","1","2","""event"",""trial"",""time""
""fullscreenenter"",""1"",""3294""
","
","
","""event"",""trial"",""time""
""fullscreenenter"",""1"",""3294""
","
","","","","","","null","<div style=""font-size:60px;"">+</div>","null","","fixation","","","","","","","","","","","","","",""
"learning-trial","123","570139","0.0-9.0-2.0-1.18","1528","1","2","""event"",""trial"",""time""
""fullscreenenter"",""1"",""3294""
","
","
","""event"",""trial"",""time""
""fullscreenenter"",""1"",""3294""
","
","","","","","","1339.4000000953674","images/bush2.png","","","learning","images/plants_choice1.png","images/plants_choice2.png","images/plants_choice3.png","[0,1,2]","2","2","3","images/plants_choice3.png","1","plants","","bush","1","0"
"html-keyboard-response","124","570643","0.0-9.0-2.0-0.19","1528","1","2","""event"",""trial"",""time""
""fullscreenenter"",""1"",""3294""
","
","
","""event"",""trial"",""time""
""fullscreenenter"",""1"",""3294""
","
","","","","","","null","<div style=""font-size:60px;"">+</div>","null","","fixation","","","","","","","","","","","","","",""
"learning-trial","125","574647","0.0-9.0-2.0-1.19","1528","1","2","""event"",""trial"",""time""
""fullscreenenter"",""1"",""3294""
","
","
","""event"",""trial"",""time""
""fullscreenenter"",""1"",""3294""
","
","","","","","","1266.3999999761581","images/cactus3.png","","","learning","images/plants_choice1.png","images/plants_choice3.png","images/plants_choice2.png","[0,2,1]","1","2","3","images/plants_choice2.png","1","plants","","cactus","1","0"
"html-keyboard-response","126","575151","0.0-9.0-2.0-0.20","1528","1","2","""event"",""trial"",""time""
""fullscreenenter"",""1"",""3294""
","
","
","""event"",""trial"",""time""
""fullscreenenter"",""1"",""3294""
","
","","","","","","null","<div style=""font-size:60px;"">+</div>","null","","fixation","","","","","","","","","","","","","",""
"learning-trial","127","579157","0.0-9.0-2.0-1.20","1528","1","2","""event"",""trial"",""time""
""fullscreenenter"",""1"",""3294""
","
","
","""event"",""trial"",""time""
""fullscreenenter"",""1"",""3294""
","
","","","","","","1412.7999999523163","images/cactus3.png","","","learning","images/plants_choice3.png","images/plants_choice2.png","images/plants_choice1.png","[2,1,0]","1","1","2","images/plants_choice2.png","1","plants","","cactus","1","0"
"html-keyboard-response","128","579666","0.0-9.0-2.0-0.21","1528","1","2","""event"",""trial"",""time""
""fullscreenenter"",""1"",""3294""
","
","
","""event"",""trial"",""time""
""fullscreenenter"",""1"",""3294""
","
","","","","","","null","<div style=""font-size:60px;"">+</div>","null","","fixation","","","","","","","","","","","","","",""
"learning-trial","129","583670","0.0-9.0-2.0-1.21","1528","1","2","""event"",""trial"",""time""
""fullscreenenter"",""1"",""3294""
","
","
","""event"",""trial"",""time""
""fullscreenenter"",""1"",""3294""
","
","","","","","","1049.4000000953674","images/tree2.png","","","learning","images/plants_choice3.png","images/plants_choice2.png","images/plants_choice1.png","[2,1,0]","0","2","3","images/plants_choice1.png","1","plants","","tree","1","0"
"html-keyboard-response","130","584181","0.0-9.0-2.0-0.22","1528","1","2","""event"",""trial"",""time""
""fullscreenenter"",""1"",""3294""
","
","
","""event"",""trial"",""time""
""fullscreenenter"",""1"",""3294""
","
","","","","","","null","<div style=""font-size:60px;"">+</div>","null","","fixation","","","","","","","","","","","","","",""
"learning-trial","131","588188","0.0-9.0-2.0-1.22","1528","1","2","""event"",""trial"",""time""
""fullscreenenter"",""1"",""3294""
","
","
","""event"",""trial"",""time""
""fullscreenenter"",""1"",""3294""
","
","","","","","","1168.9000000953674","images/bush2.png","","","learning","images/plants_choice1.png","images/plants_choice3.png","images/plants_choice2.png","[0,2,1]","2","1","2","images/plants_choice3.png","1","plants","","bush","1","0"
"html-keyboard-response","132","588697","0.0-9.0-2.0-0.23","1528","1","2","""event"",""trial"",""time""
""fullscreenenter"",""1"",""3294""
","
","
","""event"",""trial"",""time""
""fullscreenenter"",""1"",""3294""
","
","","","","","","null","<div style=""font-size:60px;"">+</div>","null","","fixation","","","","","","","","","","","","","",""
"learning-trial","133","592704","0.0-9.0-2.0-1.23","1528","1","2","""event"",""trial"",""time""
""fullscreenenter"",""1"",""3294""
","
","
","""event"",""trial"",""time""
""fullscreenenter"",""1"",""3294""
","
","","","","","","1082.5","images/tree3.png","","","learning","images/plants_choice3.png","images/plants_choice2.png","images/plants_choice1.png","[2,1,0]","0","2","3","images/plants_choice1.png","-1","plants","","tree","1","0"
"html-keyboard-response","134","593211","0.0-9.0-2.0-0.24","1528","1","2","""event"",""trial"",""time""
""fullscreenenter"",""1"",""3294""
","
","
","""event"",""trial"",""time""
""fullscreenenter"",""1"",""3294""
","
","","","","","","null","<div style=""font-size:60px;"">+</div>","null","","fixation","","","","","","","","","","","","","",""
"learning-trial","135","597221","0.0-9.0-2.0-1.24","1528","1","2","""event"",""trial"",""time""
""fullscreenenter"",""1"",""3294""
","
","
","""event"",""trial"",""time""
""fullscreenenter"",""1"",""3294""
","
","","","","","","1001.2999999523163","images/cactus5.png","","","learning","images/plants_choice2.png","images/plants_choice1.png","images/plants_choice3.png","[1,0,2]","1","0","1","images/plants_choice2.png","1","plants","","cactus","1","0"
"html-keyboard-response","136","597727","0.0-9.0-2.0-0.25","1528","1","2","""event"",""trial"",""time""
""fullscreenenter"",""1"",""3294""
","
","
","""event"",""trial"",""time""
""fullscreenenter"",""1"",""3294""
","
","","","","","","null","<div style=""font-size:60px;"">+</div>","null","","fixation","","","","","","","","","","","","","",""
"learning-trial","137","601737","0.0-9.0-2.0-1.25","1528","1","2","""event"",""trial"",""time""
""fullscreenenter"",""1"",""3294""
","
","
","""event"",""trial"",""time""
""fullscreenenter"",""1"",""3294""
","
","","","","","","943.6000000238419","images/tree2.png","","","learning","images/plants_choice3.png","images/plants_choice2.png","images/plants_choice1.png","[2,1,0]","0","2","3","images/plants_choice1.png","1","plants","","tree","1","0"
"html-keyboard-response","138","602247","0.0-9.0-2.0-0.26","1528","1","2","""event"",""trial"",""time""
""fullscreenenter"",""1"",""3294""
","
","
","""event"",""trial"",""time""
""fullscreenenter"",""1"",""3294""
","
","","","","","","null","<div style=""font-size:60px;"">+</div>","null","","fixation","","","","","","","","","","","","","",""
"learning-trial","139","606258","0.0-9.0-2.0-1.26","1528","1","2","""event"",""trial"",""time""
""fullscreenenter"",""1"",""3294""
","
","
","""event"",""trial"",""time""
""fullscreenenter"",""1"",""3294""
","
","","","","","","2008.7000000476837","images/cactus5.png","","","learning","images/plants_choice2.png","images/plants_choice3.png","images/plants_choice1.png","[1,2,0]","1","0","2","images/plants_choice3.png","-1","plants","","cactus","1","0"
"html-keyboard-response","140","606760","0.0-9.0-2.0-0.27","1528","1","2","""event"",""trial"",""time""
""fullscreenenter"",""1"",""3294""
","
","
","""event"",""trial"",""time""
""fullscreenenter"",""1"",""3294""
","
","","","","","","null","<div style=""font-size:60px;"">+</div>","null","","fixation","","","","","","","","","","","","","",""
"learning-trial","141","610769","0.0-9.0-2.0-1.27","1528","1","2","""event"",""trial"",""time""
""fullscreenenter"",""1"",""3294""
","
","
","""event"",""trial"",""time""
""fullscreenenter"",""1"",""3294""
","
","","","","","","1531.7999999523163","images/bush2.png","","","learning","images/plants_choice2.png","images/plants_choice3.png","images/plants_choice1.png","[1,2,0]","2","1","2","images/plants_choice3.png","1","plants","","bush","1","0"
"html-keyboard-response","142","611280","0.0-9.0-2.0-0.28","1528","1","2","""event"",""trial"",""time""
""fullscreenenter"",""1"",""3294""
","
","
","""event"",""trial"",""time""
""fullscreenenter"",""1"",""3294""
","
","","","","","","null","<div style=""font-size:60px;"">+</div>","null","","fixation","","","","","","","","","","","","","",""
"learning-trial","143","615287","0.0-9.0-2.0-1.28","1528","1","2","""event"",""trial"",""time""
""fullscreenenter"",""1"",""3294""
","
","
","""event"",""trial"",""time""
""fullscreenenter"",""1"",""3294""
","
","","","","","","863.2000000476837","images/cactus2.png","","","learning","images/plants_choice2.png","images/plants_choice3.png","images/plants_choice1.png","[1,2,0]","1","0","1","images/plants_choice2.png","1","plants","","cactus","1","0"
"html-keyboard-response","144","615794","0.0-9.0-2.0-0.29","1528","1","2","""event"",""trial"",""time""
""fullscreenenter"",""1"",""3294""
","
","
","""event"",""trial"",""time""
""fullscreenenter"",""1"",""3294""
","
","","","","","","null","<div style=""font-size:60px;"">+</div>","null","","fixation","","","","","","","","","","","","","",""
"learning-trial","145","619799","0.0-9.0-2.0-1.29","1528","1","2","""event"",""trial"",""time""
""fullscreenenter"",""1"",""3294""
","
","
","""event"",""trial"",""time""
""fullscreenenter"",""1"",""3294""
","
","","","","","","1032.4000000953674","images/tree2.png","","","learning","images/plants_choice1.png","images/plants_choice3.png","images/plants_choice2.png","[0,2,1]","0","0","1","images/plants_choice1.png","1","plants","","tree","1","0"
"html-keyboard-response","146","620306","0.0-9.0-2.0-0.30","1528","1","2","""event"",""trial"",""time""
""fullscreenenter"",""1"",""3294""
","
","
","""event"",""trial"",""time""
""fullscreenenter"",""1"",""3294""
","
","","","","","","null","<div style=""font-size:60px;"">+</div>","null","","fixation","","","","","","","","","","","","","",""
"learning-trial","147","624314","0.0-9.0-2.0-1.30","1528","1","2","""event"",""trial"",""time""
""fullscreenenter"",""1"",""3294""
","
","
","""event"",""trial"",""time""
""fullscreenenter"",""1"",""3294""
","
","","","","","","1275.2000000476837","images/bush3.png","","","learning","images/plants_choice3.png","images/plants_choice2.png","images/plants_choice1.png","[2,1,0]","2","0","1","images/plants_choice3.png","1","plants","","bush","1","0"
"html-keyboard-response","148","624830","0.0-9.0-2.0-0.31","1528","1","2","""event"",""trial"",""time""
""fullscreenenter"",""1"",""3294""
","
","
","""event"",""trial"",""time""
""fullscreenenter"",""1"",""3294""
","
","","","","","","null","<div style=""font-size:60px;"">+</div>","null","","fixation","","","","","","","","","","","","","",""
"learning-trial","149","628837","0.0-9.0-2.0-1.31","1528","1","2","""event"",""trial"",""time""
""fullscreenenter"",""1"",""3294""
","
","
","""event"",""trial"",""time""
""fullscreenenter"",""1"",""3294""
","
","","","","","","950.3999999761581","images/tree4.png","","","learning","images/plants_choice3.png","images/plants_choice1.png","images/plants_choice2.png","[2,0,1]","0","1","2","images/plants_choice1.png","1","plants","","tree","1","0"
"html-keyboard-response","150","629345","0.0-9.0-2.0-0.32","1528","1","2","""event"",""trial"",""time""
""fullscreenenter"",""1"",""3294""
","
","
","""event"",""trial"",""time""
""fullscreenenter"",""1"",""3294""
","
","","","","","","null","<div style=""font-size:60px;"">+</div>","null","","fixation","","","","","","","","","","","","","",""
"learning-trial","151","633350","0.0-9.0-2.0-1.32","1528","1","2","""event"",""trial"",""time""
""fullscreenenter"",""1"",""3294""
","
","
","""event"",""trial"",""time""
""fullscreenenter"",""1"",""3294""
","
","","","","","","823","images/cactus2.png","","","learning","images/plants_choice2.png","images/plants_choice3.png","images/plants_choice1.png","[1,2,0]","1","0","1","images/plants_choice2.png","1","plants","","cactus","1","0"
"html-keyboard-response","152","633860","0.0-9.0-2.0-0.33","1528","1","2","""event"",""trial"",""time""
""fullscreenenter"",""1"",""3294""
","
","
","""event"",""trial"",""time""
""fullscreenenter"",""1"",""3294""
","
","","","","","","null","<div style=""font-size:60px;"">+</div>","null","","fixation","","","","","","","","","","","","","",""
"learning-trial","153","637869","0.0-9.0-2.0-1.33","1528","1","2","""event"",""trial"",""time""
""fullscreenenter"",""1"",""3294""
","
","
","""event"",""trial"",""time""
""fullscreenenter"",""1"",""3294""
","
","","","","","","1148","images/bush4.png","","","learning","images/plants_choice2.png","images/plants_choice1.png","images/plants_choice3.png","[1,0,2]","2","2","3","images/plants_choice3.png","1","plants","","bush","1","0"
"html-keyboard-response","154","638376","0.0-9.0-2.0-0.34","1528","1","2","""event"",""trial"",""time""
""fullscreenenter"",""1"",""3294""
","
","
","""event"",""trial"",""time""
""fullscreenenter"",""1"",""3294""
","
","","","","","","null","<div style=""font-size:60px;"">+</div>","null","","fixation","","","","","","","","","","","","","",""
"learning-trial","155","642387","0.0-9.0-2.0-1.34","1528","1","2","""event"",""trial"",""time""
""fullscreenenter"",""1"",""3294""
","
","
","""event"",""trial"",""time""
""fullscreenenter"",""1"",""3294""
","
","","","","","","1049.5","images/tree4.png","","","learning","images/plants_choice2.png","images/plants_choice1.png","images/plants_choice3.png","[1,0,2]","0","1","2","images/plants_choice1.png","1","plants","","tree","1","0"
"html-keyboard-response","156","642896","0.0-9.0-2.0-0.35","1528","1","2","""event"",""trial"",""time""
""fullscreenenter"",""1"",""3294""
","
","
","""event"",""trial"",""time""
""fullscreenenter"",""1"",""3294""
","
","","","","","","null","<div style=""font-size:60px;"">+</div>","null","","fixation","","","","","","","","","","","","","",""
"learning-trial","157","646901","0.0-9.0-2.0-1.35","1528","1","2","""event"",""trial"",""time""
""fullscreenenter"",""1"",""3294""
","
","
","""event"",""trial"",""time""
""fullscreenenter"",""1"",""3294""
","
","","","","","","909.6999999284744","images/tree3.png","","","learning","images/plants_choice3.png","images/plants_choice2.png","images/plants_choice1.png","[2,1,0]","0","2","3","images/plants_choice1.png","1","plants","","tree","1","0"
"html-keyboard-response","158","647416","0.0-9.0-2.0-0.36","1528","1","2","""event"",""trial"",""time""
""fullscreenenter"",""1"",""3294""
","
","
","""event"",""trial"",""time""
""fullscreenenter"",""1"",""3294""
","
","","","","","","null","<div style=""font-size:60px;"">+</div>","null","","fixation","","","","","","","","","","","","","",""
"learning-trial","159","651421","0.0-9.0-2.0-1.36","1528","1","2","""event"",""trial"",""time""
""fullscreenenter"",""1"",""3294""
","
","
","""event"",""trial"",""time""
""fullscreenenter"",""1"",""3294""
","
","","","","","","1097","images/bush2.png","","","learning","images/plants_choice3.png","images/plants_choice1.png","images/plants_choice2.png","[2,0,1]","2","0","1","images/plants_choice3.png","1","plants","","bush","1","0"
"html-keyboard-response","160","651926","0.0-9.0-2.0-0.37","1528","1","2","""event"",""trial"",""time""
""fullscreenenter"",""1"",""3294""
","
","
","""event"",""trial"",""time""
""fullscreenenter"",""1"",""3294""
","
","","","","","","null","<div style=""font-size:60px;"">+</div>","null","","fixation","","","","","","","","","","","","","",""
"learning-trial","161","655943","0.0-9.0-2.0-1.37","1528","1","2","""event"",""trial"",""time""
""fullscreenenter"",""1"",""3294""
","
","
","""event"",""trial"",""time""
""fullscreenenter"",""1"",""3294""
","
","","","","","","903.6999999284744","images/tree3.png","","","learning","images/plants_choice2.png","images/plants_choice3.png","images/plants_choice1.png","[1,2,0]","0","2","3","images/plants_choice1.png","1","plants","","tree","1","0"
"html-keyboard-response","162","656453","0.0-9.0-2.0-0.38","1528","1","2","""event"",""trial"",""time""
""fullscreenenter"",""1"",""3294""
","
","
","""event"",""trial"",""time""
""fullscreenenter"",""1"",""3294""
","
","","","","","","null","<div style=""font-size:60px;"">+</div>","null","","fixation","","","","","","","","","","","","","",""
"learning-trial","163","660460","0.0-9.0-2.0-1.38","1528","1","2","""event"",""trial"",""time""
""fullscreenenter"",""1"",""3294""
","
","
","""event"",""trial"",""time""
""fullscreenenter"",""1"",""3294""
","
","","","","","","818.3999999761581","images/tree4.png","","","learning","images/plants_choice3.png","images/plants_choice2.png","images/plants_choice1.png","[2,1,0]","0","2","3","images/plants_choice1.png","1","plants","","tree","1","0"
"html-keyboard-response","164","660976","0.0-9.0-2.0-0.39","1528","1","2","""event"",""trial"",""time""
""fullscreenenter"",""1"",""3294""
","
","
","""event"",""trial"",""time""
""fullscreenenter"",""1"",""3294""
","
","","","","","","null","<div style=""font-size:60px;"">+</div>","null","","fixation","","","","","","","","","","","","","",""
"learning-trial","165","664983","0.0-9.0-2.0-1.39","1528","1","2","""event"",""trial"",""time""
""fullscreenenter"",""1"",""3294""
","
","
","""event"",""trial"",""time""
""fullscreenenter"",""1"",""3294""
","
","","","","","","800.7999999523163","images/bush4.png","","","learning","images/plants_choice3.png","images/plants_choice2.png","images/plants_choice1.png","[2,1,0]","2","0","1","images/plants_choice3.png","-1","plants","","bush","1","0"
"html-keyboard-response","166","665486","0.0-9.0-2.0-0.40","1528","1","2","""event"",""trial"",""time""
""fullscreenenter"",""1"",""3294""
","
","
","""event"",""trial"",""time""
""fullscreenenter"",""1"",""3294""
","
","","","","","","null","<div style=""font-size:60px;"">+</div>","null","","fixation","","","","","","","","","","","","","",""
"learning-trial","167","669490","0.0-9.0-2.0-1.40","1528","1","2","""event"",""trial"",""time""
""fullscreenenter"",""1"",""3294""
","
","
","""event"",""trial"",""time""
""fullscreenenter"",""1"",""3294""
","
","","","","","","929.2999999523163","images/tree4.png","","","learning","images/plants_choice1.png","images/plants_choice2.png","images/plants_choice3.png","[0,1,2]","0","0","1","images/plants_choice1.png","1","plants","","tree","1","0"
"html-keyboard-response","168","670000","0.0-9.0-2.0-0.41","1528","1","2","""event"",""trial"",""time""
""fullscreenenter"",""1"",""3294""
","
","
","""event"",""trial"",""time""
""fullscreenenter"",""1"",""3294""
","
","","","","","","null","<div style=""font-size:60px;"">+</div>","null","","fixation","","","","","","","","","","","","","",""
"learning-trial","169","674006","0.0-9.0-2.0-1.41","1528","1","2","""event"",""trial"",""time""
""fullscreenenter"",""1"",""3294""
","
","
","""event"",""trial"",""time""
""fullscreenenter"",""1"",""3294""
","
","","","","","","914.1999999284744","images/cactus5.png","","","learning","images/plants_choice3.png","images/plants_choice1.png","images/plants_choice2.png","[2,0,1]","1","2","3","images/plants_choice2.png","1","plants","","cactus","1","0"
"html-keyboard-response","170","674514","0.0-9.0-2.0-0.42","1528","1","2","""event"",""trial"",""time""
""fullscreenenter"",""1"",""3294""
","
","
","""event"",""trial"",""time""
""fullscreenenter"",""1"",""3294""
","
","","","","","","null","<div style=""font-size:60px;"">+</div>","null","","fixation","","","","","","","","","","","","","",""
"learning-trial","171","678535","0.0-9.0-2.0-1.42","1528","1","2","""event"",""trial"",""time""
""fullscreenenter"",""1"",""3294""
","
","
","""event"",""trial"",""time""
""fullscreenenter"",""1"",""3294""
","
","","","","","","936.8000000715256","images/cactus2.png","","","learning","images/plants_choice2.png","images/plants_choice1.png","images/plants_choice3.png","[1,0,2]","1","0","1","images/plants_choice2.png","1","plants","","cactus","1","0"
"html-keyboard-response","172","679042","0.0-9.0-2.0-0.43","1528","1","2","""event"",""trial"",""time""
""fullscreenenter"",""1"",""3294""
","
","
","""event"",""trial"",""time""
""fullscreenenter"",""1"",""3294""
","
","","","","","","null","<div style=""font-size:60px;"">+</div>","null","","fixation","","","","","","","","","","","","","",""
"learning-trial","173","683054","0.0-9.0-2.0-1.43","1528","1","2","""event"",""trial"",""time""
""fullscreenenter"",""1"",""3294""
","
","
","""event"",""trial"",""time""
""fullscreenenter"",""1"",""3294""
","
","","","","","","1867","images/tree4.png","","","learning","images/plants_choice2.png","images/plants_choice3.png","images/plants_choice1.png","[1,2,0]","0","2","3","images/plants_choice1.png","-1","plants","","tree","1","0"
"html-keyboard-response","174","683565","0.0-9.0-2.0-0.44","1528","1","2","""event"",""trial"",""time""
""fullscreenenter"",""1"",""3294""
","
","
","""event"",""trial"",""time""
""fullscreenenter"",""1"",""3294""
","
","","","","","","null","<div style=""font-size:60px;"">+</div>","null","","fixation","","","","","","","","","","","","","",""
"learning-trial","175","687572","0.0-9.0-2.0-1.44","1528","1","2","""event"",""trial"",""time""
""fullscreenenter"",""1"",""3294""
","
","
","""event"",""trial"",""time""
""fullscreenenter"",""1"",""3294""
","
","","","","","","1013.7000000476837","images/tree2.png","","","learning","images/plants_choice3.png","images/plants_choice1.png","images/plants_choice2.png","[2,0,1]","0","1","2","images/plants_choice1.png","1","plants","","tree","1","0"
"html-keyboard-response","176","688078","0.0-9.0-2.0-0.45","1528","1","2","""event"",""trial"",""time""
""fullscreenenter"",""1"",""3294""
","
","
","""event"",""trial"",""time""
""fullscreenenter"",""1"",""3294""
","
","","","","","","null","<div style=""font-size:60px;"">+</div>","null","","fixation","","","","","","","","","","","","","",""
"learning-trial","177","692083","0.0-9.0-2.0-1.45","1528","1","2","""event"",""trial"",""time""
""fullscreenenter"",""1"",""3294""
","
","
","""event"",""trial"",""time""
""fullscreenenter"",""1"",""3294""
","
","","","","","","1631.8000000715256","images/cactus2.png","","","learning","images/plants_choice2.png","images/plants_choice1.png","images/plants_choice3.png","[1,0,2]","1","0","1","images/plants_choice2.png","1","plants","","cactus","1","0"
"html-keyboard-response","178","692590","0.0-9.0-2.0-0.46","1528","1","2","""event"",""trial"",""time""
""fullscreenenter"",""1"",""3294""
","
","
","""event"",""trial"",""time""
""fullscreenenter"",""1"",""3294""
","
","","","","","","null","<div style=""font-size:60px;"">+</div>","null","","fixation","","","","","","","","","","","","","",""
"learning-trial","179","696598","0.0-9.0-2.0-1.46","1528","1","2","""event"",""trial"",""time""
""fullscreenenter"",""1"",""3294""
","
","
","""event"",""trial"",""time""
""fullscreenenter"",""1"",""3294""
","
","","","","","","988.7000000476837","images/cactus5.png","","","learning","images/plants_choice1.png","images/plants_choice3.png","images/plants_choice2.png","[0,2,1]","1","2","3","images/plants_choice2.png","-1","plants","","cactus","1","0"
"html-keyboard-response","180","697108","0.0-9.0-2.0-0.47","1528","1","2","""event"",""trial"",""time""
""fullscreenenter"",""1"",""3294""
","
","
","""event"",""trial"",""time""
""fullscreenenter"",""1"",""3294""
","
","","","","","","null","<div style=""font-size:60px;"">+</div>","null","","fixation","","","","","","","","","","","","","",""
"learning-trial","181","701121","0.0-9.0-2.0-1.47","1528","1","2","""event"",""trial"",""time""
""fullscreenenter"",""1"",""3294""
","
","
","""event"",""trial"",""time""
""fullscreenenter"",""1"",""3294""
","
","","","","","","929.6000000238419","images/bush3.png","","","learning","images/plants_choice2.png","images/plants_choice3.png","images/plants_choice1.png","[1,2,0]","2","1","2","images/plants_choice3.png","1","plants","","bush","1","0"
"html-keyboard-response","182","701630","0.0-9.0-2.0-0.48","1528","1","2","""event"",""trial"",""time""
""fullscreenenter"",""1"",""3294""
","
","
","""event"",""trial"",""time""
""fullscreenenter"",""1"",""3294""
","
","","","","","","null","<div style=""font-size:60px;"">+</div>","null","","fixation","","","","","","","","","","","","","",""
"learning-trial","183","705638","0.0-9.0-2.0-1.48","1528","1","2","""event"",""trial"",""time""
""fullscreenenter"",""1"",""3294""
","
","
","""event"",""trial"",""time""
""fullscreenenter"",""1"",""3294""
","
","","","","","","1862.6000000238419","images/bush3.png","","","learning","images/plants_choice1.png","images/plants_choice2.png","images/plants_choice3.png","[0,1,2]","2","2","3","images/plants_choice3.png","1","plants","","bush","1","0"
"html-keyboard-response","184","706144","0.0-9.0-2.0-0.49","1528","1","2","""event"",""trial"",""time""
""fullscreenenter"",""1"",""3294""
","
","
","""event"",""trial"",""time""
""fullscreenenter"",""1"",""3294""
","
","","","","","","null","<div style=""font-size:60px;"">+</div>","null","","fixation","","","","","","","","","","","","","",""
"learning-trial","185","710151","0.0-9.0-2.0-1.49","1528","1","2","""event"",""trial"",""time""
""fullscreenenter"",""1"",""3294""
","
","
","""event"",""trial"",""time""
""fullscreenenter"",""1"",""3294""
","
","","","","","","994.6000000238419","images/cactus2.png","","","learning","images/plants_choice2.png","images/plants_choice3.png","images/plants_choice1.png","[1,2,0]","1","0","1","images/plants_choice2.png","1","plants","","cactus","1","0"
"html-keyboard-response","186","710653","0.0-9.0-2.0-0.50","1528","1","2","""event"",""trial"",""time""
""fullscreenenter"",""1"",""3294""
","
","
","""event"",""trial"",""time""
""fullscreenenter"",""1"",""3294""
","
","","","","","","null","<div style=""font-size:60px;"">+</div>","null","","fixation","","","","","","","","","","","","","",""
"learning-trial","187","714663","0.0-9.0-2.0-1.50","1528","1","2","""event"",""trial"",""time""
""fullscreenenter"",""1"",""3294""
","
","
","""event"",""trial"",""time""
""fullscreenenter"",""1"",""3294""
","
","","","","","","843.6999999284744","images/cactus3.png","","","learning","images/plants_choice1.png","images/plants_choice3.png","images/plants_choice2.png","[0,2,1]","1","2","3","images/plants_choice2.png","1","plants","","cactus","1","0"
"html-keyboard-response","188","715167","0.0-9.0-2.0-0.51","1528","1","2","""event"",""trial"",""time""
""fullscreenenter"",""1"",""3294""
","
","
","""event"",""trial"",""time""
""fullscreenenter"",""1"",""3294""
","
","","","","","","null","<div style=""font-size:60px;"">+</div>","null","","fixation","","","","","","","","","","","","","",""
"learning-trial","189","719173","0.0-9.0-2.0-1.51","1528","1","2","""event"",""trial"",""time""
""fullscreenenter"",""1"",""3294""
","
","
","""event"",""trial"",""time""
""fullscreenenter"",""1"",""3294""
","
","","","","","","852.6999999284744","images/cactus3.png","","","learning","images/plants_choice1.png","images/plants_choice3.png","images/plants_choice2.png","[0,2,1]","1","2","3","images/plants_choice2.png","1","plants","","cactus","1","0"
"html-keyboard-response","190","719682","0.0-9.0-2.0-0.52","1528","1","2","""event"",""trial"",""time""
""fullscreenenter"",""1"",""3294""
","
","
","""event"",""trial"",""time""
""fullscreenenter"",""1"",""3294""
","
","","","","","","null","<div style=""font-size:60px;"">+</div>","null","","fixation","","","","","","","","","","","","","",""
"learning-trial","191","723697","0.0-9.0-2.0-1.52","1528","1","2","""event"",""trial"",""time""
""fullscreenenter"",""1"",""3294""
","
","
","""event"",""trial"",""time""
""fullscreenenter"",""1"",""3294""
","
","","","","","","877","images/tree4.png","","","learning","images/plants_choice3.png","images/plants_choice1.png","images/plants_choice2.png","[2,0,1]","0","1","2","images/plants_choice1.png","1","plants","","tree","1","0"
"html-keyboard-response","192","724207","0.0-9.0-2.0-0.53","1528","1","2","""event"",""trial"",""time""
""fullscreenenter"",""1"",""3294""
","
","
","""event"",""trial"",""time""
""fullscreenenter"",""1"",""3294""
","
","","","","","","null","<div style=""font-size:60px;"">+</div>","null","","fixation","","","","","","","","","","","","","",""
"learning-trial","193","728213","0.0-9.0-2.0-1.53","1528","1","2","""event"",""trial"",""time""
""fullscreenenter"",""1"",""3294""
","
","
","""event"",""trial"",""time""
""fullscreenenter"",""1"",""3294""
","
","","","","","","682","images/bush3.png","","","learning","images/plants_choice3.png","images/plants_choice2.png","images/plants_choice1.png","[2,1,0]","2","0","1","images/plants_choice3.png","1","plants","","bush","1","0"
"html-keyboard-response","194","728728","0.0-9.0-2.0-0.54","1528","1","2","""event"",""trial"",""time""
""fullscreenenter"",""1"",""3294""
","
","
","""event"",""trial"",""time""
""fullscreenenter"",""1"",""3294""
","
","","","","","","null","<div style=""font-size:60px;"">+</div>","null","","fixation","","","","","","","","","","","","","",""
"learning-trial","195","732736","0.0-9.0-2.0-1.54","1528","1","2","""event"",""trial"",""time""
""fullscreenenter"",""1"",""3294""
","
","
","""event"",""trial"",""time""
""fullscreenenter"",""1"",""3294""
","
","","","","","","765.3999999761581","images/cactus5.png","","","learning","images/plants_choice3.png","images/plants_choice2.png","images/plants_choice1.png","[2,1,0]","1","1","2","images/plants_choice2.png","1","plants","","cactus","1","0"
"html-keyboard-response","196","733242","0.0-9.0-2.0-0.55","1528","1","2","""event"",""trial"",""time""
""fullscreenenter"",""1"",""3294""
","
","
","""event"",""trial"",""time""
""fullscreenenter"",""1"",""3294""
","
","","","","","","null","<div style=""font-size:60px;"">+</div>","null","","fixation","","","","","","","","","","","","","",""
"learning-trial","197","737248","0.0-9.0-2.0-1.55","1528","1","2","""event"",""trial"",""time""
""fullscreenenter"",""1"",""3294""
","
","
","""event"",""trial"",""time""
""fullscreenenter"",""1"",""3294""
","
","","","","","","1081.8999999761581","images/tree2.png","","","learning","images/plants_choice3.png","images/plants_choice2.png","images/plants_choice1.png","[2,1,0]","0","2","3","images/plants_choice1.png","1","plants","","tree","1","0"
"html-keyboard-response","198","737758","0.0-9.0-2.0-0.56","1528","1","2","""event"",""trial"",""time""
""fullscreenenter"",""1"",""3294""
","
","
","""event"",""trial"",""time""
""fullscreenenter"",""1"",""3294""
","
","","","","","","null","<div style=""font-size:60px;"">+</div>","null","","fixation","","","","","","","","","","","","","",""
"learning-trial","199","741766","0.0-9.0-2.0-1.56","1528","1","2","""event"",""trial"",""time""
""fullscreenenter"",""1"",""3294""
","
","
","""event"",""trial"",""time""
""fullscreenenter"",""1"",""3294""
","
","","","","","","1049.3999999761581","images/tree4.png","","","learning","images/plants_choice3.png","images/plants_choice1.png","images/plants_choice2.png","[2,0,1]","0","1","2","images/plants_choice1.png","1","plants","","tree","1","0"
"html-keyboard-response","200","742282","0.0-9.0-2.0-0.57","1528","1","2","""event"",""trial"",""time""
""fullscreenenter"",""1"",""3294""
","
","
","""event"",""trial"",""time""
""fullscreenenter"",""1"",""3294""
","
","","","","","","null","<div style=""font-size:60px;"">+</div>","null","","fixation","","","","","","","","","","","","","",""
"learning-trial","201","746287","0.0-9.0-2.0-1.57","1528","1","2","""event"",""trial"",""time""
""fullscreenenter"",""1"",""3294""
","
","
","""event"",""trial"",""time""
""fullscreenenter"",""1"",""3294""
","
","","","","","","1431.6000000238419","images/tree2.png","","","learning","images/plants_choice3.png","images/plants_choice2.png","images/plants_choice1.png","[2,1,0]","0","2","2","images/plants_choice2.png","1","plants","","tree","1","0"
"html-keyboard-response","202","746795","0.0-9.0-2.0-0.58","1528","1","2","""event"",""trial"",""time""
""fullscreenenter"",""1"",""3294""
","
","
","""event"",""trial"",""time""
""fullscreenenter"",""1"",""3294""
","
","","","","","","null","<div style=""font-size:60px;"">+</div>","null","","fixation","","","","","","","","","","","","","",""
"learning-trial","203","750804","0.0-9.0-2.0-1.58","1528","1","2","""event"",""trial"",""time""
""fullscreenenter"",""1"",""3294""
","
","
","""event"",""trial"",""time""
""fullscreenenter"",""1"",""3294""
","
","","","","","","1893.6999999284744","images/bush2.png","","","learning","images/plants_choice1.png","images/plants_choice2.png","images/plants_choice3.png","[0,1,2]","2","2","3","images/plants_choice3.png","1","plants","","bush","1","0"
"html-keyboard-response","204","751310","0.0-9.0-2.0-0.59","1528","1","2","""event"",""trial"",""time""
""fullscreenenter"",""1"",""3294""
","
","
","""event"",""trial"",""time""
""fullscreenenter"",""1"",""3294""
","
","","","","","","null","<div style=""font-size:60px;"">+</div>","null","","fixation","","","","","","","","","","","","","",""
"learning-trial","205","755318","0.0-9.0-2.0-1.59","1528","1","2","""event"",""trial"",""time""
""fullscreenenter"",""1"",""3294""
","
","
","""event"",""trial"",""time""
""fullscreenenter"",""1"",""3294""
","
","","","","","","1340","images/cactus5.png","","","learning","images/plants_choice3.png","images/plants_choice1.png","images/plants_choice2.png","[2,0,1]","1","2","3","images/plants_choice2.png","1","plants","","cactus","1","0"
"html-keyboard-response","206","755827","0.0-9.0-2.0-0.60","1528","1","2","""event"",""trial"",""time""
""fullscreenenter"",""1"",""3294""
","
","
","""event"",""trial"",""time""
""fullscreenenter"",""1"",""3294""
","
","","","","","","null","<div style=""font-size:60px;"">+</div>","null","","fixation","","","","","","","","","","","","","",""
"learning-trial","207","759833","0.0-9.0-2.0-1.60","1528","1","2","""event"",""trial"",""time""
""fullscreenenter"",""1"",""3294""
","
","
","""event"",""trial"",""time""
""fullscreenenter"",""1"",""3294""
","
","","","","","","1214.7999999523163","images/bush3.png","","","learning","images/plants_choice1.png","images/plants_choice3.png","images/plants_choice2.png","[0,2,1]","2","1","2","images/plants_choice3.png","1","plants","","bush","1","0"
"html-keyboard-response","208","760340","0.0-9.0-2.0-0.61","1528","1","2","""event"",""trial"",""time""
""fullscreenenter"",""1"",""3294""
","
","
","""event"",""trial"",""time""
""fullscreenenter"",""1"",""3294""
","
","","","","","","null","<div style=""font-size:60px;"">+</div>","null","","fixation","","","","","","","","","","","","","",""
"learning-trial","209","764347","0.0-9.0-2.0-1.61","1528","1","2","""event"",""trial"",""time""
""fullscreenenter"",""1"",""3294""
","
","
","""event"",""trial"",""time""
""fullscreenenter"",""1"",""3294""
","
","","","","","","881.1000000238419","images/cactus2.png","","","learning","images/plants_choice1.png","images/plants_choice3.png","images/plants_choice2.png","[0,2,1]","1","2","1","images/plants_choice1.png","-1","plants","","cactus","1","0"
"html-keyboard-response","210","764855","0.0-9.0-2.0-0.62","1528","1","2","""event"",""trial"",""time""
""fullscreenenter"",""1"",""3294""
","
","
","""event"",""trial"",""time""
""fullscreenenter"",""1"",""3294""
","
","","","","","","null","<div style=""font-size:60px;"">+</div>","null","","fixation","","","","","","","","","","","","","",""
"learning-trial","211","768858","0.0-9.0-2.0-1.62","1528","1","2","""event"",""trial"",""time""
""fullscreenenter"",""1"",""3294""
","
","
","""event"",""trial"",""time""
""fullscreenenter"",""1"",""3294""
","
","","","","","","760.2999999523163","images/tree2.png","","","learning","images/plants_choice2.png","images/plants_choice3.png","images/plants_choice1.png","[1,2,0]","0","2","3","images/plants_choice1.png","1","plants","","tree","1","0"
"html-keyboard-response","212","769367","0.0-9.0-2.0-0.63","1528","1","2","""event"",""trial"",""time""
""fullscreenenter"",""1"",""3294""
","
","
","""event"",""trial"",""time""
""fullscreenenter"",""1"",""3294""
","
","","","","","","null","<div style=""font-size:60px;"">+</div>","null","","fixation","","","","","","","","","","","","","",""
"learning-trial","213","773375","0.0-9.0-2.0-1.63","1528","1","2","""event"",""trial"",""time""
""fullscreenenter"",""1"",""3294""
","
","
","""event"",""trial"",""time""
""fullscreenenter"",""1"",""3294""
","
","","","","","","885.1000000238419","images/cactus5.png","","","learning","images/plants_choice2.png","images/plants_choice1.png","images/plants_choice3.png","[1,0,2]","1","0","1","images/plants_choice2.png","1","plants","","cactus","1","0"
"html-keyboard-response","214","773880","0.0-9.0-2.0-0.64","1528","1","2","""event"",""trial"",""time""
""fullscreenenter"",""1"",""3294""
","
","
","""event"",""trial"",""time""
""fullscreenenter"",""1"",""3294""
","
","","","","","","null","<div style=""font-size:60px;"">+</div>","null","","fixation","","","","","","","","","","","","","",""
"learning-trial","215","777892","0.0-9.0-2.0-1.64","1528","1","2","""event"",""trial"",""time""
""fullscreenenter"",""1"",""3294""
","
","
","""event"",""trial"",""time""
""fullscreenenter"",""1"",""3294""
","
","","","","","","861.7999999523163","images/cactus3.png","","","learning","images/plants_choice2.png","images/plants_choice1.png","images/plants_choice3.png","[1,0,2]","1","0","1","images/plants_choice2.png","1","plants","","cactus","1","0"
"html-keyboard-response","216","778401","0.0-9.0-2.0-0.65","1528","1","2","""event"",""trial"",""time""
""fullscreenenter"",""1"",""3294""
","
","
","""event"",""trial"",""time""
""fullscreenenter"",""1"",""3294""
","
","","","","","","null","<div style=""font-size:60px;"">+</div>","null","","fixation","","","","","","","","","","","","","",""
"learning-trial","217","782408","0.0-9.0-2.0-1.65","1528","1","2","""event"",""trial"",""time""
""fullscreenenter"",""1"",""3294""
","
","
","""event"",""trial"",""time""
""fullscreenenter"",""1"",""3294""
","
","","","","","","1413.7000000476837","images/cactus2.png","","","learning","images/plants_choice1.png","images/plants_choice3.png","images/plants_choice2.png","[0,2,1]","1","2","3","images/plants_choice2.png","1","plants","","cactus","1","0"
"html-keyboard-response","218","782911","0.0-9.0-2.0-0.66","1528","1","2","""event"",""trial"",""time""
""fullscreenenter"",""1"",""3294""
","
","
","""event"",""trial"",""time""
""fullscreenenter"",""1"",""3294""
","
","","","","","","null","<div style=""font-size:60px;"">+</div>","null","","fixation","","","","","","","","","","","","","",""
"learning-trial","219","786916","0.0-9.0-2.0-1.66","1528","1","2","""event"",""trial"",""time""
""fullscreenenter"",""1"",""3294""
","
","
","""event"",""trial"",""time""
""fullscreenenter"",""1"",""3294""
","
","","","","","","955.1000000238419","images/bush2.png","","","learning","images/plants_choice2.png","images/plants_choice1.png","images/plants_choice3.png","[1,0,2]","2","2","3","images/plants_choice3.png","1","plants","","bush","1","0"
"html-keyboard-response","220","787425","0.0-9.0-2.0-0.67","1528","1","2","""event"",""trial"",""time""
""fullscreenenter"",""1"",""3294""
","
","
","""event"",""trial"",""time""
""fullscreenenter"",""1"",""3294""
","
","","","","","","null","<div style=""font-size:60px;"">+</div>","null","","fixation","","","","","","","","","","","","","",""
"learning-trial","221","791430","0.0-9.0-2.0-1.67","1528","1","2","""event"",""trial"",""time""
""fullscreenenter"",""1"",""3294""
","
","
","""event"",""trial"",""time""
""fullscreenenter"",""1"",""3294""
","
","","","","","","1642.6999999284744","images/bush3.png","","","learning","images/plants_choice3.png","images/plants_choice2.png","images/plants_choice1.png","[2,1,0]","2","0","1","images/plants_choice3.png","1","plants","","bush","1","0"
"html-keyboard-response","222","791938","0.0-9.0-2.0-0.68","1528","1","2","""event"",""trial"",""time""
""fullscreenenter"",""1"",""3294""
","
","
","""event"",""trial"",""time""
""fullscreenenter"",""1"",""3294""
","
","","","","","","null","<div style=""font-size:60px;"">+</div>","null","","fixation","","","","","","","","","","","","","",""
"learning-trial","223","795946","0.0-9.0-2.0-1.68","1528","1","2","""event"",""trial"",""time""
""fullscreenenter"",""1"",""3294""
","
","
","""event"",""trial"",""time""
""fullscreenenter"",""1"",""3294""
","
","","","","","","848.5","images/cactus3.png","","","learning","images/plants_choice1.png","images/plants_choice3.png","images/plants_choice2.png","[0,2,1]","1","2","3","images/plants_choice2.png","1","plants","","cactus","1","0"
"html-keyboard-response","224","796453","0.0-9.0-2.0-0.69","1528","1","2","""event"",""trial"",""time""
""fullscreenenter"",""1"",""3294""
","
","
","""event"",""trial"",""time""
""fullscreenenter"",""1"",""3294""
","
","","","","","","null","<div style=""font-size:60px;"">+</div>","null","","fixation","","","","","","","","","","","","","",""
"learning-trial","225","800462","0.0-9.0-2.0-1.69","1528","1","2","""event"",""trial"",""time""
""fullscreenenter"",""1"",""3294""
","
","
","""event"",""trial"",""time""
""fullscreenenter"",""1"",""3294""
","
","","","","","","1267.3999999761581","images/bush4.png","","","learning","images/plants_choice3.png","images/plants_choice1.png","images/plants_choice2.png","[2,0,1]","2","0","1","images/plants_choice3.png","1","plants","","bush","1","0"
"html-keyboard-response","226","800968","0.0-9.0-2.0-0.70","1528","1","2","""event"",""trial"",""time""
""fullscreenenter"",""1"",""3294""
","
","
","""event"",""trial"",""time""
""fullscreenenter"",""1"",""3294""
","
","","","","","","null","<div style=""font-size:60px;"">+</div>","null","","fixation","","","","","","","","","","","","","",""
"learning-trial","227","804980","0.0-9.0-2.0-1.70","1528","1","2","""event"",""trial"",""time""
""fullscreenenter"",""1"",""3294""
","
","
","""event"",""trial"",""time""
""fullscreenenter"",""1"",""3294""
","
","","","","","","749.2999999523163","images/tree2.png","","","learning","images/plants_choice2.png","images/plants_choice1.png","images/plants_choice3.png","[1,0,2]","0","1","2","images/plants_choice1.png","1","plants","","tree","1","0"
"html-keyboard-response","228","805491","0.0-9.0-2.0-0.71","1528","1","2","""event"",""trial"",""time""
""fullscreenenter"",""1"",""3294""
","
","
","""event"",""trial"",""time""
""fullscreenenter"",""1"",""3294""
","
","","","","","","null","<div style=""font-size:60px;"">+</div>","null","","fixation","","","","","","","","","","","","","",""
"learning-trial","229","809499","0.0-9.0-2.0-1.71","1528","1","2","""event"",""trial"",""time""
""fullscreenenter"",""1"",""3294""
","
","
","""event"",""trial"",""time""
""fullscreenenter"",""1"",""3294""
","
","","","","","","1034.3999999761581","images/bush4.png","","","learning","images/plants_choice3.png","images/plants_choice1.png","images/plants_choice2.png","[2,0,1]","2","0","3","images/plants_choice2.png","-1","plants","","bush","1","0"
"html-button-response","230","812511","0.0-9.0-3.0","1528","1","2","""event"",""trial"",""time""
""fullscreenenter"",""1"",""3294""
","
","
","""event"",""trial"",""time""
""fullscreenenter"",""1"",""3294""
","
","","","","","","3009.7999999523163","<p> You have completed the round! <p> In this round, you earned 46 points! </p>","0","","break","","","","","","","","","","","","","",""
"html-button-response","231","813837","0.0-10.0","1528","1","2","""event"",""trial"",""time""
""fullscreenenter"",""1"",""3294""
","
","
","""event"",""trial"",""time""
""fullscreenenter"",""1"",""3294""
","
","","","","","","1324.7000000476837","<p> Now it's time to play another round. </p>","0","","transition_screen","","","","","","","","","","","","","",""
"preload","232","819930","0.0-11.0-0.0","1528","1","2","""event"",""trial"",""time""
""fullscreenenter"",""1"",""3294""
","
","
","""event"",""trial"",""time""
""fullscreenenter"",""1"",""3294""
","
","true","false","[]","[]","[]","","","","","","","","","","","","","","","","","","",""
"learning-instructions","233","828430","0.0-11.0-1.0-0.0","1528","1","2","""event"",""trial"",""time""
""fullscreenenter"",""1"",""3294""
","
","
","""event"",""trial"",""time""
""fullscreenenter"",""1"",""3294""
","
","","","","","","1687.1999999284744","<p> Your goal in this round is to buy different types of fruits. </p><p> You will try to purchase many fruits from different stores. </p></div>","","0","instructions","","","","","","","","","","","","","",""
"learning-instructions","234","837556","0.0-11.0-1.0-0.1","1528","1","2","""event"",""trial"",""time""
""fullscreenenter"",""1"",""3294""
","
","
","""event"",""trial"",""time""
""fullscreenenter"",""1"",""3294""
","
","","","","","","613","<p> On each turn, you will see a picture of a fruit and three different stores.  </p><p> You need to select the store where you can buy that fruit.  </p>","","0","instructions","","","","","","","","","","","","","",""
"learning-instructions","235","846688","0.0-11.0-1.0-0.2","1528","1","2","""event"",""trial"",""time""
""fullscreenenter"",""1"",""3294""
","
","
","""event"",""trial"",""time""
""fullscreenenter"",""1"",""3294""
","
","","","","","","1734.5","<p> You can select the store on the left by pressing 1, the store in the middle by pressing 2, and the store on the right by pressing 3. </p><br><div class=""choice-instructions-grid""> <div class=""choice-option""><img src=""images/fruit_choice1.png"" class=""choice-option-img"" stage=""instructions"" position=""0"" ><div class=""choice-option-text""> Press ""1."" </div></div><div class=""choice-option""><img src=""images/fruit_choice2.png"" class=""choice-option-img"" stage=""instructions"" position=""1"" ><div class=""choice-option-text""> Press ""2."" </div></div><div class=""choice-option""><img src=""images/fruit_choice3.png"" class=""choice-option-img"" stage=""instructions"" position=""2"" ><div class=""choice-option-text""> Press ""3."" </div></div></div>","","0","instructions","","","","","","","","","","","","","",""
"learning-instructions","236","852264","0.0-11.0-1.0-0.3","1528","1","2","""event"",""trial"",""time""
""fullscreenenter"",""1"",""3294""
","
","
","""event"",""trial"",""time""
""fullscreenenter"",""1"",""3294""
","
