"trial_type","trial_index","time_elapsed","internal_node_id","subject_id","condition","task_version","interactions","blur_events","focus_events","fullscreenenter_events","fullscreenexit_events","success","timeout","failed_images","failed_audio","failed_video","rt","stimulus","response","button_pressed","task_part","left_choice","middle_choice","right_choice","choice_positions","correct_response","correct_position","key_press","option_selected","points","task_block","correct","stim_cat","block_condition","block_number"
"pavlovia","0","3","0.0-0.0","1898","2","2","""event"",""trial"",""time""
""fullscreenenter"",""1"",""3266""
","
","
","""event"",""trial"",""time""
""fullscreenenter"",""1"",""3266""
","
","","","","","","","","","","","","","","","","","","","","","","","",""
"fullscreen","1","4270","0.0-1.0","1898","2","2","""event"",""trial"",""time""
""fullscreenenter"",""1"",""3266""
","
","
","""event"",""trial"",""time""
""fullscreenenter"",""1"",""3266""
","
","true","","","","","","","","","","","","","","","","","","","","","","",""
"preload","2","10516","0.0-2.0","1898","2","2","""event"",""trial"",""time""
""fullscreenenter"",""1"",""3266""
","
","
","""event"",""trial"",""time""
""fullscreenenter"",""1"",""3266""
","
","true","false","[]","[]","[]","","","","","","","","","","","","","","","","","","",""
"audio-keyboard-response","3","13166","0.0-3.0","1898","2","2","""event"",""trial"",""time""
""fullscreenenter"",""1"",""3266""
","
","
","""event"",""trial"",""time""
""fullscreenenter"",""1"",""3266""
","
","","","","","","2639.9999999999986","audio/beep_loop.wav"," ","","","","","","","","","","","","","","","",""
"audio-button-response","4","15479","0.0-4.0","1898","2","2","""event"",""trial"",""time""
""fullscreenenter"",""1"",""3266""
","
","
","""event"",""trial"",""time""
""fullscreenenter"",""1"",""3266""
","
","","","","","","2309","audio/shark.wav","4","","","","","","","","","","","","","","","",""
"audio-button-response","5","18162","0.0-5.0","1898","2","2","""event"",""trial"",""time""
""fullscreenenter"",""1"",""3266""
","
","
","""event"",""trial"",""time""
""fullscreenenter"",""1"",""3266""
","
","","","","","","1669","audio/turtle.wav","1","","","","","","","","","","","","","","","",""
"preload","6","22885","0.0-6.0","1898","2","2","""event"",""trial"",""time""
""fullscreenenter"",""1"",""3266""
","
","
","""event"",""trial"",""time""
""fullscreenenter"",""1"",""3266""
","
","true","false","[]","[]","[]","","","","","","","","","","","","","","","","","","",""
"html-keyboard-response","7","24837","0.0-7.0","1898","2","2","""event"",""trial"",""time""
""fullscreenenter"",""1"",""3266""
","
","
","""event"",""trial"",""time""
""fullscreenenter"",""1"",""3266""
","
","","","","","","1951.5","Welcome to the experiment. Press any key to begin and to advance the instructions."," ","","","","","","","","","","","","","","","",""
"learning-instructions","8","35759","0.0-8.0-0.0-0.0","1898","2","2","""event"",""trial"",""time""
""fullscreenenter"",""1"",""3266""
","
","
","""event"",""trial"",""time""
""fullscreenenter"",""1"",""3266""
","
","","","","","","3170.5","<p> Welcome! Today you are going to play 6 different rounds of a decision-making game. </p><p> Use the mouse to click next to continue. </p>","","0","instructions","","","","","","","","","","","","","",""
"learning-instructions","9","40992","0.0-8.0-0.0-0.1","1898","2","2","""event"",""trial"",""time""
""fullscreenenter"",""1"",""3266""
","
","
","""event"",""trial"",""time""
""fullscreenenter"",""1"",""3266""
","
","","","","","","2234.0999999940395","<p> You will start with a practice round to learn the rules. </p>","","0","instructions","","","","","","","","","","","","","",""
"learning-instructions","10","53925","0.0-8.0-0.0-0.2","1898","2","2","""event"",""trial"",""time""
""fullscreenenter"",""1"",""3266""
","
","
","""event"",""trial"",""time""
""fullscreenenter"",""1"",""3266""
","
","","","","","","5186.799999982119","<p> Your goal in this round is to deliver sports equipment to three different parks. </p><p> You will need to deliver many types of equipment. </p></div>","","0","instructions","","","","","","","","","","","","","",""
"learning-instructions","11","63539","0.0-8.0-0.0-0.3","1898","2","2","""event"",""trial"",""time""
""fullscreenenter"",""1"",""3266""
","
","
","""event"",""trial"",""time""
""fullscreenenter"",""1"",""3266""
","
","","","","","","1140.4000000059605","<p> On each turn, you will see one piece of sports equipment and three different parks.  </p><p> You need to select which park to deliver the equipment to.  </p>","","0","instructions","","","","","","","","","","","","","",""
"learning-instructions","12","79194","0.0-8.0-0.0-0.4","1898","2","2","""event"",""trial"",""time""
""fullscreenenter"",""1"",""3266""
","
","
","""event"",""trial"",""time""
""fullscreenenter"",""1"",""3266""
","
","","","","","","2365.199999988079","<p> You can select the park on the left by pressing the '1' key on your keyboard. <br>You can select the park in the middle by pressing the '2' key on your keyboard. <br>You can select the park on the right by pressing the '3' key on your keyboard.  </p><br><div class=""choice-instructions-grid""> <div class=""choice-option""><img src=""images/park1.png"" class=""choice-option-img"" stage=""instructions"" position=""0"" ><div class=""choice-option-text""> Press ""1."" </div></div><div class=""choice-option""><img src=""images/park2.png"" class=""choice-option-img"" stage=""instructions"" position=""1"" ><div class=""choice-option-text""> Press ""2."" </div></div><div class=""choice-option""><img src=""images/park3.png"" class=""choice-option-img"" stage=""instructions"" position=""2"" ><div class=""choice-option-text""> Press ""3."" </div></div></div>","","0","instructions","","","","","","","","","","","","","",""
"learning-instructions","13","86441","0.0-8.0-0.0-0.5","1898","2","2","""event"",""trial"",""time""
""fullscreenenter"",""1"",""3266""
","
","
","""event"",""trial"",""time""
""fullscreenenter"",""1"",""3266""
","
","","","","","","1852.199999988079","<p> If the kids in the park you chose like the equipment, they will be very happy! </p><div style='float: center;'><img src='images/check.png' width = '200' height = '200'></img>","","0","instructions","","","","","","","","","","","","","",""
"learning-instructions","14","94178","0.0-8.0-0.0-0.6","1898","2","2","""event"",""trial"",""time""
""fullscreenenter"",""1"",""3266""
","
","
","""event"",""trial"",""time""
""fullscreenenter"",""1"",""3266""
","
","","","","","","2140.9000000059605","<p> But, if the kids in the park you chose do not like the equipment, they will be sad. </p><div style='float: center;'><img src='images/x.png' width = '200' height = '200'></img>","","0","instructions","","","","","","","","","","","","","",""
"learning-instructions","15","102204","0.0-8.0-0.0-0.7","1898","2","2","""event"",""trial"",""time""
""fullscreenenter"",""1"",""3266""
","
","
","""event"",""trial"",""time""
""fullscreenenter"",""1"",""3266""
","
","","","","","","1596.800000011921","<p> Importantly, the kids in each park like some pieces of sports equipment more than others. </p>","","0","instructions","","","","","","","","","","","","","",""
"learning-instructions","16","110916","0.0-8.0-0.0-0.8","1898","2","2","""event"",""trial"",""time""
""fullscreenenter"",""1"",""3266""
","
","
","""event"",""trial"",""time""
""fullscreenenter"",""1"",""3266""
","
","","","","","","2668.2000000178814","<p> If you choose the best park for each piece of equipment, the kids there will usually be happy. </p>","","0","instructions","","","","","","","","","","","","","",""
"learning-instructions","17","118629","0.0-8.0-0.0-0.9","1898","2","2","""event"",""trial"",""time""
""fullscreenenter"",""1"",""3266""
","
","
","""event"",""trial"",""time""
""fullscreenenter"",""1"",""3266""
","
","","","","","","1072.199999988079","<p> However, even if you choose the best park for the equipment, the kids may sometimes be sad. </p>","","0","instructions","","","","","","","","","","","","","",""
"learning-instructions","18","127432","0.0-8.0-0.0-0.10","1898","2","2","""event"",""trial"",""time""
""fullscreenenter"",""1"",""3266""
","
","
","""event"",""trial"",""time""
""fullscreenenter"",""1"",""3266""
","
","","","","","","1564.7999999821186","<p> Similarly, even if you choose the <i>wrong</i> park for the equipment, the kids may still be happy sometimes.","","0","instructions","","","","","","","","","","","","","",""
"learning-instructions","19","132897","0.0-8.0-0.0-0.11","1898","2","2","""event"",""trial"",""time""
""fullscreenenter"",""1"",""3266""
","
","
","""event"",""trial"",""time""
""fullscreenenter"",""1"",""3266""
","
","","","","","","408.80000001192093","<p> For example, the best park for this soccer ball is this one.<div style='float: center;'><img src='images/i1.png' width = '500' height = '268'></img>","","0","instructions","","","","","","","","","","","","","",""
"learning-instructions","20","139272","0.0-8.0-0.0-0.12","1898","2","2","""event"",""trial"",""time""
""fullscreenenter"",""1"",""3266""
","
","
","""event"",""trial"",""time""
""fullscreenenter"",""1"",""3266""
","
","","","","","","1075.5999999940395","<p> Let's see what happens if you choose this park for the soccer ball five times.","","0","instructions","","","","","","","","","","","","","",""
"learning-instructions","21","143463","0.0-8.0-0.0-0.13","1898","2","2","""event"",""trial"",""time""
""fullscreenenter"",""1"",""3266""
","
","
","""event"",""trial"",""time""
""fullscreenenter"",""1"",""3266""
","
","","","","","","2015.5","<p> The kids are happy.<div style='float: left;'><img src='images/i2.png' width = '640' height = '360'></img>","","0","instructions","","","","","","","","","","","","","",""
"learning-instructions","22","145970","0.0-8.0-0.0-0.14","1898","2","2","""event"",""trial"",""time""
""fullscreenenter"",""1"",""3266""
","
","
","""event"",""trial"",""time""
""fullscreenenter"",""1"",""3266""
","
","","","","","","352.7000000178814","<p> The kids are happy.<div style='float: left;'><img src='images/i3.png' width = '640' height = '360'></img>","","0","instructions","","","","","","","","","","","","","",""
"learning-instructions","23","148496","0.0-8.0-0.0-0.15","1898","2","2","""event"",""trial"",""time""
""fullscreenenter"",""1"",""3266""
","
","
","""event"",""trial"",""time""
""fullscreenenter"",""1"",""3266""
","
","","","","","","358.90000000596046","<p> The kids are happy.<div style='float: left;'><img src='images/i4.png' width = '640' height = '360'></img>","","0","instructions","","","","","","","","","","","","","",""
"learning-instructions","24","151086","0.0-8.0-0.0-0.16","1898","2","2","""event"",""trial"",""time""
""fullscreenenter"",""1"",""3266""
","
","
","""event"",""trial"",""time""
""fullscreenenter"",""1"",""3266""
","
","","","","","","388.80000001192093","<p> The kids are sad.<div style='float: left;'><img src='images/i5.png' width = '640' height = '360'></img>","","0","instructions","","","","","","","","","","","","","",""
"learning-instructions","25","153760","0.0-8.0-0.0-0.17","1898","2","2","""event"",""trial"",""time""
""fullscreenenter"",""1"",""3266""
","
","
","""event"",""trial"",""time""
""fullscreenenter"",""1"",""3266""
","
","","","","","","502.69999998807907","<p> The kids are happy.<div style='float: left;'><img src='images/i6.png' width = '640' height = '360'></img>","","0","instructions","","","","","","","","","","","","","",""
"learning-instructions","26","162618","0.0-8.0-0.0-0.18","1898","2","2","""event"",""trial"",""time""
""fullscreenenter"",""1"",""3266""
","
","
","""event"",""trial"",""time""
""fullscreenenter"",""1"",""3266""
","
","","","","","","1590","<p> As you can see, selecting that park for the soccer ball made the kids happy most of the time, but not all the time.","","0","instructions","","","","","","","","","","","","","",""
"learning-instructions","27","169988","0.0-8.0-0.0-0.19","1898","2","2","""event"",""trial"",""time""
""fullscreenenter"",""1"",""3266""
","
","
","""event"",""trial"",""time""
""fullscreenenter"",""1"",""3266""
","
","","","","","","1370.5","<p> Now let's see what happens if you choose a DIFFERENT park for the soccer ball 5 times.","","0","instructions","","","","","","","","","","","","","",""
"learning-instructions","28","172544","0.0-8.0-0.0-0.20","1898","2","2","""event"",""trial"",""time""
""fullscreenenter"",""1"",""3266""
","
","
","""event"",""trial"",""time""
""fullscreenenter"",""1"",""3266""
","
","","","","","","356.80000001192093","<p> The kids are sad.<div style='float: left;'><img src='images/i7.png' width = '640' height = '360'></img>","","0","instructions","","","","","","","","","","","","","",""
"learning-instructions","29","175049","0.0-8.0-0.0-0.21","1898","2","2","""event"",""trial"",""time""
""fullscreenenter"",""1"",""3266""
","
","
","""event"",""trial"",""time""
""fullscreenenter"",""1"",""3266""
","
","","","","","","302.2999999821186","<p> The kids are sad.<div style='float: left;'><img src='images/i8.png' width = '640' height = '360'></img>","","0","instructions","","","","","","","","","","","","","",""
"learning-instructions","30","177965","0.0-8.0-0.0-0.22","1898","2","2","""event"",""trial"",""time""
""fullscreenenter"",""1"",""3266""
","
","
","""event"",""trial"",""time""
""fullscreenenter"",""1"",""3266""
","
","","","","","","748.6999999880791","<p> The kids are happy.<div style='float: left;'><img src='images/i9.png' width = '640' height = '360'></img>","","0","instructions","","","","","","","","","","","","","",""
"learning-instructions","31","180729","0.0-8.0-0.0-0.23","1898","2","2","""event"",""trial"",""time""
""fullscreenenter"",""1"",""3266""
","
","
","""event"",""trial"",""time""
""fullscreenenter"",""1"",""3266""
","
","","","","","","551.7999999821186","<p> The kids are sad.<div style='float: left;'><img src='images/i10.png' width = '640' height = '360'></img>","","0","instructions","","","","","","","","","","","","","",""
"learning-instructions","32","183699","0.0-8.0-0.0-0.24","1898","2","2","""event"",""trial"",""time""
""fullscreenenter"",""1"",""3266""
","
","
","""event"",""trial"",""time""
""fullscreenenter"",""1"",""3266""
","
","","","","","","761.7999999821186","<p> The kids are sad.<div style='float: left;'><img src='images/i11.png' width = '640' height = '360'></img>","","0","instructions","","","","","","","","","","","","","",""
"learning-instructions","33","192408","0.0-8.0-0.0-0.25","1898","2","2","""event"",""trial"",""time""
""fullscreenenter"",""1"",""3266""
","
","
","""event"",""trial"",""time""
""fullscreenenter"",""1"",""3266""
","
","","","","","","591.5","<p> As you can see, selecting the wrong park for the soccer ball made the kids sad most of the time, but not all the time.","","0","instructions","","","","","","","","","","","","","",""
"learning-instructions","34","201971","0.0-8.0-0.0-0.26","1898","2","2","""event"",""trial"",""time""
""fullscreenenter"",""1"",""3266""
","
","
","""event"",""trial"",""time""
""fullscreenenter"",""1"",""3266""
","
","","","","","","443.19999998807907","<p> The different pieces of equipment belong in different parks. You need to try to learn which is the best park for each piece of equipment.","","0","instructions","","","","","","","","","","","","","",""
"learning-instructions","35","219150","0.0-8.0-0.0-0.27","1898","2","2","""event"",""trial"",""time""
""fullscreenenter"",""1"",""3266""
","
","
","""event"",""trial"",""time""
""fullscreenenter"",""1"",""3266""
","
","","","","","","803.1999999880791","<p> Try to choose the best park for each piece of equipment, because you will <b> WIN </b> 1 point for each time you make the kids happy and <b>LOSE</b> 1 point for each time you make them sad. </p><p> Remember, if you make the best choice, you will win 1 point most of the time, but not all the time. </p>","","0","instructions","","","","","","","","","","","","","",""
"learning-instructions","36","226426","0.0-8.0-0.0-0.28","1898","2","2","""event"",""trial"",""time""
""fullscreenenter"",""1"",""3266""
","
","
","""event"",""trial"",""time""
""fullscreenenter"",""1"",""3266""
","
","","","","","","1788.5","<p> This is just a practice round, but in the real game, your bonus payment will depend on your total number of points.","","0","instructions","","","","","","","","","","","","","",""
"learning-instructions","37","237682","0.0-8.0-0.0-0.29","1898","2","2","""event"",""trial"",""time""
""fullscreenenter"",""1"",""3266""
","
","
","""event"",""trial"",""time""
""fullscreenenter"",""1"",""3266""
","
","","","","","","935.3999999761581","<p> The position where each park appears will change throughout the game. </p><p> The position where the park appears <i> does not </i> influence how likely the kids are to be happy or sad. </p>","","0","instructions","","","","","","","","","","","","","",""
"learning-instructions","38","253726","0.0-8.0-0.0-0.30","1898","2","2","""event"",""trial"",""time""
""fullscreenenter"",""1"",""3266""
","
","
","""event"",""trial"",""time""
""fullscreenenter"",""1"",""3266""
","
","","","","","","5018.9000000059605","<p> You will have 4 seconds to make each choice. Try to respond before time runs out! </p><p> You will lose 1 point each time you do not make a response. </p>","","0","instructions","","","","","","","","","","","","","",""
"learning-instructions","39","262218","0.0-8.0-0.0-0.31","1898","2","2","""event"",""trial"",""time""
""fullscreenenter"",""1"",""3266""
","
","
","""event"",""trial"",""time""
""fullscreenenter"",""1"",""3266""
","
","","","","","","1699.5","<p> Remember, you should use the 1, 2, and 3 keys to select the park for each piece of equipment. </p><br><div class=""choice-instructions-grid""> <div class=""choice-option""><img src=""images/park1.png"" class=""choice-option-img"" stage=""instructions"" position=""0"" ><div class=""choice-option-text""> Press ""1."" </div></div><div class=""choice-option""><img src=""images/park2.png"" class=""choice-option-img"" stage=""instructions"" position=""1"" ><div class=""choice-option-text""> Press ""2."" </div></div><div class=""choice-option""><img src=""images/park3.png"" class=""choice-option-img"" stage=""instructions"" position=""2"" ><div class=""choice-option-text""> Press ""3."" </div></div></div>","","0","instructions","","","","","","","","","","","","","",""
"html-button-response","40","264050","0.0-8.0-1.0","1898","2","2","""event"",""trial"",""time""
""fullscreenenter"",""1"",""3266""
","
","
","""event"",""trial"",""time""
""fullscreenenter"",""1"",""3266""
","
","","","","","","1722","<p> Ready to practice? </p>","0","","","","","","","","","","","","","","","",""
"html-keyboard-response","41","264675","0.0-8.0-2.0-0.0","1898","2","2","""event"",""trial"",""time""
""fullscreenenter"",""1"",""3266""
","
","
","""event"",""trial"",""time""
""fullscreenenter"",""1"",""3266""
","
","","","","","","null","<div style=""font-size:60px;"">+</div>","null","","fixation","","","","","","","","","","","","","",""
"learning-trial","42","268687","0.0-8.0-2.0-1.0","1898","2","2","""event"",""trial"",""time""
""fullscreenenter"",""1"",""3266""
","
","
","""event"",""trial"",""time""
""fullscreenenter"",""1"",""3266""
","
","","","","","","744.9000000059605","images/ball3.png","","","practice","images/park1.png","images/park2.png","images/park3.png","[0,1,2]","2","2","1","images/park1.png","-1","practice","","","",""
"html-keyboard-response","43","269203","0.0-8.0-2.0-0.1","1898","2","2","""event"",""trial"",""time""
""fullscreenenter"",""1"",""3266""
","
","
","""event"",""trial"",""time""
""fullscreenenter"",""1"",""3266""
","
","","","","","","null","<div style=""font-size:60px;"">+</div>","null","","fixation","","","","","","","","","","","","","",""
"learning-trial","44","273213","0.0-8.0-2.0-1.1","1898","2","2","""event"",""trial"",""time""
""fullscreenenter"",""1"",""3266""
","
","
","""event"",""trial"",""time""
""fullscreenenter"",""1"",""3266""
","
","","","","","","688.5999999940395","images/ball4.png","","","practice","images/park3.png","images/park1.png","images/park2.png","[2,0,1]","0","1","1","images/park3.png","-1","practice","","","",""
"html-keyboard-response","45","273728","0.0-8.0-2.0-0.2","1898","2","2","""event"",""trial"",""time""
""fullscreenenter"",""1"",""3266""
","
","
","""event"",""trial"",""time""
""fullscreenenter"",""1"",""3266""
","
","","","","","","null","<div style=""font-size:60px;"">+</div>","null","","fixation","","","","","","","","","","","","","",""
"learning-trial","46","277744","0.0-8.0-2.0-1.2","1898","2","2","""event"",""trial"",""time""
""fullscreenenter"",""1"",""3266""
","
","
","""event"",""trial"",""time""
""fullscreenenter"",""1"",""3266""
","
","","","","","","651.4000000059605","images/racket1.png","","","practice","images/park2.png","images/park1.png","images/park3.png","[1,0,2]","0","1","3","images/park3.png","-1","practice","","","",""
"html-keyboard-response","47","278254","0.0-8.0-2.0-0.3","1898","2","2","""event"",""trial"",""time""
""fullscreenenter"",""1"",""3266""
","
","
","""event"",""trial"",""time""
""fullscreenenter"",""1"",""3266""
","
","","","","","","null","<div style=""font-size:60px;"">+</div>","null","","fixation","","","","","","","","","","","","","",""
"learning-trial","48","282260","0.0-8.0-2.0-1.3","1898","2","2","""event"",""trial"",""time""
""fullscreenenter"",""1"",""3266""
","
","
","""event"",""trial"",""time""
""fullscreenenter"",""1"",""3266""
","
","","","","","","454.2000000178814","images/ball3.png","","","practice","images/park3.png","images/park1.png","images/park2.png","[2,0,1]","2","0","1","images/park3.png","1","practice","","","",""
"html-keyboard-response","49","282772","0.0-8.0-2.0-0.4","1898","2","2","""event"",""trial"",""time""
""fullscreenenter"",""1"",""3266""
","
","
","""event"",""trial"",""time""
""fullscreenenter"",""1"",""3266""
","
","","","","","","null","<div style=""font-size:60px;"">+</div>","null","","fixation","","","","","","","","","","","","","",""
"learning-trial","50","286784","0.0-8.0-2.0-1.4","1898","2","2","""event"",""trial"",""time""
""fullscreenenter"",""1"",""3266""
","
","
","""event"",""trial"",""time""
""fullscreenenter"",""1"",""3266""
","
","","","","","","711.3000000119209","images/ball4.png","","","practice","images/park1.png","images/park2.png","images/park3.png","[0,1,2]","0","0","2","images/park2.png","1","practice","","","",""
"html-keyboard-response","51","287297","0.0-8.0-2.0-0.5","1898","2","2","""event"",""trial"",""time""
""fullscreenenter"",""1"",""3266""
","
","
","""event"",""trial"",""time""
""fullscreenenter"",""1"",""3266""
","
","","","","","","null","<div style=""font-size:60px;"">+</div>","null","","fixation","","","","","","","","","","","","","",""
"learning-trial","52","291301","0.0-8.0-2.0-1.5","1898","2","2","""event"",""trial"",""time""
""fullscreenenter"",""1"",""3266""
","
","
","""event"",""trial"",""time""
""fullscreenenter"",""1"",""3266""
","
","","","","","","866.1999999880791","images/racket4.png","","","practice","images/park1.png","images/park3.png","images/park2.png","[0,2,1]","1","2","1","images/park1.png","1","practice","","","",""
"html-keyboard-response","53","291802","0.0-8.0-2.0-0.6","1898","2","2","""event"",""trial"",""time""
""fullscreenenter"",""1"",""3266""
","
","
","""event"",""trial"",""time""
""fullscreenenter"",""1"",""3266""
","
","","","","","","null","<div style=""font-size:60px;"">+</div>","null","","fixation","","","","","","","","","","","","","",""
"learning-trial","54","295804","0.0-8.0-2.0-1.6","1898","2","2","""event"",""trial"",""time""
""fullscreenenter"",""1"",""3266""
","
","
","""event"",""trial"",""time""
""fullscreenenter"",""1"",""3266""
","
","","","","","","2226.199999988079","images/ball2.png","","","practice","images/park3.png","images/park2.png","images/park1.png","[2,1,0]","2","0","1","images/park3.png","1","practice","","","",""
"html-keyboard-response","55","296305","0.0-8.0-2.0-0.7","1898","2","2","""event"",""trial"",""time""
""fullscreenenter"",""1"",""3266""
","
","
","""event"",""trial"",""time""
""fullscreenenter"",""1"",""3266""
","
","","","","","","null","<div style=""font-size:60px;"">+</div>","null","","fixation","","","","","","","","","","","","","",""
"learning-trial","56","300306","0.0-8.0-2.0-1.7","1898","2","2","""event"",""trial"",""time""
""fullscreenenter"",""1"",""3266""
","
","
","""event"",""trial"",""time""
""fullscreenenter"",""1"",""3266""
","
","","","","","","1171.4000000059605","images/ball2.png","","","practice","images/park2.png","images/park3.png","images/park1.png","[1,2,0]","2","1","2","images/park3.png","-1","practice","","","",""
"html-keyboard-response","57","300807","0.0-8.0-2.0-0.8","1898","2","2","""event"",""trial"",""time""
""fullscreenenter"",""1"",""3266""
","
","
","""event"",""trial"",""time""
""fullscreenenter"",""1"",""3266""
","
","","","","","","null","<div style=""font-size:60px;"">+</div>","null","","fixation","","","","","","","","","","","","","",""
"learning-trial","58","304809","0.0-8.0-2.0-1.8","1898","2","2","""event"",""trial"",""time""
""fullscreenenter"",""1"",""3266""
","
","
","""event"",""trial"",""time""
""fullscreenenter"",""1"",""3266""
","
","","","","","","1181.300000011921","images/racket1.png","","","practice","images/park3.png","images/park1.png","images/park2.png","[2,0,1]","0","1","2","images/park1.png","1","practice","","","",""
"html-keyboard-response","59","305310","0.0-8.0-2.0-0.9","1898","2","2","""event"",""trial"",""time""
""fullscreenenter"",""1"",""3266""
","
","
","""event"",""trial"",""time""
""fullscreenenter"",""1"",""3266""
","
","","","","","","null","<div style=""font-size:60px;"">+</div>","null","","fixation","","","","","","","","","","","","","",""
"learning-trial","60","309313","0.0-8.0-2.0-1.9","1898","2","2","""event"",""trial"",""time""
""fullscreenenter"",""1"",""3266""
","
","
","""event"",""trial"",""time""
""fullscreenenter"",""1"",""3266""
","
","","","","","","1453","images/ball1.png","","","practice","images/park3.png","images/park2.png","images/park1.png","[2,1,0]","1","1","2","images/park2.png","-1","practice","","","",""
"html-keyboard-response","61","309814","0.0-8.0-2.0-0.10","1898","2","2","""event"",""trial"",""time""
""fullscreenenter"",""1"",""3266""
","
","
","""event"",""trial"",""time""
""fullscreenenter"",""1"",""3266""
","
","","","","","","null","<div style=""font-size:60px;"">+</div>","null","","fixation","","","","","","","","","","","","","",""
"learning-trial","62","313817","0.0-8.0-2.0-1.10","1898","2","2","""event"",""trial"",""time""
""fullscreenenter"",""1"",""3266""
","
","
","""event"",""trial"",""time""
""fullscreenenter"",""1"",""3266""
","
","","","","","","836.6999999880791","images/ball1.png","","","practice","images/park1.png","images/park3.png","images/park2.png","[0,2,1]","1","2","3","images/park2.png","1","practice","","","",""
"html-keyboard-response","63","314322","0.0-8.0-2.0-0.11","1898","2","2","""event"",""trial"",""time""
""fullscreenenter"",""1"",""3266""
","
","
","""event"",""trial"",""time""
""fullscreenenter"",""1"",""3266""
","
","","","","","","null","<div style=""font-size:60px;"">+</div>","null","","fixation","","","","","","","","","","","","","",""
"learning-trial","64","318325","0.0-8.0-2.0-1.11","1898","2","2","""event"",""trial"",""time""
""fullscreenenter"",""1"",""3266""
","
","
","""event"",""trial"",""time""
""fullscreenenter"",""1"",""3266""
","
","","","","","","1602.199999988079","images/racket4.png","","","practice","images/park3.png","images/park1.png","images/park2.png","[2,0,1]","1","2","2","images/park1.png","1","practice","","","",""
"html-button-response","65","320260","0.0-8.0-3.0","1898","2","2","""event"",""trial"",""time""
""fullscreenenter"",""1"",""3266""
","
","
","""event"",""trial"",""time""
""fullscreenenter"",""1"",""3266""
","
","","","","","","1934","<p> You earned 2 points in the practice round! </p>","0","","break","","","","","","","","","","","","","",""
"learning-instructions","66","329432","0.0-8.0-4.0-0.0","1898","2","2","""event"",""trial"",""time""
""fullscreenenter"",""1"",""3266""
","
","
","""event"",""trial"",""time""
""fullscreenenter"",""1"",""3266""
","
","","","","","","1010.6000000238419","<p> It's almost time to start the real game. </p><p> Before you start, we're going to ask you a few questions about how the game works. </p>","","0","instructions","","","","","","","","","","","","","",""
"preload","67","331353","0.0-8.0-5.0","1898","2","2","""event"",""trial"",""time""
""fullscreenenter"",""1"",""3266""
","
","
","""event"",""trial"",""time""
""fullscreenenter"",""1"",""3266""
","
","true","false","[]","[]","[]","","","","","","","","","","","","","","","","","","",""
"comp-q","68","338147","0.0-8.0-6.0-0.0","1898","2","2","""event"",""trial"",""time""
""fullscreenenter"",""1"",""3266""
","
","
","""event"",""trial"",""time""
""fullscreenenter"",""1"",""3266""
","
","","","","","","1335.2999999821186","<p> <b> True or False? </b> </p><p> If you choose the best option, you will always earn 1 point. </p>","","0","comp_question","","","","","","","","","","","false","","",""
"comp-q","69","345137","0.0-8.0-6.0-1.0","1898","2","2","""event"",""trial"",""time""
""fullscreenenter"",""1"",""3266""
","
","
","""event"",""trial"",""time""
""fullscreenenter"",""1"",""3266""
","
","","","","","","1425.199999988079","<p><b> Incorrect. </b> Sometimes you will lose 1 point, even if you choose the best option. </p>","","0","comp_answer","","","","","","","","","","","","","",""
"comp-q","70","351084","0.0-8.0-6.0-0.1","1898","2","2","""event"",""trial"",""time""
""fullscreenenter"",""1"",""3266""
","
","
","""event"",""trial"",""time""
""fullscreenenter"",""1"",""3266""
","
","","","","","","1313","<p> <b> True or False? </b> </p><p> You will have as much time as you want to make each choice. </p>","","1","comp_question","","","","","","","","","","","true","","",""
"comp-q","71","357296","0.0-8.0-6.0-1.1","1898","2","2","""event"",""trial"",""time""
""fullscreenenter"",""1"",""3266""
","
","
","""event"",""trial"",""time""
""fullscreenenter"",""1"",""3266""
","
","","","","","","1384.199999988079","<p> <b> That's right! </b> You will only have 4 seconds to make each choice. </p>","","0","comp_answer","","","","","","","","","","","","","",""
"comp-q","72","364126","0.0-8.0-6.0-0.2","1898","2","2","""event"",""trial"",""time""
""fullscreenenter"",""1"",""3266""
","
","
","""event"",""trial"",""time""
""fullscreenenter"",""1"",""3266""
","
","","","","","","674.4000000059605","<p> <b> True or False? </b> </p><p> You should use the '1', '2', and '3' keys to make your choices. </p>","","0","comp_question","","","","","","","","","","","true","","",""
"comp-q","73","369938","0.0-8.0-6.0-1.2","1898","2","2","""event"",""trial"",""time""
""fullscreenenter"",""1"",""3266""
","
","
","""event"",""trial"",""time""
""fullscreenenter"",""1"",""3266""
","
","","","","","","966.3999999761581","<p> <b> That's right! </b> You should use the '1', '2', and '3' keys to make each choice. </p>","","0","comp_answer","","","","","","","","","","","","","",""
"learning-instructions","74","379105","0.0-8.0-7.0-0.0","1898","2","2","""event"",""trial"",""time""
""fullscreenenter"",""1"",""3266""
","
","
","""event"",""trial"",""time""
""fullscreenenter"",""1"",""3266""
","
","","","","","","684.5999999940395","<p> It's now time to start the real game. </p>Do your best, because the points you earn in the next rounds will influence your bonus payment. </p>","","0","instructions","","","","","","","","","","","","","",""
"preload","75","381739","0.0-9.0-0.0","1898","2","2","""event"",""trial"",""time""
""fullscreenenter"",""1"",""3266""
","
","
","""event"",""trial"",""time""
""fullscreenenter"",""1"",""3266""
","
","true","false","[]","[]","[]","","","","","","","","","","","","","","","","","","",""
"learning-instructions","76","392087","0.0-9.0-1.0-0.0","1898","2","2","""event"",""trial"",""time""
""fullscreenenter"",""1"",""3266""
","
","
","""event"",""trial"",""time""
""fullscreenenter"",""1"",""3266""
","
","","","","","","2025.4000000059605","<p> Your goal in this round is to travel the world by putting fuel into different vehicles. </p><p> To travel, you will need to put fuel into many different vehicles. </p></div>","","0","instructions","","","","","","","","","","","","","",""
"learning-instructions","77","401772","0.0-9.0-1.0-0.1","1898","2","2","""event"",""trial"",""time""
""fullscreenenter"",""1"",""3266""
","
","
","""event"",""trial"",""time""
""fullscreenenter"",""1"",""3266""
","
","","","","","","880.2999999821186","<p> On each turn, you will see a picture of one of your vehicles and three different types of fuel.  </p><p> You need to select which kind of fuel to use.  </p>","","0","instructions","","","","","","","","","","","","","",""
"learning-instructions","78","410841","0.0-9.0-1.0-0.2","1898","2","2","""event"",""trial"",""time""
""fullscreenenter"",""1"",""3266""
","
","
","""event"",""trial"",""time""
""fullscreenenter"",""1"",""3266""
","
","","","","","","2189.9000000059605","<p> You can select the fuel on the left by pressing 1, the fuel in the middle by pressing 2, and the fuel on the right by pressing 3. </p><br><div class=""choice-instructions-grid""> <div class=""choice-option""><img src=""images/vehicles_choice1.png"" class=""choice-option-img"" stage=""instructions"" position=""0"" ><div class=""choice-option-text""> Press ""1."" </div></div><div class=""choice-option""><img src=""images/vehicles_choice2.png"" class=""choice-option-img"" stage=""instructions"" position=""1"" ><div class=""choice-option-text""> Press ""2."" </div></div><div class=""choice-option""><img src=""images/vehicles_choice3.png"" class=""choice-option-img"" stage=""instructions"" position=""2"" ><div class=""choice-option-text""> Press ""3."" </div></div></div>","","0","instructions","","","","","","","","","","","","","",""
"learning-instructions","79","416548","0.0-9.0-1.0-0.3","1898","2","2","""event"",""trial"",""time""
""fullscreenenter"",""1"",""3266""
","
","
","""event"",""trial"",""time""
""fullscreenenter"",""1"",""3266""
","
","","","","","","477.19999998807907","<p> If the fuel you chose works for that vehicle, it will start, and </p><p> you will get to travel. </p><div style='float: center;'><img src='images/check.png' width = '200' height = '200'></img>","","0","instructions","","","","","","","","","","","","","",""
"learning-instructions","80","422080","0.0-9.0-1.0-0.4","1898","2","2","""event"",""trial"",""time""
""fullscreenenter"",""1"",""3266""
","
","
","""event"",""trial"",""time""
""fullscreenenter"",""1"",""3266""
","
","","","","","","998.5999999940395","<p> But, if the fuel you chose does not work, your vehicle will not move. </p><div style='float: center;'><img src='images/x.png' width = '200' height = '200'></img>","","0","instructions","","","","","","","","","","","","","",""
"learning-instructions","81","433280","0.0-9.0-1.0-0.5","1898","2","2","""event"",""trial"",""time""
""fullscreenenter"",""1"",""3266""
","
","
","""event"",""trial"",""time""
""fullscreenenter"",""1"",""3266""
","
","","","","","","509","<p> Importantly, each vehicle has a fuel that works best for it. </p><p> If you choose the fuel that works best for the vehicle, it will be more likely to start. </p>","","0","instructions","","","","","","","","","","","","","",""
"learning-instructions","82","445792","0.0-9.0-1.0-0.6","1898","2","2","""event"",""trial"",""time""
""fullscreenenter"",""1"",""3266""
","
","
","""event"",""trial"",""time""
""fullscreenenter"",""1"",""3266""
","
","","","","","","2290.5999999940395","<p> However, even if you choose the best fuel for the vehicle, it may still not move. </p><p> Similarly, even if you choose the <i>wrong</i> fuel, the vehicle may still start and let you travel.","","0","instructions","","","","","","","","","","","","","",""
"learning-instructions","83","458916","0.0-9.0-1.0-0.7","1898","2","2","""event"",""trial"",""time""
""fullscreenenter"",""1"",""3266""
","
","
","""event"",""trial"",""time""
""fullscreenenter"",""1"",""3266""
","
","","","","","","765","<p> Try to choose the best fuel for each vehicle, because you will <b> WIN </b> 1 point each time you get to travel and <b>LOSE</b> 1 point each time a vehicle does not start. </p><p> Your bonus payment will depend on your total number of points.","","0","instructions","","","","","","","","","","","","","",""
"learning-instructions","84","468133","0.0-9.0-1.0-0.8","1898","2","2","""event"",""trial"",""time""
""fullscreenenter"",""1"",""3266""
","
","
","""event"",""trial"",""time""
""fullscreenenter"",""1"",""3266""
","
","","","","","","972.5","<p> The position of each type of fuel will change throughout the round. </p><p> The fuel's position <i> does not </i> influence how likely it is to make each vehicle start. </p>","","0","instructions","","","","","","","","","","","","","",""
"learning-instructions","85","478266","0.0-9.0-1.0-0.9","1898","2","2","""event"",""trial"",""time""
""fullscreenenter"",""1"",""3266""
","
","
","""event"",""trial"",""time""
""fullscreenenter"",""1"",""3266""
","
","","","","","","835.8000000119209","<p> You will have 4 seconds to make each choice. Try to respond before time runs out! </p><p> You will lose 1 point each time you do not make a response. </p>","","0","instructions","","","","","","","","","","","","","",""
"html-keyboard-response","86","478877","0.0-9.0-2.0-0.0","1898","2","2","""event"",""trial"",""time""
""fullscreenenter"",""1"",""3266""
","
","
","""event"",""trial"",""time""
""fullscreenenter"",""1"",""3266""
","
","","","","","","null","<div style=""font-size:60px;"">+</div>","null","","fixation","","","","","","","","","","","","","",""
"learning-trial","87","482887","0.0-9.0-2.0-1.0","1898","2","2","""event"",""trial"",""time""
""fullscreenenter"",""1"",""3266""
","
","
","""event"",""trial"",""time""
""fullscreenenter"",""1"",""3266""
","
","","","","","","2526.199999988079","images/train1.png","","","learning","images/vehicles_choice3.png","images/vehicles_choice1.png","images/vehicles_choice2.png","[2,0,1]","0","1","2","images/vehicles_choice1.png","1","vehicles","","train","2","0"
"html-keyboard-response","88","483398","0.0-9.0-2.0-0.1","1898","2","2","""event"",""trial"",""time""
""fullscreenenter"",""1"",""3266""
","
","
","""event"",""trial"",""time""
""fullscreenenter"",""1"",""3266""
","
","","","","","","null","<div style=""font-size:60px;"">+</div>","null","","fixation","","","","","","","","","","","","","",""
"learning-trial","89","487407","0.0-9.0-2.0-1.1","1898","2","2","""event"",""trial"",""time""
""fullscreenenter"",""1"",""3266""
","
","
","""event"",""trial"",""time""
""fullscreenenter"",""1"",""3266""
","
","","","","","","1076","images/train5.png","","","learning","images/vehicles_choice3.png","images/vehicles_choice2.png","images/vehicles_choice1.png","[2,1,0]","1","1","3","images/vehicles_choice1.png","-1","vehicles","","train","2","0"
"html-keyboard-response","90","487918","0.0-9.0-2.0-0.2","1898","2","2","""event"",""trial"",""time""
""fullscreenenter"",""1"",""3266""
","
","
","""event"",""trial"",""time""
""fullscreenenter"",""1"",""3266""
","
","","","","","","null","<div style=""font-size:60px;"">+</div>","null","","fixation","","","","","","","","","","","","","",""
"learning-trial","91","491929","0.0-9.0-2.0-1.2","1898","2","2","""event"",""trial"",""time""
""fullscreenenter"",""1"",""3266""
","
","
","""event"",""trial"",""time""
""fullscreenenter"",""1"",""3266""
","
","","","","","","927.2999999821186","images/plane2.png","","","learning","images/vehicles_choice2.png","images/vehicles_choice1.png","images/vehicles_choice3.png","[1,0,2]","1","0","3","images/vehicles_choice3.png","-1","vehicles","","plane","2","0"
"html-keyboard-response","92","492440","0.0-9.0-2.0-0.3","1898","2","2","""event"",""trial"",""time""
""fullscreenenter"",""1"",""3266""
","
","
","""event"",""trial"",""time""
""fullscreenenter"",""1"",""3266""
","
","","","","","","null","<div style=""font-size:60px;"">+</div>","null","","fixation","","","","","","","","","","","","","",""
"learning-trial","93","496442","0.0-9.0-2.0-1.3","1898","2","2","""event"",""trial"",""time""
""fullscreenenter"",""1"",""3266""
","
","
","""event"",""trial"",""time""
""fullscreenenter"",""1"",""3266""
","
","","","","","","962.6999999880791","images/boat4.png","","","learning","images/vehicles_choice2.png","images/vehicles_choice3.png","images/vehicles_choice1.png","[1,2,0]","0","2","1","images/vehicles_choice2.png","-1","vehicles","","boat","2","0"
"html-keyboard-response","94","496943","0.0-9.0-2.0-0.4","1898","2","2","""event"",""trial"",""time""
""fullscreenenter"",""1"",""3266""
","
","
","""event"",""trial"",""time""
""fullscreenenter"",""1"",""3266""
","
","","","","","","null","<div style=""font-size:60px;"">+</div>","null","","fixation","","","","","","","","","","","","","",""
"learning-trial","95","500955","0.0-9.0-2.0-1.4","1898","2","2","""event"",""trial"",""time""
""fullscreenenter"",""1"",""3266""
","
","
","""event"",""trial"",""time""
""fullscreenenter"",""1"",""3266""
","
","","","","","","1163.800000011921","images/plane2.png","","","learning","images/vehicles_choice2.png","images/vehicles_choice3.png","images/vehicles_choice1.png","[1,2,0]","1","0","2","images/vehicles_choice3.png","-1","vehicles","","plane","2","0"
"html-keyboard-response","96","501469","0.0-9.0-2.0-0.5","1898","2","2","""event"",""trial"",""time""
""fullscreenenter"",""1"",""3266""
","
","
","""event"",""trial"",""time""
""fullscreenenter"",""1"",""3266""
","
","","","","","","null","<div style=""font-size:60px;"">+</div>","null","","fixation","","","","","","","","","","","","","",""
"learning-trial","97","505471","0.0-9.0-2.0-1.5","1898","2","2","""event"",""trial"",""time""
""fullscreenenter"",""1"",""3266""
","
","
","""event"",""trial"",""time""
""fullscreenenter"",""1"",""3266""
","
","","","","","","893.2000000178814","images/train2.png","","","learning","images/vehicles_choice1.png","images/vehicles_choice2.png","images/vehicles_choice3.png","[0,1,2]","2","2","2","images/vehicles_choice2.png","1","vehicles","","train","2","0"
"html-keyboard-response","98","505981","0.0-9.0-2.0-0.6","1898","2","2","""event"",""trial"",""time""
""fullscreenenter"",""1"",""3266""
","
","
","""event"",""trial"",""time""
""fullscreenenter"",""1"",""3266""
","
","","","","","","null","<div style=""font-size:60px;"">+</div>","null","","fixation","","","","","","","","","","","","","",""
"learning-trial","99","509983","0.0-9.0-2.0-1.6","1898","2","2","""event"",""trial"",""time""
""fullscreenenter"",""1"",""3266""
","
","
","""event"",""trial"",""time""
""fullscreenenter"",""1"",""3266""
","
","","","","","","646.7000000178814","images/plane1.png","","","learning","images/vehicles_choice2.png","images/vehicles_choice1.png","images/vehicles_choice3.png","[1,0,2]","2","2","2","images/vehicles_choice1.png","1","vehicles","","plane","2","0"
"html-keyboard-response","100","510485","0.0-9.0-2.0-0.7","1898","2","2","""event"",""trial"",""time""
""fullscreenenter"",""1"",""3266""
","
","
","""event"",""trial"",""time""
""fullscreenenter"",""1"",""3266""
","
","","","","","","null","<div style=""font-size:60px;"">+</div>","null","","fixation","","","","","","","","","","","","","",""
"learning-trial","101","514489","0.0-9.0-2.0-1.7","1898","2","2","""event"",""trial"",""time""
""fullscreenenter"",""1"",""3266""
","
","
","""event"",""trial"",""time""
""fullscreenenter"",""1"",""3266""
","
","","","","","","715.5","images/plane1.png","","","learning","images/vehicles_choice3.png","images/vehicles_choice2.png","images/vehicles_choice1.png","[2,1,0]","2","0","2","images/vehicles_choice2.png","-1","vehicles","","plane","2","0"
"html-keyboard-response","102","514990","0.0-9.0-2.0-0.8","1898","2","2","""event"",""trial"",""time""
""fullscreenenter"",""1"",""3266""
","
","
","""event"",""trial"",""time""
""fullscreenenter"",""1"",""3266""
","
","","","","","","null","<div style=""font-size:60px;"">+</div>","null","","fixation","","","","","","","","","","","","","",""
"learning-trial","103","518994","0.0-9.0-2.0-1.8","1898","2","2","""event"",""trial"",""time""
""fullscreenenter"",""1"",""3266""
","
","
","""event"",""trial"",""time""
""fullscreenenter"",""1"",""3266""
","
","","","","","","1188.699999988079","images/train1.png","","","learning","images/vehicles_choice3.png","images/vehicles_choice1.png","images/vehicles_choice2.png","[2,0,1]","0","1","2","images/vehicles_choice1.png","1","vehicles","","train","2","0"
"html-keyboard-response","104","519495","0.0-9.0-2.0-0.9","1898","2","2","""event"",""trial"",""time""
""fullscreenenter"",""1"",""3266""
","
","
","""event"",""trial"",""time""
""fullscreenenter"",""1"",""3266""
","
","","","","","","null","<div style=""font-size:60px;"">+</div>","null","","fixation","","","","","","","","","","","","","",""
"learning-trial","105","523498","0.0-9.0-2.0-1.9","1898","2","2","""event"",""trial"",""time""
""fullscreenenter"",""1"",""3266""
","
","
","""event"",""trial"",""time""
""fullscreenenter"",""1"",""3266""
","
","","","","","","1044.7999999821186","images/plane2.png","","","learning","images/vehicles_choice2.png","images/vehicles_choice1.png","images/vehicles_choice3.png","[1,0,2]","1","0","3","images/vehicles_choice3.png","-1","vehicles","","plane","2","0"
"html-keyboard-response","106","523998","0.0-9.0-2.0-0.10","1898","2","2","""event"",""trial"",""time""
""fullscreenenter"",""1"",""3266""
","
","
","""event"",""trial"",""time""
""fullscreenenter"",""1"",""3266""
","
","","","","","","null","<div style=""font-size:60px;"">+</div>","null","","fixation","","","","","","","","","","","","","",""
"learning-trial","107","528000","0.0-9.0-2.0-1.10","1898","2","2","""event"",""trial"",""time""
""fullscreenenter"",""1"",""3266""
","
","
","""event"",""trial"",""time""
""fullscreenenter"",""1"",""3266""
","
","","","","","","844.6999999880791","images/boat2.png","","","learning","images/vehicles_choice3.png","images/vehicles_choice1.png","images/vehicles_choice2.png","[2,0,1]","2","0","3","images/vehicles_choice2.png","-1","vehicles","","boat","2","0"
"html-keyboard-response","108","528501","0.0-9.0-2.0-0.11","1898","2","2","""event"",""trial"",""time""
""fullscreenenter"",""1"",""3266""
","
","
","""event"",""trial"",""time""
""fullscreenenter"",""1"",""3266""
","
","","","","","","null","<div style=""font-size:60px;"">+</div>","null","","fixation","","","","","","","","","","","","","",""
"learning-trial","109","532504","0.0-9.0-2.0-1.11","1898","2","2","""event"",""trial"",""time""
""fullscreenenter"",""1"",""3266""
","
","
","""event"",""trial"",""time""
""fullscreenenter"",""1"",""3266""
","
","","","","","","806.2000000178814","images/boat4.png","","","learning","images/vehicles_choice1.png","images/vehicles_choice2.png","images/vehicles_choice3.png","[0,1,2]","0","0","1","images/vehicles_choice1.png","1","vehicles","","boat","2","0"
"html-keyboard-response","110","533005","0.0-9.0-2.0-0.12","1898","2","2","""event"",""trial"",""time""
""fullscreenenter"",""1"",""3266""
","
","
","""event"",""trial"",""time""
""fullscreenenter"",""1"",""3266""
","
","","","","","","null","<div style=""font-size:60px;"">+</div>","null","","fixation","","","","","","","","","","","","","",""
"learning-trial","111","537007","0.0-9.0-2.0-1.12","1898","2","2","""event"",""trial"",""time""
""fullscreenenter"",""1"",""3266""
","
","
","""event"",""trial"",""time""
""fullscreenenter"",""1"",""3266""
","
","","","","","","605.8000000119209","images/boat3.png","","","learning","images/vehicles_choice3.png","images/vehicles_choice2.png","images/vehicles_choice1.png","[2,1,0]","1","1","3","images/vehicles_choice1.png","1","vehicles","","boat","2","0"
"html-keyboard-response","112","537508","0.0-9.0-2.0-0.13","1898","2","2","""event"",""trial"",""time""
""fullscreenenter"",""1"",""3266""
","
","
","""event"",""trial"",""time""
""fullscreenenter"",""1"",""3266""
","
","","","","","","null","<div style=""font-size:60px;"">+</div>","null","","fixation","","","","","","","","","","","","","",""
"learning-trial","113","541511","0.0-9.0-2.0-1.13","1898","2","2","""event"",""trial"",""time""
""fullscreenenter"",""1"",""3266""
","
","
","""event"",""trial"",""time""
""fullscreenenter"",""1"",""3266""
","
","","","","","","758.7000000178814","images/boat3.png","","","learning","images/vehicles_choice3.png","images/vehicles_choice2.png","images/vehicles_choice1.png","[2,1,0]","1","1","3","images/vehicles_choice1.png","1","vehicles","","boat","2","0"
"html-keyboard-response","114","542012","0.0-9.0-2.0-0.14","1898","2","2","""event"",""trial"",""time""
""fullscreenenter"",""1"",""3266""
","
","
","""event"",""trial"",""time""
""fullscreenenter"",""1"",""3266""
","
","","","","","","null","<div style=""font-size:60px;"">+</div>","null","","fixation","","","","","","","","","","","","","",""
"learning-trial","115","546014","0.0-9.0-2.0-1.14","1898","2","2","""event"",""trial"",""time""
""fullscreenenter"",""1"",""3266""
","
","
","""event"",""trial"",""time""
""fullscreenenter"",""1"",""3266""
","
","","","","","","991.5","images/plane1.png","","","learning","images/vehicles_choice2.png","images/vehicles_choice1.png","images/vehicles_choice3.png","[1,0,2]","2","2","2","images/vehicles_choice1.png","-1","vehicles","","plane","2","0"
"html-keyboard-response","116","546515","0.0-9.0-2.0-0.15","1898","2","2","""event"",""trial"",""time""
""fullscreenenter"",""1"",""3266""
","
","
","""event"",""trial"",""time""
""fullscreenenter"",""1"",""3266""
","
","","","","","","null","<div style=""font-size:60px;"">+</div>","null","","fixation","","","","","","","","","","","","","",""
"learning-trial","117","550518","0.0-9.0-2.0-1.15","1898","2","2","""event"",""trial"",""time""
""fullscreenenter"",""1"",""3266""
","
","
","""event"",""trial"",""time""
""fullscreenenter"",""1"",""3266""
","
","","","","","","879.1999999880791","images/plane2.png","","","learning","images/vehicles_choice1.png","images/vehicles_choice3.png","images/vehicles_choice2.png","[0,2,1]","1","2","3","images/vehicles_choice2.png","-1","vehicles","","plane","2","0"
"html-keyboard-response","118","551020","0.0-9.0-2.0-0.16","1898","2","2","""event"",""trial"",""time""
""fullscreenenter"",""1"",""3266""
","
","
","""event"",""trial"",""time""
""fullscreenenter"",""1"",""3266""
","
","","","","","","null","<div style=""font-size:60px;"">+</div>","null","","fixation","","","","","","","","","","","","","",""
"learning-trial","119","555023","0.0-9.0-2.0-1.16","1898","2","2","""event"",""trial"",""time""
""fullscreenenter"",""1"",""3266""
","
","
","""event"",""trial"",""time""
""fullscreenenter"",""1"",""3266""
","
","","","","","","910.5","images/train5.png","","","learning","images/vehicles_choice2.png","images/vehicles_choice1.png","images/vehicles_choice3.png","[1,0,2]","1","0","2","images/vehicles_choice1.png","-1","vehicles","","train","2","0"
"html-keyboard-response","120","555524","0.0-9.0-2.0-0.17","1898","2","2","""event"",""trial"",""time""
""fullscreenenter"",""1"",""3266""
","
","
","""event"",""trial"",""time""
""fullscreenenter"",""1"",""3266""
","
","","","","","","null","<div style=""font-size:60px;"">+</div>","null","","fixation","","","","","","","","","","","","","",""
"learning-trial","121","559527","0.0-9.0-2.0-1.17","1898","2","2","""event"",""trial"",""time""
""fullscreenenter"",""1"",""3266""
","
","
","""event"",""trial"",""time""
""fullscreenenter"",""1"",""3266""
","
","","","","","","1110.8999999761581","images/plane2.png","","","learning","images/vehicles_choice1.png","images/vehicles_choice2.png","images/vehicles_choice3.png","[0,1,2]","1","1","3","images/vehicles_choice3.png","1","vehicles","","plane","2","0"
"html-keyboard-response","122","560028","0.0-9.0-2.0-0.18","1898","2","2","""event"",""trial"",""time""
""fullscreenenter"",""1"",""3266""
","
","
","""event"",""trial"",""time""
""fullscreenenter"",""1"",""3266""
","
","","","","","","null","<div style=""font-size:60px;"">+</div>","null","","fixation","","","","","","","","","","","","","",""
"learning-trial","123","564030","0.0-9.0-2.0-1.18","1898","2","2","""event"",""trial"",""time""
""fullscreenenter"",""1"",""3266""
","
","
","""event"",""trial"",""time""
""fullscreenenter"",""1"",""3266""
","
","","","","","","862.6999999880791","images/plane4.png","","","learning","images/vehicles_choice1.png","images/vehicles_choice3.png","images/vehicles_choice2.png","[0,2,1]","0","0","3","images/vehicles_choice2.png","1","vehicles","","plane","2","0"
"html-keyboard-response","124","564532","0.0-9.0-2.0-0.19","1898","2","2","""event"",""trial"",""time""
""fullscreenenter"",""1"",""3266""
","
","
","""event"",""trial"",""time""
""fullscreenenter"",""1"",""3266""
","
","","","","","","null","<div style=""font-size:60px;"">+</div>","null","","fixation","","","","","","","","","","","","","",""
"learning-trial","125","568534","0.0-9.0-2.0-1.19","1898","2","2","""event"",""trial"",""time""
""fullscreenenter"",""1"",""3266""
","
","
","""event"",""trial"",""time""
""fullscreenenter"",""1"",""3266""
","
","","","","","","1167.2999999821186","images/train5.png","","","learning","images/vehicles_choice2.png","images/vehicles_choice1.png","images/vehicles_choice3.png","[1,0,2]","1","0","1","images/vehicles_choice2.png","1","vehicles","","train","2","0"
"html-keyboard-response","126","569036","0.0-9.0-2.0-0.20","1898","2","2","""event"",""trial"",""time""
""fullscreenenter"",""1"",""3266""
","
","
","""event"",""trial"",""time""
""fullscreenenter"",""1"",""3266""
","
","","","","","","null","<div style=""font-size:60px;"">+</div>","null","","fixation","","","","","","","","","","","","","",""
"learning-trial","127","573039","0.0-9.0-2.0-1.20","1898","2","2","""event"",""trial"",""time""
""fullscreenenter"",""1"",""3266""
","
","
","""event"",""trial"",""time""
""fullscreenenter"",""1"",""3266""
","
","","","","","","558.9000000059605","images/train5.png","","","learning","images/vehicles_choice2.png","images/vehicles_choice3.png","images/vehicles_choice1.png","[1,2,0]","1","0","1","images/vehicles_choice2.png","1","vehicles","","train","2","0"
"html-keyboard-response","128","573541","0.0-9.0-2.0-0.21","1898","2","2","""event"",""trial"",""time""
""fullscreenenter"",""1"",""3266""
","
","
","""event"",""trial"",""time""
""fullscreenenter"",""1"",""3266""
","
","","","","","","null","<div style=""font-size:60px;"">+</div>","null","","fixation","","","","","","","","","","","","","",""
"learning-trial","129","577543","0.0-9.0-2.0-1.21","1898","2","2","""event"",""trial"",""time""
""fullscreenenter"",""1"",""3266""
","
","
","""event"",""trial"",""time""
""fullscreenenter"",""1"",""3266""
","
","","","","","","989.9000000059605","images/plane2.png","","","learning","images/vehicles_choice1.png","images/vehicles_choice3.png","images/vehicles_choice2.png","[0,2,1]","1","2","3","images/vehicles_choice2.png","1","vehicles","","plane","2","0"
"html-keyboard-response","130","578045","0.0-9.0-2.0-0.22","1898","2","2","""event"",""trial"",""time""
""fullscreenenter"",""1"",""3266""
","
","
","""event"",""trial"",""time""
""fullscreenenter"",""1"",""3266""
","
","","","","","","null","<div style=""font-size:60px;"">+</div>","null","","fixation","","","","","","","","","","","","","",""
"learning-trial","131","582047","0.0-9.0-2.0-1.22","1898","2","2","""event"",""trial"",""time""
""fullscreenenter"",""1"",""3266""
","
","
","""event"",""trial"",""time""
""fullscreenenter"",""1"",""3266""
","
","","","","","","1094.4000000059605","images/train1.png","","","learning","images/vehicles_choice1.png","images/vehicles_choice3.png","images/vehicles_choice2.png","[0,2,1]","0","0","2","images/vehicles_choice3.png","-1","vehicles","","train","2","0"
"html-keyboard-response","132","582549","0.0-9.0-2.0-0.23","1898","2","2","""event"",""trial"",""time""
""fullscreenenter"",""1"",""3266""
","
","
","""event"",""trial"",""time""
""fullscreenenter"",""1"",""3266""
","
","","","","","","null","<div style=""font-size:60px;"">+</div>","null","","fixation","","","","","","","","","","","","","",""
"learning-trial","133","586550","0.0-9.0-2.0-1.23","1898","2","2","""event"",""trial"",""time""
""fullscreenenter"",""1"",""3266""
","
","
","""event"",""trial"",""time""
""fullscreenenter"",""1"",""3266""
","
","","","","","","1277.9000000059605","images/boat4.png","","","learning","images/vehicles_choice2.png","images/vehicles_choice3.png","images/vehicles_choice1.png","[1,2,0]","0","2","1","images/vehicles_choice2.png","1","vehicles","","boat","2","0"
"html-keyboard-response","134","587052","0.0-9.0-2.0-0.24","1898","2","2","""event"",""trial"",""time""
""fullscreenenter"",""1"",""3266""
","
","
","""event"",""trial"",""time""
""fullscreenenter"",""1"",""3266""
","
","","","","","","null","<div style=""font-size:60px;"">+</div>","null","","fixation","","","","","","","","","","","","","",""
"learning-trial","135","591054","0.0-9.0-2.0-1.24","1898","2","2","""event"",""trial"",""time""
""fullscreenenter"",""1"",""3266""
","
","
","""event"",""trial"",""time""
""fullscreenenter"",""1"",""3266""
","
","","","","","","839.2000000178814","images/boat4.png","","","learning","images/vehicles_choice1.png","images/vehicles_choice3.png","images/vehicles_choice2.png","[0,2,1]","0","0","3","images/vehicles_choice2.png","-1","vehicles","","boat","2","0"
"html-keyboard-response","136","591556","0.0-9.0-2.0-0.25","1898","2","2","""event"",""trial"",""time""
""fullscreenenter"",""1"",""3266""
","
","
","""event"",""trial"",""time""
""fullscreenenter"",""1"",""3266""
","
","","","","","","null","<div style=""font-size:60px;"">+</div>","null","","fixation","","","","","","","","","","","","","",""
"learning-trial","137","595560","0.0-9.0-2.0-1.25","1898","2","2","""event"",""trial"",""time""
""fullscreenenter"",""1"",""3266""
","
","
","""event"",""trial"",""time""
""fullscreenenter"",""1"",""3266""
","
","","","","","","1182.2999999821186","images/boat2.png","","","learning","images/vehicles_choice3.png","images/vehicles_choice1.png","images/vehicles_choice2.png","[2,0,1]","2","0","2","images/vehicles_choice1.png","-1","vehicles","","boat","2","0"
"html-keyboard-response","138","596061","0.0-9.0-2.0-0.26","1898","2","2","""event"",""trial"",""time""
""fullscreenenter"",""1"",""3266""
","
","
","""event"",""trial"",""time""
""fullscreenenter"",""1"",""3266""
","
","","","","","","null","<div style=""font-size:60px;"">+</div>","null","","fixation","","","","","","","","","","","","","",""
"learning-trial","139","600068","0.0-9.0-2.0-1.26","1898","2","2","""event"",""trial"",""time""
""fullscreenenter"",""1"",""3266""
","
","
","""event"",""trial"",""time""
""fullscreenenter"",""1"",""3266""
","
","","","","","","1222.4000000059605","images/plane4.png","","","learning","images/vehicles_choice1.png","images/vehicles_choice3.png","images/vehicles_choice2.png","[0,2,1]","0","0","2","images/vehicles_choice3.png","-1","vehicles","","plane","2","0"
"html-keyboard-response","140","600569","0.0-9.0-2.0-0.27","1898","2","2","""event"",""trial"",""time""
""fullscreenenter"",""1"",""3266""
","
","
","""event"",""trial"",""time""
""fullscreenenter"",""1"",""3266""
","
","","","","","","null","<div style=""font-size:60px;"">+</div>","null","","fixation","","","","","","","","","","","","","",""
"learning-trial","141","604571","0.0-9.0-2.0-1.27","1898","2","2","""event"",""trial"",""time""
""fullscreenenter"",""1"",""3266""
","
","
","""event"",""trial"",""time""
""fullscreenenter"",""1"",""3266""
","
","","","","","","1817.5999999940395","images/boat2.png","","","learning","images/vehicles_choice1.png","images/vehicles_choice2.png","images/vehicles_choice3.png","[0,1,2]","2","2","1","images/vehicles_choice1.png","1","vehicles","","boat","2","0"
"html-keyboard-response","142","605072","0.0-9.0-2.0-0.28","1898","2","2","""event"",""trial"",""time""
""fullscreenenter"",""1"",""3266""
","
","
","""event"",""trial"",""time""
""fullscreenenter"",""1"",""3266""
","
","","","","","","null","<div style=""font-size:60px;"">+</div>","null","","fixation","","","","","","","","","","","","","",""
"learning-trial","143","609077","0.0-9.0-2.0-1.28","1898","2","2","""event"",""trial"",""time""
""fullscreenenter"",""1"",""3266""
","
","
","""event"",""trial"",""time""
""fullscreenenter"",""1"",""3266""
","
","","","","","","1713.699999988079","images/plane2.png","","","learning","images/vehicles_choice1.png","images/vehicles_choice3.png","images/vehicles_choice2.png","[0,2,1]","1","2","3","images/vehicles_choice2.png","1","vehicles","","plane","2","0"
"html-keyboard-response","144","609579","0.0-9.0-2.0-0.29","1898","2","2","""event"",""trial"",""time""
""fullscreenenter"",""1"",""3266""
","
","
","""event"",""trial"",""time""
""fullscreenenter"",""1"",""3266""
","
","","","","","","null","<div style=""font-size:60px;"">+</div>","null","","fixation","","","","","","","","","","","","","",""
"learning-trial","145","613581","0.0-9.0-2.0-1.29","1898","2","2","""event"",""trial"",""time""
""fullscreenenter"",""1"",""3266""
","
","
","""event"",""trial"",""time""
""fullscreenenter"",""1"",""3266""
","
","","","","","","697.3000000119209","images/boat2.png","","","learning","images/vehicles_choice3.png","images/vehicles_choice2.png","images/vehicles_choice1.png","[2,1,0]","2","0","3","images/vehicles_choice1.png","1","vehicles","","boat","2","0"
"html-keyboard-response","146","614082","0.0-9.0-2.0-0.30","1898","2","2","""event"",""trial"",""time""
""fullscreenenter"",""1"",""3266""
","
","
","""event"",""trial"",""time""
""fullscreenenter"",""1"",""3266""
","
","","","","","","null","<div style=""font-size:60px;"">+</div>","null","","fixation","","","","","","","","","","","","","",""
"learning-trial","147","618086","0.0-9.0-2.0-1.30","1898","2","2","""event"",""trial"",""time""
""fullscreenenter"",""1"",""3266""
","
","
","""event"",""trial"",""time""
""fullscreenenter"",""1"",""3266""
","
","","","","","","1280.0999999940395","images/train5.png","","","learning","images/vehicles_choice1.png","images/vehicles_choice3.png","images/vehicles_choice2.png","[0,2,1]","1","2","1","images/vehicles_choice1.png","1","vehicles","","train","2","0"
"html-keyboard-response","148","618587","0.0-9.0-2.0-0.31","1898","2","2","""event"",""trial"",""time""
""fullscreenenter"",""1"",""3266""
","
","
","""event"",""trial"",""time""
""fullscreenenter"",""1"",""3266""
","
","","","","","","null","<div style=""font-size:60px;"">+</div>","null","","fixation","","","","","","","","","","","","","",""
"learning-trial","149","622588","0.0-9.0-2.0-1.31","1898","2","2","""event"",""trial"",""time""
""fullscreenenter"",""1"",""3266""
","
","
","""event"",""trial"",""time""
""fullscreenenter"",""1"",""3266""
","
","","","","","","1008.8000000119209","images/plane1.png","","","learning","images/vehicles_choice2.png","images/vehicles_choice3.png","images/vehicles_choice1.png","[1,2,0]","2","1","2","images/vehicles_choice3.png","1","vehicles","","plane","2","0"
"html-keyboard-response","150","623090","0.0-9.0-2.0-0.32","1898","2","2","""event"",""trial"",""time""
""fullscreenenter"",""1"",""3266""
","
","
","""event"",""trial"",""time""
""fullscreenenter"",""1"",""3266""
","
","","","","","","null","<div style=""font-size:60px;"">+</div>","null","","fixation","","","","","","","","","","","","","",""
"learning-trial","151","627092","0.0-9.0-2.0-1.32","1898","2","2","""event"",""trial"",""time""
""fullscreenenter"",""1"",""3266""
","
","
","""event"",""trial"",""time""
""fullscreenenter"",""1"",""3266""
","
","","","","","","760.9000000059605","images/train5.png","","","learning","images/vehicles_choice1.png","images/vehicles_choice3.png","images/vehicles_choice2.png","[0,2,1]","1","2","2","images/vehicles_choice3.png","-1","vehicles","","train","2","0"
"html-keyboard-response","152","627594","0.0-9.0-2.0-0.33","1898","2","2","""event"",""trial"",""time""
""fullscreenenter"",""1"",""3266""
","
","
","""event"",""trial"",""time""
""fullscreenenter"",""1"",""3266""
","
","","","","","","null","<div style=""font-size:60px;"">+</div>","null","","fixation","","","","","","","","","","","","","",""
"learning-trial","153","631595","0.0-9.0-2.0-1.33","1898","2","2","""event"",""trial"",""time""
""fullscreenenter"",""1"",""3266""
","
","
","""event"",""trial"",""time""
""fullscreenenter"",""1"",""3266""
","
","","","","","","776.6999999880791","images/plane1.png","","","learning","images/vehicles_choice1.png","images/vehicles_choice2.png","images/vehicles_choice3.png","[0,1,2]","2","2","2","images/vehicles_choice2.png","-1","vehicles","","plane","2","0"
"html-keyboard-response","154","632097","0.0-9.0-2.0-0.34","1898","2","2","""event"",""trial"",""time""
""fullscreenenter"",""1"",""3266""
","
","
","""event"",""trial"",""time""
""fullscreenenter"",""1"",""3266""
","
","","","","","","null","<div style=""font-size:60px;"">+</div>","null","","fixation","","","","","","","","","","","","","",""
"learning-trial","155","636099","0.0-9.0-2.0-1.34","1898","2","2","""event"",""trial"",""time""
""fullscreenenter"",""1"",""3266""
","
","
","""event"",""trial"",""time""
""fullscreenenter"",""1"",""3266""
","
","","","","","","1002.2999999821186","images/train1.png","","","learning","images/vehicles_choice2.png","images/vehicles_choice1.png","images/vehicles_choice3.png","[1,0,2]","0","1","2","images/vehicles_choice1.png","1","vehicles","","train","2","0"
"html-keyboard-response","156","636600","0.0-9.0-2.0-0.35","1898","2","2","""event"",""trial"",""time""
""fullscreenenter"",""1"",""3266""
","
","
","""event"",""trial"",""time""
""fullscreenenter"",""1"",""3266""
","
","","","","","","null","<div style=""font-size:60px;"">+</div>","null","","fixation","","","","","","","","","","","","","",""
"learning-trial","157","640603","0.0-9.0-2.0-1.35","1898","2","2","""event"",""trial"",""time""
""fullscreenenter"",""1"",""3266""
","
","
","""event"",""trial"",""time""
""fullscreenenter"",""1"",""3266""
","
","","","","","","1074.4000000059605","images/train2.png","","","learning","images/vehicles_choice2.png","images/vehicles_choice1.png","images/vehicles_choice3.png","[1,0,2]","2","2","3","images/vehicles_choice3.png","1","vehicles","","train","2","0"
"html-keyboard-response","158","641105","0.0-9.0-2.0-0.36","1898","2","2","""event"",""trial"",""time""
""fullscreenenter"",""1"",""3266""
","
","
","""event"",""trial"",""time""
""fullscreenenter"",""1"",""3266""
","
","","","","","","null","<div style=""font-size:60px;"">+</div>","null","","fixation","","","","","","","","","","","","","",""
"learning-trial","159","645107","0.0-9.0-2.0-1.36","1898","2","2","""event"",""trial"",""time""
""fullscreenenter"",""1"",""3266""
","
","
","""event"",""trial"",""time""
""fullscreenenter"",""1"",""3266""
","
","","","","","","1209.0999999940395","images/train2.png","","","learning","images/vehicles_choice3.png","images/vehicles_choice2.png","images/vehicles_choice1.png","[2,1,0]","2","0","1","images/vehicles_choice3.png","1","vehicles","","train","2","0"
"html-keyboard-response","160","645608","0.0-9.0-2.0-0.37","1898","2","2","""event"",""trial"",""time""
""fullscreenenter"",""1"",""3266""
","
","
","""event"",""trial"",""time""
""fullscreenenter"",""1"",""3266""
","
","","","","","","null","<div style=""font-size:60px;"">+</div>","null","","fixation","","","","","","","","","","","","","",""
"learning-trial","161","649610","0.0-9.0-2.0-1.37","1898","2","2","""event"",""trial"",""time""
""fullscreenenter"",""1"",""3266""
","
","
","""event"",""trial"",""time""
""fullscreenenter"",""1"",""3266""
","
","","","","","","930.5","images/plane2.png","","","learning","images/vehicles_choice3.png","images/vehicles_choice1.png","images/vehicles_choice2.png","[2,0,1]","1","2","3","images/vehicles_choice2.png","1","vehicles","","plane","2","0"
"html-keyboard-response","162","650112","0.0-9.0-2.0-0.38","1898","2","2","""event"",""trial"",""time""
""fullscreenenter"",""1"",""3266""
","
","
","""event"",""trial"",""time""
""fullscreenenter"",""1"",""3266""
","
","","","","","","null","<div style=""font-size:60px;"">+</div>","null","","fixation","","","","","","","","","","","","","",""
"learning-trial","163","654115","0.0-9.0-2.0-1.38","1898","2","2","""event"",""trial"",""time""
""fullscreenenter"",""1"",""3266""
","
","
","""event"",""trial"",""time""
""fullscreenenter"",""1"",""3266""
","
","","","","","","921.7999999821186","images/train1.png","","","learning","images/vehicles_choice3.png","images/vehicles_choice2.png","images/vehicles_choice1.png","[2,1,0]","0","2","3","images/vehicles_choice1.png","1","vehicles","","train","2","0"
"html-keyboard-response","164","654616","0.0-9.0-2.0-0.39","1898","2","2","""event"",""trial"",""time""
""fullscreenenter"",""1"",""3266""
","
","
","""event"",""trial"",""time""
""fullscreenenter"",""1"",""3266""
","
","","","","","","null","<div style=""font-size:60px;"">+</div>","null","","fixation","","","","","","","","","","","","","",""
"learning-trial","165","658619","0.0-9.0-2.0-1.39","1898","2","2","""event"",""trial"",""time""
""fullscreenenter"",""1"",""3266""
","
","
","""event"",""trial"",""time""
""fullscreenenter"",""1"",""3266""
","
","","","","","","786.6999999880791","images/boat2.png","","","learning","images/vehicles_choice3.png","images/vehicles_choice2.png","images/vehicles_choice1.png","[2,1,0]","2","0","2","images/vehicles_choice2.png","-1","vehicles","","boat","2","0"
"html-keyboard-response","166","659119","0.0-9.0-2.0-0.40","1898","2","2","""event"",""trial"",""time""
""fullscreenenter"",""1"",""3266""
","
","
","""event"",""trial"",""time""
""fullscreenenter"",""1"",""3266""
","
","","","","","","null","<div style=""font-size:60px;"">+</div>","null","","fixation","","","","","","","","","","","","","",""
"learning-trial","167","663123","0.0-9.0-2.0-1.40","1898","2","2","""event"",""trial"",""time""
""fullscreenenter"",""1"",""3266""
","
","
","""event"",""trial"",""time""
""fullscreenenter"",""1"",""3266""
","
","","","","","","882.9000000059605","images/train1.png","","","learning","images/vehicles_choice3.png","images/vehicles_choice2.png","images/vehicles_choice1.png","[2,1,0]","0","2","3","images/vehicles_choice1.png","1","vehicles","","train","2","0"
"html-keyboard-response","168","663624","0.0-9.0-2.0-0.41","1898","2","2","""event"",""trial"",""time""
""fullscreenenter"",""1"",""3266""
","
","
","""event"",""trial"",""time""
""fullscreenenter"",""1"",""3266""
","
","","","","","","null","<div style=""font-size:60px;"">+</div>","null","","fixation","","","","","","","","","","","","","",""
"learning-trial","169","667627","0.0-9.0-2.0-1.41","1898","2","2","""event"",""trial"",""time""
""fullscreenenter"",""1"",""3266""
","
","
","""event"",""trial"",""time""
""fullscreenenter"",""1"",""3266""
","
","","","","","","1266.5","images/plane4.png","","","learning","images/vehicles_choice1.png","images/vehicles_choice2.png","images/vehicles_choice3.png","[0,1,2]","0","0","2","images/vehicles_choice2.png","-1","vehicles","","plane","2","0"
"html-keyboard-response","170","668129","0.0-9.0-2.0-0.42","1898","2","2","""event"",""trial"",""time""
""fullscreenenter"",""1"",""3266""
","
","
","""event"",""trial"",""time""
""fullscreenenter"",""1"",""3266""
","
","","","","","","null","<div style=""font-size:60px;"">+</div>","null","","fixation","","","","","","","","","","","","","",""
"learning-trial","171","672131","0.0-9.0-2.0-1.42","1898","2","2","""event"",""trial"",""time""
""fullscreenenter"",""1"",""3266""
","
","
","""event"",""trial"",""time""
""fullscreenenter"",""1"",""3266""
","
","","","","","","1185.9000000059605","images/train2.png","","","learning","images/vehicles_choice2.png","images/vehicles_choice3.png","images/vehicles_choice1.png","[1,2,0]","2","1","2","images/vehicles_choice3.png","1","vehicles","","train","2","0"
"html-keyboard-response","172","672632","0.0-9.0-2.0-0.43","1898","2","2","""event"",""trial"",""time""
""fullscreenenter"",""1"",""3266""
","
","
","""event"",""trial"",""time""
""fullscreenenter"",""1"",""3266""
","
","","","","","","null","<div style=""font-size:60px;"">+</div>","null","","fixation","","","","","","","","","","","","","",""
"learning-trial","173","676633","0.0-9.0-2.0-1.43","1898","2","2","""event"",""trial"",""time""
""fullscreenenter"",""1"",""3266""
","
","
","""event"",""trial"",""time""
""fullscreenenter"",""1"",""3266""
","
","","","","","","890.9000000059605","images/plane1.png","","","learning","images/vehicles_choice3.png","images/vehicles_choice1.png","images/vehicles_choice2.png","[2,0,1]","2","0","3","images/vehicles_choice2.png","-1","vehicles","","plane","2","0"
"html-keyboard-response","174","677134","0.0-9.0-2.0-0.44","1898","2","2","""event"",""trial"",""time""
""fullscreenenter"",""1"",""3266""
","
","
","""event"",""trial"",""time""
""fullscreenenter"",""1"",""3266""
","
","","","","","","null","<div style=""font-size:60px;"">+</div>","null","","fixation","","","","","","","","","","","","","",""
"learning-trial","175","681137","0.0-9.0-2.0-1.44","1898","2","2","""event"",""trial"",""time""
""fullscreenenter"",""1"",""3266""
","
","
","""event"",""trial"",""time""
""fullscreenenter"",""1"",""3266""
","
","","","","","","691.4000000059605","images/train5.png","","","learning","images/vehicles_choice2.png","images/vehicles_choice1.png","images/vehicles_choice3.png","[1,0,2]","1","0","2","images/vehicles_choice1.png","-1","vehicles","","train","2","0"
"html-keyboard-response","176","681639","0.0-9.0-2.0-0.45","1898","2","2","""event"",""trial"",""time""
""fullscreenenter"",""1"",""3266""
","
","
","""event"",""trial"",""time""
""fullscreenenter"",""1"",""3266""
","
","","","","","","null","<div style=""font-size:60px;"">+</div>","null","","fixation","","","","","","","","","","","","","",""
"learning-trial","177","685641","0.0-9.0-2.0-1.45","1898","2","2","""event"",""trial"",""time""
""fullscreenenter"",""1"",""3266""
","
","
","""event"",""trial"",""time""
""fullscreenenter"",""1"",""3266""
","
","","","","","","1316.5999999940395","images/plane4.png","","","learning","images/vehicles_choice1.png","images/vehicles_choice3.png","images/vehicles_choice2.png","[0,2,1]","0","0","2","images/vehicles_choice3.png","-1","vehicles","","plane","2","0"
"html-keyboard-response","178","686143","0.0-9.0-2.0-0.46","1898","2","2","""event"",""trial"",""time""
""fullscreenenter"",""1"",""3266""
","
","
","""event"",""trial"",""time""
""fullscreenenter"",""1"",""3266""
","
","","","","","","null","<div style=""font-size:60px;"">+</div>","null","","fixation","","","","","","","","","","","","","",""
"learning-trial","179","690145","0.0-9.0-2.0-1.46","1898","2","2","""event"",""trial"",""time""
""fullscreenenter"",""1"",""3266""
","
","
","""event"",""trial"",""time""
""fullscreenenter"",""1"",""3266""
","
","","","","","","804.1000000238419","images/train1.png","","","learning","images/vehicles_choice2.png","images/vehicles_choice3.png","images/vehicles_choice1.png","[1,2,0]","0","2","3","images/vehicles_choice1.png","1","vehicles","","train","2","0"
"html-keyboard-response","180","690646","0.0-9.0-2.0-0.47","1898","2","2","""event"",""trial"",""time""
""fullscreenenter"",""1"",""3266""
","
","
","""event"",""trial"",""time""
""fullscreenenter"",""1"",""3266""
","
","","","","","","null","<div style=""font-size:60px;"">+</div>","null","","fixation","","","","","","","","","","","","","",""
"learning-trial","181","694649","0.0-9.0-2.0-1.47","1898","2","2","""event"",""trial"",""time""
""fullscreenenter"",""1"",""3266""
","
","
","""event"",""trial"",""time""
""fullscreenenter"",""1"",""3266""
","
","","","","","","907.1000000238419","images/boat2.png","","","learning","images/vehicles_choice2.png","images/vehicles_choice3.png","images/vehicles_choice1.png","[1,2,0]","2","1","3","images/vehicles_choice1.png","-1","vehicles","","boat","2","0"
"html-keyboard-response","182","695150","0.0-9.0-2.0-0.48","1898","2","2","""event"",""trial"",""time""
""fullscreenenter"",""1"",""3266""
","
","
","""event"",""trial"",""time""
""fullscreenenter"",""1"",""3266""
","
","","","","","","null","<div style=""font-size:60px;"">+</div>","null","","fixation","","","","","","","","","","","","","",""
"learning-trial","183","699152","0.0-9.0-2.0-1.48","1898","2","2","""event"",""trial"",""time""
""fullscreenenter"",""1"",""3266""
","
","
","""event"",""trial"",""time""
""fullscreenenter"",""1"",""3266""
","
","","","","","","876.5","images/boat2.png","","","learning","images/vehicles_choice3.png","images/vehicles_choice1.png","images/vehicles_choice2.png","[2,0,1]","2","0","2","images/vehicles_choice1.png","-1","vehicles","","boat","2","0"
"html-keyboard-response","184","699653","0.0-9.0-2.0-0.49","1898","2","2","""event"",""trial"",""time""
""fullscreenenter"",""1"",""3266""
","
","
","""event"",""trial"",""time""
""fullscreenenter"",""1"",""3266""
","
","","","","","","null","<div style=""font-size:60px;"">+</div>","null","","fixation","","","","","","","","","","","","","",""
"learning-trial","185","703655","0.0-9.0-2.0-1.49","1898","2","2","""event"",""trial"",""time""
""fullscreenenter"",""1"",""3266""
","
","
","""event"",""trial"",""time""
""fullscreenenter"",""1"",""3266""
","
","","","","","","821.5","images/plane4.png","","","learning","images/vehicles_choice2.png","images/vehicles_choice3.png","images/vehicles_choice1.png","[1,2,0]","0","2","2","images/vehicles_choice3.png","-1","vehicles","","plane","2","0"
"html-keyboard-response","186","704156","0.0-9.0-2.0-0.50","1898","2","2","""event"",""trial"",""time""
""fullscreenenter"",""1"",""3266""
","
","
","""event"",""trial"",""time""
""fullscreenenter"",""1"",""3266""
","
","","","","","","null","<div style=""font-size:60px;"">+</div>","null","","fixation","","","","","","","","","","","","","",""
"learning-trial","187","708173","0.0-9.0-2.0-1.50","1898","2","2","""event"",""trial"",""time""
""fullscreenenter"",""1"",""3266""
","
","
","""event"",""trial"",""time""
""fullscreenenter"",""1"",""3266""
","
","","","","","","878.7000000178814","images/boat3.png","","","learning","images/vehicles_choice1.png","images/vehicles_choice3.png","images/vehicles_choice2.png","[0,2,1]","1","2","3","images/vehicles_choice2.png","1","vehicles","","boat","2","0"
"html-keyboard-response","188","708674","0.0-9.0-2.0-0.51","1898","2","2","""event"",""trial"",""time""
""fullscreenenter"",""1"",""3266""
","
","
","""event"",""trial"",""time""
""fullscreenenter"",""1"",""3266""
","
","","","","","","null","<div style=""font-size:60px;"">+</div>","null","","fixation","","","","","","","","","","","","","",""
"learning-trial","189","712676","0.0-9.0-2.0-1.51","1898","2","2","""event"",""trial"",""time""
""fullscreenenter"",""1"",""3266""
","
","
","""event"",""trial"",""time""
""fullscreenenter"",""1"",""3266""
","
","","","","","","1480","images/train5.png","","","learning","images/vehicles_choice3.png","images/vehicles_choice2.png","images/vehicles_choice1.png","[2,1,0]","1","1","1","images/vehicles_choice3.png","-1","vehicles","","train","2","0"
"html-keyboard-response","190","713177","0.0-9.0-2.0-0.52","1898","2","2","""event"",""trial"",""time""
""fullscreenenter"",""1"",""3266""
","
","
","""event"",""trial"",""time""
""fullscreenenter"",""1"",""3266""
","
","","","","","","null","<div style=""font-size:60px;"">+</div>","null","","fixation","","","","","","","","","","","","","",""
"learning-trial","191","717181","0.0-9.0-2.0-1.52","1898","2","2","""event"",""trial"",""time""
""fullscreenenter"",""1"",""3266""
","
","
","""event"",""trial"",""time""
""fullscreenenter"",""1"",""3266""
","
","","","","","","1640.7999999821186","images/train2.png","","","learning","images/vehicles_choice1.png","images/vehicles_choice3.png","images/vehicles_choice2.png","[0,2,1]","2","1","2","images/vehicles_choice3.png","1","vehicles","","train","2","0"
"html-keyboard-response","192","717681","0.0-9.0-2.0-0.53","1898","2","2","""event"",""trial"",""time""
""fullscreenenter"",""1"",""3266""
","
","
","""event"",""trial"",""time""
""fullscreenenter"",""1"",""3266""
","
","","","","","","null","<div style=""font-size:60px;"">+</div>","null","","fixation","","","","","","","","","","","","","",""
"learning-trial","193","721684","0.0-9.0-2.0-1.53","1898","2","2","""event"",""trial"",""time""
""fullscreenenter"",""1"",""3266""
","
","
","""event"",""trial"",""time""
""fullscreenenter"",""1"",""3266""
","
","","","","","","1177.199999988079","images/plane1.png","","","learning","images/vehicles_choice2.png","images/vehicles_choice1.png","images/vehicles_choice3.png","[1,0,2]","2","2","1","images/vehicles_choice2.png","-1","vehicles","","plane","2","0"
"html-keyboard-response","194","722185","0.0-9.0-2.0-0.54","1898","2","2","""event"",""trial"",""time""
""fullscreenenter"",""1"",""3266""
","
","
","""event"",""trial"",""time""
""fullscreenenter"",""1"",""3266""
","
","","","","","","null","<div style=""font-size:60px;"">+</div>","null","","fixation","","","","","","","","","","","","","",""
"learning-trial","195","726187","0.0-9.0-2.0-1.54","1898","2","2","""event"",""trial"",""time""
""fullscreenenter"",""1"",""3266""
","
","
","""event"",""trial"",""time""
""fullscreenenter"",""1"",""3266""
","
","","","","","","1778.699999988079","images/train2.png","","","learning","images/vehicles_choice3.png","images/vehicles_choice2.png","images/vehicles_choice1.png","[2,1,0]","2","0","1","images/vehicles_choice3.png","1","vehicles","","train","2","0"
"html-keyboard-response","196","726689","0.0-9.0-2.0-0.55","1898","2","2","""event"",""trial"",""time""
""fullscreenenter"",""1"",""3266""
","
","
","""event"",""trial"",""time""
""fullscreenenter"",""1"",""3266""
","
","","","","","","null","<div style=""font-size:60px;"">+</div>","null","","fixation","","","","","","","","","","","","","",""
"learning-trial","197","730691","0.0-9.0-2.0-1.55","1898","2","2","""event"",""trial"",""time""
""fullscreenenter"",""1"",""3266""
","
","
","""event"",""trial"",""time""
""fullscreenenter"",""1"",""3266""
","
","","","","","","777.4000000059605","images/boat3.png","","","learning","images/vehicles_choice1.png","images/vehicles_choice2.png","images/vehicles_choice3.png","[0,1,2]","1","1","2","images/vehicles_choice2.png","1","vehicles","","boat","2","0"
"html-keyboard-response","198","731193","0.0-9.0-2.0-0.56","1898","2","2","""event"",""trial"",""time""
""fullscreenenter"",""1"",""3266""
","
","
","""event"",""trial"",""time""
""fullscreenenter"",""1"",""3266""
","
","","","","","","null","<div style=""font-size:60px;"">+</div>","null","","fixation","","","","","","","","","","","","","",""
"learning-trial","199","735197","0.0-9.0-2.0-1.56","1898","2","2","""event"",""trial"",""time""
""fullscreenenter"",""1"",""3266""
","
","
","""event"",""trial"",""time""
""fullscreenenter"",""1"",""3266""
","
","","","","","","808.4000000059605","images/boat3.png","","","learning","images/vehicles_choice3.png","images/vehicles_choice2.png","images/vehicles_choice1.png","[2,1,0]","1","1","2","images/vehicles_choice2.png","1","vehicles","","boat","2","0"
"html-keyboard-response","200","735698","0.0-9.0-2.0-0.57","1898","2","2","""event"",""trial"",""time""
""fullscreenenter"",""1"",""3266""
","
","
","""event"",""trial"",""time""
""fullscreenenter"",""1"",""3266""
","
","","","","","","null","<div style=""font-size:60px;"">+</div>","null","","fixation","","","","","","","","","","","","","",""
"learning-trial","201","739702","0.0-9.0-2.0-1.57","1898","2","2","""event"",""trial"",""time""
""fullscreenenter"",""1"",""3266""
","
","
","""event"",""trial"",""time""
""fullscreenenter"",""1"",""3266""
","
","","","","","","770","images/boat2.png","","","learning","images/vehicles_choice1.png","images/vehicles_choice2.png","images/vehicles_choice3.png","[0,1,2]","2","2","2","images/vehicles_choice2.png","-1","vehicles","","boat","2","0"
"html-keyboard-response","202","740204","0.0-9.0-2.0-0.58","1898","2","2","""event"",""trial"",""time""
""fullscreenenter"",""1"",""3266""
","
","
","""event"",""trial"",""time""
""fullscreenenter"",""1"",""3266""
","
","","","","","","null","<div style=""font-size:60px;"">+</div>","null","","fixation","","","","","","","","","","","","","",""
"learning-trial","203","744206","0.0-9.0-2.0-1.58","1898","2","2","""event"",""trial"",""time""
""fullscreenenter"",""1"",""3266""
","
","
","""event"",""trial"",""time""
""fullscreenenter"",""1"",""3266""
","
","","","","","","1382.9000000059605","images/train1.png","","","learning","images/vehicles_choice2.png","images/vehicles_choice3.png","images/vehicles_choice1.png","[1,2,0]","0","2","3","images/vehicles_choice1.png","1","vehicles","","train","2","0"
"html-keyboard-response","204","744707","0.0-9.0-2.0-0.59","1898","2","2","""event"",""trial"",""time""
""fullscreenenter"",""1"",""3266""
","
","
","""event"",""trial"",""time""
""fullscreenenter"",""1"",""3266""
","
","","","","","","null","<div style=""font-size:60px;"">+</div>","null","","fixation","","","","","","","","","","","","","",""
"learning-trial","205","748709","0.0-9.0-2.0-1.59","1898","2","2","""event"",""trial"",""time""
""fullscreenenter"",""1"",""3266""
","
","
","""event"",""trial"",""time""
""fullscreenenter"",""1"",""3266""
","
","","","","","","1624","images/train2.png","","","learning","images/vehicles_choice3.png","images/vehicles_choice1.png","images/vehicles_choice2.png","[2,0,1]","2","0","1","images/vehicles_choice3.png","1","vehicles","","train","2","0"
"html-keyboard-response","206","749211","0.0-9.0-2.0-0.60","1898","2","2","""event"",""trial"",""time""
""fullscreenenter"",""1"",""3266""
","
","
","""event"",""trial"",""time""
""fullscreenenter"",""1"",""3266""
","
","","","","","","null","<div style=""font-size:60px;"">+</div>","null","","fixation","","","","","","","","","","","","","",""
"learning-trial","207","753214","0.0-9.0-2.0-1.60","1898","2","2","""event"",""trial"",""time""
""fullscreenenter"",""1"",""3266""
","
","
","""event"",""trial"",""time""
""fullscreenenter"",""1"",""3266""
","
","","","","","","1351.300000011921","images/boat3.png","","","learning","images/vehicles_choice3.png","images/vehicles_choice1.png","images/vehicles_choice2.png","[2,0,1]","1","2","2","images/vehicles_choice1.png","-1","vehicles","","boat","2","0"
"html-keyboard-response","208","753716","0.0-9.0-2.0-0.61","1898","2","2","""event"",""trial"",""time""
""fullscreenenter"",""1"",""3266""
","
","
","""event"",""trial"",""time""
""fullscreenenter"",""1"",""3266""
","
","","","","","","null","<div style=""font-size:60px;"">+</div>","null","","fixation","","","","","","","","","","","","","",""
"learning-trial","209","757720","0.0-9.0-2.0-1.61","1898","2","2","""event"",""trial"",""time""
""fullscreenenter"",""1"",""3266""
","
","
","""event"",""trial"",""time""
""fullscreenenter"",""1"",""3266""
","
","","","","","","1031.4000000059605","images/boat4.png","","","learning","images/vehicles_choice3.png","images/vehicles_choice1.png","images/vehicles_choice2.png","[2,0,1]","0","1","2","images/vehicles_choice1.png","1","vehicles","","boat","2","0"
"html-keyboard-response","210","758221","0.0-9.0-2.0-0.62","1898","2","2","""event"",""trial"",""time""
""fullscreenenter"",""1"",""3266""
","
","
","""event"",""trial"",""time""
""fullscreenenter"",""1"",""3266""
","
","","","","","","null","<div style=""font-size:60px;"">+</div>","null","","fixation","","","","","","","","","","","","","",""
"learning-trial","211","762223","0.0-9.0-2.0-1.62","1898","2","2","""event"",""trial"",""time""
""fullscreenenter"",""1"",""3266""
","
","
","""event"",""trial"",""time""
""fullscreenenter"",""1"",""3266""
","
","","","","","","1158.300000011921","images/train2.png","","","learning","images/vehicles_choice2.png","images/vehicles_choice1.png","images/vehicles_choice3.png","[1,0,2]","2","2","3","images/vehicles_choice3.png","1","vehicles","","train","2","0"
"html-keyboard-response","212","762724","0.0-9.0-2.0-0.63","1898","2","2","""event"",""trial"",""time""
""fullscreenenter"",""1"",""3266""
","
","
","""event"",""trial"",""time""
""fullscreenenter"",""1"",""3266""
","
","","","","","","null","<div style=""font-size:60px;"">+</div>","null","","fixation","","","","","","","","","","","","","",""
"learning-trial","213","766726","0.0-9.0-2.0-1.63","1898","2","2","""event"",""trial"",""time""
""fullscreenenter"",""1"",""3266""
","
","
","""event"",""trial"",""time""
""fullscreenenter"",""1"",""3266""
","
","","","","","","1039.1000000238419","images/boat3.png","","","learning","images/vehicles_choice2.png","images/vehicles_choice1.png","images/vehicles_choice3.png","[1,0,2]","1","0","1","images/vehicles_choice2.png","1","vehicles","","boat","2","0"
"html-keyboard-response","214","767229","0.0-9.0-2.0-0.64","1898","2","2","""event"",""trial"",""time""
""fullscreenenter"",""1"",""3266""
","
","
","""event"",""trial"",""time""
""fullscreenenter"",""1"",""3266""
","
","","","","","","null","<div style=""font-size:60px;"">+</div>","null","","fixation","","","","","","","","","","","","","",""
"learning-trial","215","771233","0.0-9.0-2.0-1.64","1898","2","2","""event"",""trial"",""time""
""fullscreenenter"",""1"",""3266""
","
","
","""event"",""trial"",""time""
""fullscreenenter"",""1"",""3266""
","
","","","","","","867.7999999821186","images/boat4.png","","","learning","images/vehicles_choice2.png","images/vehicles_choice1.png","images/vehicles_choice3.png","[1,0,2]","0","1","2","images/vehicles_choice1.png","1","vehicles","","boat","2","0"
"html-keyboard-response","216","771735","0.0-9.0-2.0-0.65","1898","2","2","""event"",""trial"",""time""
""fullscreenenter"",""1"",""3266""
","
","
","""event"",""trial"",""time""
""fullscreenenter"",""1"",""3266""
","
","","","","","","null","<div style=""font-size:60px;"">+</div>","null","","fixation","","","","","","","","","","","","","",""
"learning-trial","217","775738","0.0-9.0-2.0-1.65","1898","2","2","""event"",""trial"",""time""
""fullscreenenter"",""1"",""3266""
","
","
","""event"",""trial"",""time""
""fullscreenenter"",""1"",""3266""
","
","","","","","","667.5","images/boat4.png","","","learning","images/vehicles_choice3.png","images/vehicles_choice1.png","images/vehicles_choice2.png","[2,0,1]","0","1","2","images/vehicles_choice1.png","1","vehicles","","boat","2","0"
"html-keyboard-response","218","776240","0.0-9.0-2.0-0.66","1898","2","2","""event"",""trial"",""time""
""fullscreenenter"",""1"",""3266""
","
","
","""event"",""trial"",""time""
""fullscreenenter"",""1"",""3266""
","
","","","","","","null","<div style=""font-size:60px;"">+</div>","null","","fixation","","","","","","","","","","","","","",""
"learning-trial","219","780242","0.0-9.0-2.0-1.66","1898","2","2","""event"",""trial"",""time""
""fullscreenenter"",""1"",""3266""
","
","
","""event"",""trial"",""time""
""fullscreenenter"",""1"",""3266""
","
","","","","","","666.5","images/boat4.png","","","learning","images/vehicles_choice3.png","images/vehicles_choice1.png","images/vehicles_choice2.png","[2,0,1]","0","1","2","images/vehicles_choice1.png","1","vehicles","","boat","2","0"
"html-keyboard-response","220","780745","0.0-9.0-2.0-0.67","1898","2","2","""event"",""trial"",""time""
""fullscreenenter"",""1"",""3266""
","
","
","""event"",""trial"",""time""
""fullscreenenter"",""1"",""3266""
","
","","","","","","null","<div style=""font-size:60px;"">+</div>","null","","fixation","","","","","","","","","","","","","",""
"learning-trial","221","784760","0.0-9.0-2.0-1.67","1898","2","2","""event"",""trial"",""time""
""fullscreenenter"",""1"",""3266""
","
","
","""event"",""trial"",""time""
""fullscreenenter"",""1"",""3266""
","
","","","","","","1105.8999999761581","images/plane4.png","","","learning","images/vehicles_choice1.png","images/vehicles_choice2.png","images/vehicles_choice3.png","[0,1,2]","0","0","3","images/vehicles_choice3.png","-1","vehicles","","plane","2","0"
"html-keyboard-response","222","785262","0.0-9.0-2.0-0.68","1898","2","2","""event"",""trial"",""time""
""fullscreenenter"",""1"",""3266""
","
","
","""event"",""trial"",""time""
""fullscreenenter"",""1"",""3266""
","
","","","","","","null","<div style=""font-size:60px;"">+</div>","null","","fixation","","","","","","","","","","","","","",""
"learning-trial","223","789265","0.0-9.0-2.0-1.68","1898","2","2","""event"",""trial"",""time""
""fullscreenenter"",""1"",""3266""
","
","
","""event"",""trial"",""time""
""fullscreenenter"",""1"",""3266""
","
","","","","","","811.8000000119209","images/plane1.png","","","learning","images/vehicles_choice3.png","images/vehicles_choice1.png","images/vehicles_choice2.png","[2,0,1]","2","0","1","images/vehicles_choice3.png","1","vehicles","","plane","2","0"
"html-keyboard-response","224","789767","0.0-9.0-2.0-0.69","1898","2","2","""event"",""trial"",""time""
""fullscreenenter"",""1"",""3266""
","
","
","""event"",""trial"",""time""
""fullscreenenter"",""1"",""3266""
","
","","","","","","null","<div style=""font-size:60px;"">+</div>","null","","fixation","","","","","","","","","","","","","",""
"learning-trial","225","793770","0.0-9.0-2.0-1.69","1898","2","2","""event"",""trial"",""time""
""fullscreenenter"",""1"",""3266""
","
","
","""event"",""trial"",""time""
""fullscreenenter"",""1"",""3266""
","
","","","","","","828.8999999761581","images/plane4.png","","","learning","images/vehicles_choice2.png","images/vehicles_choice3.png","images/vehicles_choice1.png","[1,2,0]","0","2","1","images/vehicles_choice2.png","-1","vehicles","","plane","2","0"
"html-keyboard-response","226","794271","0.0-9.0-2.0-0.70","1898","2","2","""event"",""trial"",""time""
""fullscreenenter"",""1"",""3266""
","
","
","""event"",""trial"",""time""
""fullscreenenter"",""1"",""3266""
","
","","","","","","null","<div style=""font-size:60px;"">+</div>","null","","fixation","","","","","","","","","","","","","",""
"learning-trial","227","798274","0.0-9.0-2.0-1.70","1898","2","2","""event"",""trial"",""time""
""fullscreenenter"",""1"",""3266""
","
","
","""event"",""trial"",""time""
""fullscreenenter"",""1"",""3266""
","
","","","","","","723.1999999880791","images/plane4.png","","","learning","images/vehicles_choice1.png","images/vehicles_choice2.png","images/vehicles_choice3.png","[0,1,2]","0","0","1","images/vehicles_choice1.png","1","vehicles","","plane","2","0"
"html-keyboard-response","228","798775","0.0-9.0-2.0-0.71","1898","2","2","""event"",""trial"",""time""
""fullscreenenter"",""1"",""3266""
","
","
","""event"",""trial"",""time""
""fullscreenenter"",""1"",""3266""
","
","","","","","","null","<div style=""font-size:60px;"">+</div>","null","","fixation","","","","","","","","","","","","","",""
"learning-trial","229","802777","0.0-9.0-2.0-1.71","1898","2","2","""event"",""trial"",""time""
""fullscreenenter"",""1"",""3266""
","
","
","""event"",""trial"",""time""
""fullscreenenter"",""1"",""3266""
","
","","","","","","987.9000000059605","images/boat3.png","","","learning","images/vehicles_choice1.png","images/vehicles_choice3.png","images/vehicles_choice2.png","[0,2,1]","1","2","3","images/vehicles_choice2.png","1","vehicles","","boat","2","0"
"html-button-response","230","806045","0.0-9.0-3.0","1898","2","2","""event"",""trial"",""time""
""fullscreenenter"",""1"",""3266""
","
","
","""event"",""trial"",""time""
""fullscreenenter"",""1"",""3266""
","
","","","","","","3266.300000011921","<p> You have completed the round! <p> In this round, you earned 12 points! </p>","0","","break","","","","","","","","","","","","","",""
"html-button-response","231","807625","0.0-10.0","1898","2","2","""event"",""trial"",""time""
""fullscreenenter"",""1"",""3266""
","
","
","""event"",""trial"",""time""
""fullscreenenter"",""1"",""3266""
","
","","","","","","1579.7000000178814","<p> Now it's time to play another round. </p>","0","","transition_screen","","","","","","","","","","","","","",""
"preload","232","810347","0.0-11.0-0.0","1898","2","2","""event"",""trial"",""time""
""fullscreenenter"",""1"",""3266""
","
","
","""event"",""trial"",""time""
""fullscreenenter"",""1"",""3266""
","
","true","false","[]","[]","[]","","","","","","","","","","","","","","","","","","",""
"learning-instructions","233","819549","0.0-11.0-1.0-0.0","1898","2","2","""event"",""trial"",""time""
""fullscreenenter"",""1"",""3266""
","
","
","""event"",""trial"",""time""
""fullscreenenter"",""1"",""3266""
","
","","","","","","2202.699999988079","<p> Your goal in this round is to buy different types of fruits. </p><p> You will try to purchase many fruits from different stores. </p></div>","","0","instructions","","","","","","","","","","","","","",""
"learning-instructions","234","828861","0.0-11.0-1.0-0.1","1898","2","2","""event"",""trial"",""time""
""fullscreenenter"",""1"",""3266""
","
","
","""event"",""trial"",""time""
""fullscreenenter"",""1"",""3266""
","
","","","","","","815.5999999940395","<p> On each turn, you will see a picture of a fruit and three different stores.  </p><p> You need to select the store where you can buy that fruit.  </p>","","0","instructions","","","","","","","","","","","","","",""
"learning-instructions","235","838021","0.0-11.0-1.0-0.2","1898","2","2","""event"",""trial"",""time""
""fullscreenenter"",""1"",""3266""
","
","
","""event"",""trial"",""time""
""fullscreenenter"",""1"",""3266""
","
