"trial_type","trial_index","time_elapsed","internal_node_id","subject_id","condition","task_version","interactions","blur_events","focus_events","fullscreenenter_events","fullscreenexit_events","success","timeout","failed_images","failed_audio","failed_video","rt","stimulus","response","button_pressed","task_part","left_choice","middle_choice","right_choice","choice_positions","correct_response","correct_position","key_press","option_selected","points","task_block","correct","stim_cat","block_condition","block_number"
"pavlovia","0","8","0.0-0.0","1990","1","2","""event"",""trial"",""time""
""fullscreenenter"",""1"",""2564""
","
","
","""event"",""trial"",""time""
""fullscreenenter"",""1"",""2564""
","
","","","","","","","","","","","","","","","","","","","","","","","",""
"fullscreen","1","3551","0.0-1.0","1990","1","2","""event"",""trial"",""time""
""fullscreenenter"",""1"",""2564""
""blur"",""2"",""62781""
","""event"",""trial"",""time""
""blur"",""2"",""62781""
","
","""event"",""trial"",""time""
""fullscreenenter"",""1"",""2564""
","
","true","","","","","","","","","","","","","","","","","","","","","","",""
"preload","2","66725","0.0-2.0","1990","1","2","""event"",""trial"",""time""
""fullscreenenter"",""1"",""2564""
""blur"",""2"",""62781""
""focus"",""3"",""70000""
","""event"",""trial"",""time""
""blur"",""2"",""62781""
","""event"",""trial"",""time""
""focus"",""3"",""70000""
","""event"",""trial"",""time""
""fullscreenenter"",""1"",""2564""
","
","true","false","[]","[]","[]","","","","","","","","","","","","","","","","","","",""
"audio-keyboard-response","3","72731","0.0-3.0","1990","1","2","""event"",""trial"",""time""
""fullscreenenter"",""1"",""2564""
""blur"",""2"",""62781""
""focus"",""3"",""70000""
","""event"",""trial"",""time""
""blur"",""2"",""62781""
","""event"",""trial"",""time""
""focus"",""3"",""70000""
","""event"",""trial"",""time""
""fullscreenenter"",""1"",""2564""
","
","","","","","","5477.333333333327","audio/beep_loop.wav"," ","","","","","","","","","","","","","","","",""
"audio-button-response","4","74699","0.0-4.0","1990","1","2","""event"",""trial"",""time""
""fullscreenenter"",""1"",""2564""
""blur"",""2"",""62781""
""focus"",""3"",""70000""
","""event"",""trial"",""time""
""blur"",""2"",""62781""
","""event"",""trial"",""time""
""focus"",""3"",""70000""
","""event"",""trial"",""time""
""fullscreenenter"",""1"",""2564""
","
","","","","","","1963","audio/shark.wav","4","","","","","","","","","","","","","","","",""
"audio-button-response","5","78135","0.0-5.0","1990","1","2","""event"",""trial"",""time""
""fullscreenenter"",""1"",""2564""
""blur"",""2"",""62781""
""focus"",""3"",""70000""
""blur"",""6"",""138713""
","""event"",""trial"",""time""
""blur"",""2"",""62781""
""blur"",""6"",""138713""
","""event"",""trial"",""time""
""focus"",""3"",""70000""
","""event"",""trial"",""time""
""fullscreenenter"",""1"",""2564""
","
","","","","","","2432","audio/turtle.wav","1","","","","","","","","","","","","","","","",""
"preload","6","145245","0.0-6.0","1990","1","2","""event"",""trial"",""time""
""fullscreenenter"",""1"",""2564""
""blur"",""2"",""62781""
""focus"",""3"",""70000""
""blur"",""6"",""138713""
""focus"",""7"",""147689""
","""event"",""trial"",""time""
""blur"",""2"",""62781""
""blur"",""6"",""138713""
","""event"",""trial"",""time""
""focus"",""3"",""70000""
""focus"",""7"",""147689""
","""event"",""trial"",""time""
""fullscreenenter"",""1"",""2564""
","
","true","false","[]","[]","[]","","","","","","","","","","","","","","","","","","",""
"html-keyboard-response","7","161648","0.0-7.0","1990","1","2","""event"",""trial"",""time""
""fullscreenenter"",""1"",""2564""
""blur"",""2"",""62781""
""focus"",""3"",""70000""
""blur"",""6"",""138713""
""focus"",""7"",""147689""
","""event"",""trial"",""time""
""blur"",""2"",""62781""
""blur"",""6"",""138713""
","""event"",""trial"",""time""
""focus"",""3"",""70000""
""focus"",""7"",""147689""
","""event"",""trial"",""time""
""fullscreenenter"",""1"",""2564""
","
","","","","","","16400.69999998808","Welcome to the experiment. Press any key to begin and to advance the instructions."," ","","","","","","","","","","","","","","","",""
"learning-instructions","8","171473","0.0-8.0-0.0-0.0","1990","1","2","""event"",""trial"",""time""
""fullscreenenter"",""1"",""2564""
""blur"",""2"",""62781""
""focus"",""3"",""70000""
""blur"",""6"",""138713""
""focus"",""7"",""147689""
","""event"",""trial"",""time""
""blur"",""2"",""62781""
""blur"",""6"",""138713""
","""event"",""trial"",""time""
""focus"",""3"",""70000""
""focus"",""7"",""147689""
","""event"",""trial"",""time""
""fullscreenenter"",""1"",""2564""
","
","","","","","","1584.3999999761581","<p> Welcome! Today you are going to play 6 different rounds of a decision-making game. </p><p> Use the mouse to click next to continue. </p>","","0","instructions","","","","","","","","","","","","","",""
"learning-instructions","9","177469","0.0-8.0-0.0-0.1","1990","1","2","""event"",""trial"",""time""
""fullscreenenter"",""1"",""2564""
""blur"",""2"",""62781""
""focus"",""3"",""70000""
""blur"",""6"",""138713""
""focus"",""7"",""147689""
","""event"",""trial"",""time""
""blur"",""2"",""62781""
""blur"",""6"",""138713""
","""event"",""trial"",""time""
""focus"",""3"",""70000""
""focus"",""7"",""147689""
","""event"",""trial"",""time""
""fullscreenenter"",""1"",""2564""
","
","","","","","","2989","<p> You will start with a practice round to learn the rules. </p>","","0","instructions","","","","","","","","","","","","","",""
"learning-instructions","10","185752","0.0-8.0-0.0-0.2","1990","1","2","""event"",""trial"",""time""
""fullscreenenter"",""1"",""2564""
""blur"",""2"",""62781""
""focus"",""3"",""70000""
""blur"",""6"",""138713""
""focus"",""7"",""147689""
","""event"",""trial"",""time""
""blur"",""2"",""62781""
""blur"",""6"",""138713""
","""event"",""trial"",""time""
""focus"",""3"",""70000""
""focus"",""7"",""147689""
","""event"",""trial"",""time""
""fullscreenenter"",""1"",""2564""
","
","","","","","","541.6999999880791","<p> Your goal in this round is to deliver sports equipment to three different parks. </p><p> You will need to deliver many types of equipment. </p></div>","","0","instructions","","","","","","","","","","","","","",""
"learning-instructions","11","195047","0.0-8.0-0.0-0.3","1990","1","2","""event"",""trial"",""time""
""fullscreenenter"",""1"",""2564""
""blur"",""2"",""62781""
""focus"",""3"",""70000""
""blur"",""6"",""138713""
""focus"",""7"",""147689""
","""event"",""trial"",""time""
""blur"",""2"",""62781""
""blur"",""6"",""138713""
","""event"",""trial"",""time""
""focus"",""3"",""70000""
""focus"",""7"",""147689""
","""event"",""trial"",""time""
""fullscreenenter"",""1"",""2564""
","
","","","","","","813.5","<p> On each turn, you will see one piece of sports equipment and three different parks.  </p><p> You need to select which park to deliver the equipment to.  </p>","","0","instructions","","","","","","","","","","","","","",""
"learning-instructions","12","208829","0.0-8.0-0.0-0.4","1990","1","2","""event"",""trial"",""time""
""fullscreenenter"",""1"",""2564""
""blur"",""2"",""62781""
""focus"",""3"",""70000""
""blur"",""6"",""138713""
""focus"",""7"",""147689""
","""event"",""trial"",""time""
""blur"",""2"",""62781""
""blur"",""6"",""138713""
","""event"",""trial"",""time""
""focus"",""3"",""70000""
""focus"",""7"",""147689""
","""event"",""trial"",""time""
""fullscreenenter"",""1"",""2564""
","
","","","","","","497.4000000357628","<p> You can select the park on the left by pressing the '1' key on your keyboard. <br>You can select the park in the middle by pressing the '2' key on your keyboard. <br>You can select the park on the right by pressing the '3' key on your keyboard.  </p><br><div class=""choice-instructions-grid""> <div class=""choice-option""><img src=""images/park1.png"" class=""choice-option-img"" stage=""instructions"" position=""0"" ><div class=""choice-option-text""> Press ""1."" </div></div><div class=""choice-option""><img src=""images/park2.png"" class=""choice-option-img"" stage=""instructions"" position=""1"" ><div class=""choice-option-text""> Press ""2."" </div></div><div class=""choice-option""><img src=""images/park3.png"" class=""choice-option-img"" stage=""instructions"" position=""2"" ><div class=""choice-option-text""> Press ""3."" </div></div></div>","","0","instructions","","","","","","","","","","","","","",""
"learning-instructions","13","215514","0.0-8.0-0.0-0.5","1990","1","2","""event"",""trial"",""time""
""fullscreenenter"",""1"",""2564""
""blur"",""2"",""62781""
""focus"",""3"",""70000""
""blur"",""6"",""138713""
""focus"",""7"",""147689""
","""event"",""trial"",""time""
""blur"",""2"",""62781""
""blur"",""6"",""138713""
","""event"",""trial"",""time""
""focus"",""3"",""70000""
""focus"",""7"",""147689""
","""event"",""trial"",""time""
""fullscreenenter"",""1"",""2564""
","
","","","","","","1302.199999988079","<p> If the kids in the park you chose like the equipment, they will be very happy! </p><div style='float: center;'><img src='images/check.png' width = '200' height = '200'></img>","","0","instructions","","","","","","","","","","","","","",""
"learning-instructions","14","222016","0.0-8.0-0.0-0.6","1990","1","2","""event"",""trial"",""time""
""fullscreenenter"",""1"",""2564""
""blur"",""2"",""62781""
""focus"",""3"",""70000""
""blur"",""6"",""138713""
""focus"",""7"",""147689""
","""event"",""trial"",""time""
""blur"",""2"",""62781""
""blur"",""6"",""138713""
","""event"",""trial"",""time""
""focus"",""3"",""70000""
""focus"",""7"",""147689""
","""event"",""trial"",""time""
""fullscreenenter"",""1"",""2564""
","
","","","","","","918.7999999523163","<p> But, if the kids in the park you chose do not like the equipment, they will be sad. </p><div style='float: center;'><img src='images/x.png' width = '200' height = '200'></img>","","0","instructions","","","","","","","","","","","","","",""
"learning-instructions","15","229559","0.0-8.0-0.0-0.7","1990","1","2","""event"",""trial"",""time""
""fullscreenenter"",""1"",""2564""
""blur"",""2"",""62781""
""focus"",""3"",""70000""
""blur"",""6"",""138713""
""focus"",""7"",""147689""
","""event"",""trial"",""time""
""blur"",""2"",""62781""
""blur"",""6"",""138713""
","""event"",""trial"",""time""
""focus"",""3"",""70000""
""focus"",""7"",""147689""
","""event"",""trial"",""time""
""fullscreenenter"",""1"",""2564""
","
","","","","","","1112.7999999523163","<p> Importantly, the kids in each park like some pieces of sports equipment more than others. </p>","","0","instructions","","","","","","","","","","","","","",""
"learning-instructions","16","236035","0.0-8.0-0.0-0.8","1990","1","2","""event"",""trial"",""time""
""fullscreenenter"",""1"",""2564""
""blur"",""2"",""62781""
""focus"",""3"",""70000""
""blur"",""6"",""138713""
""focus"",""7"",""147689""
","""event"",""trial"",""time""
""blur"",""2"",""62781""
""blur"",""6"",""138713""
","""event"",""trial"",""time""
""focus"",""3"",""70000""
""focus"",""7"",""147689""
","""event"",""trial"",""time""
""fullscreenenter"",""1"",""2564""
","
","","","","","","425.7999999523163","<p> If you choose the best park for each piece of equipment, the kids there will usually be happy. </p>","","0","instructions","","","","","","","","","","","","","",""
"learning-instructions","17","243119","0.0-8.0-0.0-0.9","1990","1","2","""event"",""trial"",""time""
""fullscreenenter"",""1"",""2564""
""blur"",""2"",""62781""
""focus"",""3"",""70000""
""blur"",""6"",""138713""
""focus"",""7"",""147689""
","""event"",""trial"",""time""
""blur"",""2"",""62781""
""blur"",""6"",""138713""
","""event"",""trial"",""time""
""focus"",""3"",""70000""
""focus"",""7"",""147689""
","""event"",""trial"",""time""
""fullscreenenter"",""1"",""2564""
","
","","","","","","443.60000002384186","<p> However, even if you choose the best park for the equipment, the kids may sometimes be sad. </p>","","0","instructions","","","","","","","","","","","","","",""
"learning-instructions","18","250774","0.0-8.0-0.0-0.10","1990","1","2","""event"",""trial"",""time""
""fullscreenenter"",""1"",""2564""
""blur"",""2"",""62781""
""focus"",""3"",""70000""
""blur"",""6"",""138713""
""focus"",""7"",""147689""
","""event"",""trial"",""time""
""blur"",""2"",""62781""
""blur"",""6"",""138713""
","""event"",""trial"",""time""
""focus"",""3"",""70000""
""focus"",""7"",""147689""
","""event"",""trial"",""time""
""fullscreenenter"",""1"",""2564""
","
","","","","","","429.7000000476837","<p> Similarly, even if you choose the <i>wrong</i> park for the equipment, the kids may still be happy sometimes.","","0","instructions","","","","","","","","","","","","","",""
"learning-instructions","19","257320","0.0-8.0-0.0-0.11","1990","1","2","""event"",""trial"",""time""
""fullscreenenter"",""1"",""2564""
""blur"",""2"",""62781""
""focus"",""3"",""70000""
""blur"",""6"",""138713""
""focus"",""7"",""147689""
","""event"",""trial"",""time""
""blur"",""2"",""62781""
""blur"",""6"",""138713""
","""event"",""trial"",""time""
""focus"",""3"",""70000""
""focus"",""7"",""147689""
","""event"",""trial"",""time""
""fullscreenenter"",""1"",""2564""
","
","","","","","","1492.6000000238419","<p> For example, the best park for this soccer ball is this one.<div style='float: center;'><img src='images/i1.png' width = '500' height = '268'></img>","","0","instructions","","","","","","","","","","","","","",""
"learning-instructions","20","264313","0.0-8.0-0.0-0.12","1990","1","2","""event"",""trial"",""time""
""fullscreenenter"",""1"",""2564""
""blur"",""2"",""62781""
""focus"",""3"",""70000""
""blur"",""6"",""138713""
""focus"",""7"",""147689""
","""event"",""trial"",""time""
""blur"",""2"",""62781""
""blur"",""6"",""138713""
","""event"",""trial"",""time""
""focus"",""3"",""70000""
""focus"",""7"",""147689""
","""event"",""trial"",""time""
""fullscreenenter"",""1"",""2564""
","
","","","","","","1706.8999999761581","<p> Let's see what happens if you choose this park for the soccer ball five times.","","0","instructions","","","","","","","","","","","","","",""
"learning-instructions","21","267314","0.0-8.0-0.0-0.13","1990","1","2","""event"",""trial"",""time""
""fullscreenenter"",""1"",""2564""
""blur"",""2"",""62781""
""focus"",""3"",""70000""
""blur"",""6"",""138713""
""focus"",""7"",""147689""
","""event"",""trial"",""time""
""blur"",""2"",""62781""
""blur"",""6"",""138713""
","""event"",""trial"",""time""
""focus"",""3"",""70000""
""focus"",""7"",""147689""
","""event"",""trial"",""time""
""fullscreenenter"",""1"",""2564""
","
","","","","","","837","<p> The kids are happy.<div style='float: left;'><img src='images/i2.png' width = '640' height = '360'></img>","","0","instructions","","","","","","","","","","","","","",""
"learning-instructions","22","269988","0.0-8.0-0.0-0.14","1990","1","2","""event"",""trial"",""time""
""fullscreenenter"",""1"",""2564""
""blur"",""2"",""62781""
""focus"",""3"",""70000""
""blur"",""6"",""138713""
""focus"",""7"",""147689""
","""event"",""trial"",""time""
""blur"",""2"",""62781""
""blur"",""6"",""138713""
","""event"",""trial"",""time""
""focus"",""3"",""70000""
""focus"",""7"",""147689""
","""event"",""trial"",""time""
""fullscreenenter"",""1"",""2564""
","
","","","","","","507.60000002384186","<p> The kids are happy.<div style='float: left;'><img src='images/i3.png' width = '640' height = '360'></img>","","0","instructions","","","","","","","","","","","","","",""
"learning-instructions","23","272784","0.0-8.0-0.0-0.15","1990","1","2","""event"",""trial"",""time""
""fullscreenenter"",""1"",""2564""
""blur"",""2"",""62781""
""focus"",""3"",""70000""
""blur"",""6"",""138713""
""focus"",""7"",""147689""
","""event"",""trial"",""time""
""blur"",""2"",""62781""
""blur"",""6"",""138713""
","""event"",""trial"",""time""
""focus"",""3"",""70000""
""focus"",""7"",""147689""
","""event"",""trial"",""time""
""fullscreenenter"",""1"",""2564""
","
","","","","","","631.8000000119209","<p> The kids are happy.<div style='float: left;'><img src='images/i4.png' width = '640' height = '360'></img>","","0","instructions","","","","","","","","","","","","","",""
"learning-instructions","24","275530","0.0-8.0-0.0-0.16","1990","1","2","""event"",""trial"",""time""
""fullscreenenter"",""1"",""2564""
""blur"",""2"",""62781""
""focus"",""3"",""70000""
""blur"",""6"",""138713""
""focus"",""7"",""147689""
","""event"",""trial"",""time""
""blur"",""2"",""62781""
""blur"",""6"",""138713""
","""event"",""trial"",""time""
""focus"",""3"",""70000""
""focus"",""7"",""147689""
","""event"",""trial"",""time""
""fullscreenenter"",""1"",""2564""
","
","","","","","","541","<p> The kids are sad.<div style='float: left;'><img src='images/i5.png' width = '640' height = '360'></img>","","0","instructions","","","","","","","","","","","","","",""
"learning-instructions","25","278724","0.0-8.0-0.0-0.17","1990","1","2","""event"",""trial"",""time""
""fullscreenenter"",""1"",""2564""
""blur"",""2"",""62781""
""focus"",""3"",""70000""
""blur"",""6"",""138713""
""focus"",""7"",""147689""
","""event"",""trial"",""time""
""blur"",""2"",""62781""
""blur"",""6"",""138713""
","""event"",""trial"",""time""
""focus"",""3"",""70000""
""focus"",""7"",""147689""
","""event"",""trial"",""time""
""fullscreenenter"",""1"",""2564""
","
","","","","","","1025.800000011921","<p> The kids are happy.<div style='float: left;'><img src='images/i6.png' width = '640' height = '360'></img>","","0","instructions","","","","","","","","","","","","","",""
"learning-instructions","26","324515","0.0-8.0-0.0-0.18","1990","1","2","""event"",""trial"",""time""
""fullscreenenter"",""1"",""2564""
""blur"",""2"",""62781""
""focus"",""3"",""70000""
""blur"",""6"",""138713""
""focus"",""7"",""147689""
","""event"",""trial"",""time""
""blur"",""2"",""62781""
""blur"",""6"",""138713""
","""event"",""trial"",""time""
""focus"",""3"",""70000""
""focus"",""7"",""147689""
","""event"",""trial"",""time""
""fullscreenenter"",""1"",""2564""
","
","","","","","","38520.5","<p> As you can see, selecting that park for the soccer ball made the kids happy most of the time, but not all the time.","","0","instructions","","","","","","","","","","","","","",""
"learning-instructions","27","331347","0.0-8.0-0.0-0.19","1990","1","2","""event"",""trial"",""time""
""fullscreenenter"",""1"",""2564""
""blur"",""2"",""62781""
""focus"",""3"",""70000""
""blur"",""6"",""138713""
""focus"",""7"",""147689""
","""event"",""trial"",""time""
""blur"",""2"",""62781""
""blur"",""6"",""138713""
","""event"",""trial"",""time""
""focus"",""3"",""70000""
""focus"",""7"",""147689""
","""event"",""trial"",""time""
""fullscreenenter"",""1"",""2564""
","
","","","","","","432.30000001192093","<p> Now let's see what happens if you choose a DIFFERENT park for the soccer ball 5 times.","","0","instructions","","","","","","","","","","","","","",""
"learning-instructions","28","334810","0.0-8.0-0.0-0.20","1990","1","2","""event"",""trial"",""time""
""fullscreenenter"",""1"",""2564""
""blur"",""2"",""62781""
""focus"",""3"",""70000""
""blur"",""6"",""138713""
""focus"",""7"",""147689""
","""event"",""trial"",""time""
""blur"",""2"",""62781""
""blur"",""6"",""138713""
","""event"",""trial"",""time""
""focus"",""3"",""70000""
""focus"",""7"",""147689""
","""event"",""trial"",""time""
""fullscreenenter"",""1"",""2564""
","
","","","","","","1254.1000000238419","<p> The kids are sad.<div style='float: left;'><img src='images/i7.png' width = '640' height = '360'></img>","","0","instructions","","","","","","","","","","","","","",""
"learning-instructions","29","337536","0.0-8.0-0.0-0.21","1990","1","2","""event"",""trial"",""time""
""fullscreenenter"",""1"",""2564""
""blur"",""2"",""62781""
""focus"",""3"",""70000""
""blur"",""6"",""138713""
""focus"",""7"",""147689""
","""event"",""trial"",""time""
""blur"",""2"",""62781""
""blur"",""6"",""138713""
","""event"",""trial"",""time""
""focus"",""3"",""70000""
""focus"",""7"",""147689""
","""event"",""trial"",""time""
""fullscreenenter"",""1"",""2564""
","
","","","","","","520.4000000357628","<p> The kids are sad.<div style='float: left;'><img src='images/i8.png' width = '640' height = '360'></img>","","0","instructions","","","","","","","","","","","","","",""
"learning-instructions","30","340267","0.0-8.0-0.0-0.22","1990","1","2","""event"",""trial"",""time""
""fullscreenenter"",""1"",""2564""
""blur"",""2"",""62781""
""focus"",""3"",""70000""
""blur"",""6"",""138713""
""focus"",""7"",""147689""
","""event"",""trial"",""time""
""blur"",""2"",""62781""
""blur"",""6"",""138713""
","""event"",""trial"",""time""
""focus"",""3"",""70000""
""focus"",""7"",""147689""
","""event"",""trial"",""time""
""fullscreenenter"",""1"",""2564""
","
","","","","","","562.1000000238419","<p> The kids are happy.<div style='float: left;'><img src='images/i9.png' width = '640' height = '360'></img>","","0","instructions","","","","","","","","","","","","","",""
"learning-instructions","31","343019","0.0-8.0-0.0-0.23","1990","1","2","""event"",""trial"",""time""
""fullscreenenter"",""1"",""2564""
""blur"",""2"",""62781""
""focus"",""3"",""70000""
""blur"",""6"",""138713""
""focus"",""7"",""147689""
","""event"",""trial"",""time""
""blur"",""2"",""62781""
""blur"",""6"",""138713""
","""event"",""trial"",""time""
""focus"",""3"",""70000""
""focus"",""7"",""147689""
","""event"",""trial"",""time""
""fullscreenenter"",""1"",""2564""
","
","","","","","","546.3000000119209","<p> The kids are sad.<div style='float: left;'><img src='images/i10.png' width = '640' height = '360'></img>","","0","instructions","","","","","","","","","","","","","",""
"learning-instructions","32","347035","0.0-8.0-0.0-0.24","1990","1","2","""event"",""trial"",""time""
""fullscreenenter"",""1"",""2564""
""blur"",""2"",""62781""
""focus"",""3"",""70000""
""blur"",""6"",""138713""
""focus"",""7"",""147689""
","""event"",""trial"",""time""
""blur"",""2"",""62781""
""blur"",""6"",""138713""
","""event"",""trial"",""time""
""focus"",""3"",""70000""
""focus"",""7"",""147689""
","""event"",""trial"",""time""
""fullscreenenter"",""1"",""2564""
","
","","","","","","1810.5","<p> The kids are sad.<div style='float: left;'><img src='images/i11.png' width = '640' height = '360'></img>","","0","instructions","","","","","","","","","","","","","",""
"learning-instructions","33","355975","0.0-8.0-0.0-0.25","1990","1","2","""event"",""trial"",""time""
""fullscreenenter"",""1"",""2564""
""blur"",""2"",""62781""
""focus"",""3"",""70000""
""blur"",""6"",""138713""
""focus"",""7"",""147689""
","""event"",""trial"",""time""
""blur"",""2"",""62781""
""blur"",""6"",""138713""
","""event"",""trial"",""time""
""focus"",""3"",""70000""
""focus"",""7"",""147689""
","""event"",""trial"",""time""
""fullscreenenter"",""1"",""2564""
","
","","","","","","820.6999999880791","<p> As you can see, selecting the wrong park for the soccer ball made the kids sad most of the time, but not all the time.","","0","instructions","","","","","","","","","","","","","",""
"learning-instructions","34","365515","0.0-8.0-0.0-0.26","1990","1","2","""event"",""trial"",""time""
""fullscreenenter"",""1"",""2564""
""blur"",""2"",""62781""
""focus"",""3"",""70000""
""blur"",""6"",""138713""
""focus"",""7"",""147689""
","""event"",""trial"",""time""
""blur"",""2"",""62781""
""blur"",""6"",""138713""
","""event"",""trial"",""time""
""focus"",""3"",""70000""
""focus"",""7"",""147689""
","""event"",""trial"",""time""
""fullscreenenter"",""1"",""2564""
","
","","","","","","431.10000002384186","<p> The different pieces of equipment belong in different parks. You need to try to learn which is the best park for each piece of equipment.","","0","instructions","","","","","","","","","","","","","",""
"learning-instructions","35","382356","0.0-8.0-0.0-0.27","1990","1","2","""event"",""trial"",""time""
""fullscreenenter"",""1"",""2564""
""blur"",""2"",""62781""
""focus"",""3"",""70000""
""blur"",""6"",""138713""
""focus"",""7"",""147689""
","""event"",""trial"",""time""
""blur"",""2"",""62781""
""blur"",""6"",""138713""
","""event"",""trial"",""time""
""focus"",""3"",""70000""
""focus"",""7"",""147689""
","""event"",""trial"",""time""
""fullscreenenter"",""1"",""2564""
","
","","","","","","457.0999999642372","<p> Try to choose the best park for each piece of equipment, because you will <b> WIN </b> 1 point for each time you make the kids happy and <b>LOSE</b> 1 point for each time you make them sad. </p><p> Remember, if you make the best choice, you will win 1 point most of the time, but not all the time. </p>","","0","instructions","","","","","","","","","","","","","",""
"learning-instructions","36","388449","0.0-8.0-0.0-0.28","1990","1","2","""event"",""trial"",""time""
""fullscreenenter"",""1"",""2564""
""blur"",""2"",""62781""
""focus"",""3"",""70000""
""blur"",""6"",""138713""
""focus"",""7"",""147689""
","""event"",""trial"",""time""
""blur"",""2"",""62781""
""blur"",""6"",""138713""
","""event"",""trial"",""time""
""focus"",""3"",""70000""
""focus"",""7"",""147689""
","""event"",""trial"",""time""
""fullscreenenter"",""1"",""2564""
","
","","","","","","612.8000000119209","<p> This is just a practice round, but in the real game, your bonus payment will depend on your total number of points.","","0","instructions","","","","","","","","","","","","","",""
"learning-instructions","37","399502","0.0-8.0-0.0-0.29","1990","1","2","""event"",""trial"",""time""
""fullscreenenter"",""1"",""2564""
""blur"",""2"",""62781""
""focus"",""3"",""70000""
""blur"",""6"",""138713""
""focus"",""7"",""147689""
","""event"",""trial"",""time""
""blur"",""2"",""62781""
""blur"",""6"",""138713""
","""event"",""trial"",""time""
""focus"",""3"",""70000""
""focus"",""7"",""147689""
","""event"",""trial"",""time""
""fullscreenenter"",""1"",""2564""
","
","","","","","","728.1999999880791","<p> The position where each park appears will change throughout the game. </p><p> The position where the park appears <i> does not </i> influence how likely the kids are to be happy or sad. </p>","","0","instructions","","","","","","","","","","","","","",""
"learning-instructions","38","411796","0.0-8.0-0.0-0.30","1990","1","2","""event"",""trial"",""time""
""fullscreenenter"",""1"",""2564""
""blur"",""2"",""62781""
""focus"",""3"",""70000""
""blur"",""6"",""138713""
""focus"",""7"",""147689""
","""event"",""trial"",""time""
""blur"",""2"",""62781""
""blur"",""6"",""138713""
","""event"",""trial"",""time""
""focus"",""3"",""70000""
""focus"",""7"",""147689""
","""event"",""trial"",""time""
""fullscreenenter"",""1"",""2564""
","
","","","","","","937","<p> You will have 4 seconds to make each choice. Try to respond before time runs out! </p><p> You will lose 1 point each time you do not make a response. </p>","","0","instructions","","","","","","","","","","","","","",""
"learning-instructions","39","419519","0.0-8.0-0.0-0.31","1990","1","2","""event"",""trial"",""time""
""fullscreenenter"",""1"",""2564""
""blur"",""2"",""62781""
""focus"",""3"",""70000""
""blur"",""6"",""138713""
""focus"",""7"",""147689""
","""event"",""trial"",""time""
""blur"",""2"",""62781""
""blur"",""6"",""138713""
","""event"",""trial"",""time""
""focus"",""3"",""70000""
""focus"",""7"",""147689""
","""event"",""trial"",""time""
""fullscreenenter"",""1"",""2564""
","
","","","","","","936","<p> Remember, you should use the 1, 2, and 3 keys to select the park for each piece of equipment. </p><br><div class=""choice-instructions-grid""> <div class=""choice-option""><img src=""images/park1.png"" class=""choice-option-img"" stage=""instructions"" position=""0"" ><div class=""choice-option-text""> Press ""1."" </div></div><div class=""choice-option""><img src=""images/park2.png"" class=""choice-option-img"" stage=""instructions"" position=""1"" ><div class=""choice-option-text""> Press ""2."" </div></div><div class=""choice-option""><img src=""images/park3.png"" class=""choice-option-img"" stage=""instructions"" position=""2"" ><div class=""choice-option-text""> Press ""3."" </div></div></div>","","0","instructions","","","","","","","","","","","","","",""
"html-button-response","40","420773","0.0-8.0-1.0","1990","1","2","""event"",""trial"",""time""
""fullscreenenter"",""1"",""2564""
""blur"",""2"",""62781""
""focus"",""3"",""70000""
""blur"",""6"",""138713""
""focus"",""7"",""147689""
","""event"",""trial"",""time""
""blur"",""2"",""62781""
""blur"",""6"",""138713""
","""event"",""trial"",""time""
""focus"",""3"",""70000""
""focus"",""7"",""147689""
","""event"",""trial"",""time""
""fullscreenenter"",""1"",""2564""
","
","","","","","","1148.1000000238419","<p> Ready to practice? </p>","0","","","","","","","","","","","","","","","",""
"html-keyboard-response","41","421378","0.0-8.0-2.0-0.0","1990","1","2","""event"",""trial"",""time""
""fullscreenenter"",""1"",""2564""
""blur"",""2"",""62781""
""focus"",""3"",""70000""
""blur"",""6"",""138713""
""focus"",""7"",""147689""
","""event"",""trial"",""time""
""blur"",""2"",""62781""
""blur"",""6"",""138713""
","""event"",""trial"",""time""
""focus"",""3"",""70000""
""focus"",""7"",""147689""
","""event"",""trial"",""time""
""fullscreenenter"",""1"",""2564""
","
","","","","","","null","<div style=""font-size:60px;"">+</div>","null","","fixation","","","","","","","","","","","","","",""
"learning-trial","42","425387","0.0-8.0-2.0-1.0","1990","1","2","""event"",""trial"",""time""
""fullscreenenter"",""1"",""2564""
""blur"",""2"",""62781""
""focus"",""3"",""70000""
""blur"",""6"",""138713""
""focus"",""7"",""147689""
","""event"",""trial"",""time""
""blur"",""2"",""62781""
""blur"",""6"",""138713""
","""event"",""trial"",""time""
""focus"",""3"",""70000""
""focus"",""7"",""147689""
","""event"",""trial"",""time""
""fullscreenenter"",""1"",""2564""
","
","","","","","","1827.3999999761581","images/racket4.png","","","practice","images/park3.png","images/park2.png","images/park1.png","[2,1,0]","1","1","3","images/park1.png","-1","practice","","","",""
"html-keyboard-response","43","425888","0.0-8.0-2.0-0.1","1990","1","2","""event"",""trial"",""time""
""fullscreenenter"",""1"",""2564""
""blur"",""2"",""62781""
""focus"",""3"",""70000""
""blur"",""6"",""138713""
""focus"",""7"",""147689""
","""event"",""trial"",""time""
""blur"",""2"",""62781""
""blur"",""6"",""138713""
","""event"",""trial"",""time""
""focus"",""3"",""70000""
""focus"",""7"",""147689""
","""event"",""trial"",""time""
""fullscreenenter"",""1"",""2564""
","
","","","","","","null","<div style=""font-size:60px;"">+</div>","null","","fixation","","","","","","","","","","","","","",""
"learning-trial","44","429895","0.0-8.0-2.0-1.1","1990","1","2","""event"",""trial"",""time""
""fullscreenenter"",""1"",""2564""
""blur"",""2"",""62781""
""focus"",""3"",""70000""
""blur"",""6"",""138713""
""focus"",""7"",""147689""
","""event"",""trial"",""time""
""blur"",""2"",""62781""
""blur"",""6"",""138713""
","""event"",""trial"",""time""
""focus"",""3"",""70000""
""focus"",""7"",""147689""
","""event"",""trial"",""time""
""fullscreenenter"",""1"",""2564""
","
","","","","","","2501.7000000476837","images/racket2.png","","","practice","images/park1.png","images/park2.png","images/park3.png","[0,1,2]","2","2","1","images/park1.png","-1","practice","","","",""
"html-keyboard-response","45","430398","0.0-8.0-2.0-0.2","1990","1","2","""event"",""trial"",""time""
""fullscreenenter"",""1"",""2564""
""blur"",""2"",""62781""
""focus"",""3"",""70000""
""blur"",""6"",""138713""
""focus"",""7"",""147689""
","""event"",""trial"",""time""
""blur"",""2"",""62781""
""blur"",""6"",""138713""
","""event"",""trial"",""time""
""focus"",""3"",""70000""
""focus"",""7"",""147689""
","""event"",""trial"",""time""
""fullscreenenter"",""1"",""2564""
","
","","","","","","null","<div style=""font-size:60px;"">+</div>","null","","fixation","","","","","","","","","","","","","",""
"learning-trial","46","434403","0.0-8.0-2.0-1.2","1990","1","2","""event"",""trial"",""time""
""fullscreenenter"",""1"",""2564""
""blur"",""2"",""62781""
""focus"",""3"",""70000""
""blur"",""6"",""138713""
""focus"",""7"",""147689""
","""event"",""trial"",""time""
""blur"",""2"",""62781""
""blur"",""6"",""138713""
","""event"",""trial"",""time""
""focus"",""3"",""70000""
""focus"",""7"",""147689""
","""event"",""trial"",""time""
""fullscreenenter"",""1"",""2564""
","
","","","","","","1701.0999999642372","images/racket4.png","","","practice","images/park3.png","images/park1.png","images/park2.png","[2,0,1]","1","2","2","images/park1.png","-1","practice","","","",""
"html-keyboard-response","47","434907","0.0-8.0-2.0-0.3","1990","1","2","""event"",""trial"",""time""
""fullscreenenter"",""1"",""2564""
""blur"",""2"",""62781""
""focus"",""3"",""70000""
""blur"",""6"",""138713""
""focus"",""7"",""147689""
","""event"",""trial"",""time""
""blur"",""2"",""62781""
""blur"",""6"",""138713""
","""event"",""trial"",""time""
""focus"",""3"",""70000""
""focus"",""7"",""147689""
","""event"",""trial"",""time""
""fullscreenenter"",""1"",""2564""
","
","","","","","","null","<div style=""font-size:60px;"">+</div>","null","","fixation","","","","","","","","","","","","","",""
"learning-trial","48","438914","0.0-8.0-2.0-1.3","1990","1","2","""event"",""trial"",""time""
""fullscreenenter"",""1"",""2564""
""blur"",""2"",""62781""
""focus"",""3"",""70000""
""blur"",""6"",""138713""
""focus"",""7"",""147689""
","""event"",""trial"",""time""
""blur"",""2"",""62781""
""blur"",""6"",""138713""
","""event"",""trial"",""time""
""focus"",""3"",""70000""
""focus"",""7"",""147689""
","""event"",""trial"",""time""
""fullscreenenter"",""1"",""2564""
","
","","","","","","754.6999999880791","images/racket3.png","","","practice","images/park3.png","images/park2.png","images/park1.png","[2,1,0]","1","1","1","images/park3.png","-1","practice","","","",""
"html-keyboard-response","49","439417","0.0-8.0-2.0-0.4","1990","1","2","""event"",""trial"",""time""
""fullscreenenter"",""1"",""2564""
""blur"",""2"",""62781""
""focus"",""3"",""70000""
""blur"",""6"",""138713""
""focus"",""7"",""147689""
","""event"",""trial"",""time""
""blur"",""2"",""62781""
""blur"",""6"",""138713""
","""event"",""trial"",""time""
""focus"",""3"",""70000""
""focus"",""7"",""147689""
","""event"",""trial"",""time""
""fullscreenenter"",""1"",""2564""
","
","","","","","","null","<div style=""font-size:60px;"">+</div>","null","","fixation","","","","","","","","","","","","","",""
"learning-trial","50","443423","0.0-8.0-2.0-1.4","1990","1","2","""event"",""trial"",""time""
""fullscreenenter"",""1"",""2564""
""blur"",""2"",""62781""
""focus"",""3"",""70000""
""blur"",""6"",""138713""
""focus"",""7"",""147689""
","""event"",""trial"",""time""
""blur"",""2"",""62781""
""blur"",""6"",""138713""
","""event"",""trial"",""time""
""focus"",""3"",""70000""
""focus"",""7"",""147689""
","""event"",""trial"",""time""
""fullscreenenter"",""1"",""2564""
","
","","","","","","1133.800000011921","images/racket3.png","","","practice","images/park2.png","images/park1.png","images/park3.png","[1,0,2]","1","0","2","images/park1.png","-1","practice","","","",""
"html-keyboard-response","51","443929","0.0-8.0-2.0-0.5","1990","1","2","""event"",""trial"",""time""
""fullscreenenter"",""1"",""2564""
""blur"",""2"",""62781""
""focus"",""3"",""70000""
""blur"",""6"",""138713""
""focus"",""7"",""147689""
","""event"",""trial"",""time""
""blur"",""2"",""62781""
""blur"",""6"",""138713""
","""event"",""trial"",""time""
""focus"",""3"",""70000""
""focus"",""7"",""147689""
","""event"",""trial"",""time""
""fullscreenenter"",""1"",""2564""
","
","","","","","","null","<div style=""font-size:60px;"">+</div>","null","","fixation","","","","","","","","","","","","","",""
"learning-trial","52","447934","0.0-8.0-2.0-1.5","1990","1","2","""event"",""trial"",""time""
""fullscreenenter"",""1"",""2564""
""blur"",""2"",""62781""
""focus"",""3"",""70000""
""blur"",""6"",""138713""
""focus"",""7"",""147689""
","""event"",""trial"",""time""
""blur"",""2"",""62781""
""blur"",""6"",""138713""
","""event"",""trial"",""time""
""focus"",""3"",""70000""
""focus"",""7"",""147689""
","""event"",""trial"",""time""
""fullscreenenter"",""1"",""2564""
","
","","","","","","864.0999999642372","images/racket2.png","","","practice","images/park1.png","images/park2.png","images/park3.png","[0,1,2]","2","2","2","images/park2.png","-1","practice","","","",""
"html-keyboard-response","53","448436","0.0-8.0-2.0-0.6","1990","1","2","""event"",""trial"",""time""
""fullscreenenter"",""1"",""2564""
""blur"",""2"",""62781""
""focus"",""3"",""70000""
""blur"",""6"",""138713""
""focus"",""7"",""147689""
","""event"",""trial"",""time""
""blur"",""2"",""62781""
""blur"",""6"",""138713""
","""event"",""trial"",""time""
""focus"",""3"",""70000""
""focus"",""7"",""147689""
","""event"",""trial"",""time""
""fullscreenenter"",""1"",""2564""
","
","","","","","","null","<div style=""font-size:60px;"">+</div>","null","","fixation","","","","","","","","","","","","","",""
"learning-trial","54","452441","0.0-8.0-2.0-1.6","1990","1","2","""event"",""trial"",""time""
""fullscreenenter"",""1"",""2564""
""blur"",""2"",""62781""
""focus"",""3"",""70000""
""blur"",""6"",""138713""
""focus"",""7"",""147689""
","""event"",""trial"",""time""
""blur"",""2"",""62781""
""blur"",""6"",""138713""
","""event"",""trial"",""time""
""focus"",""3"",""70000""
""focus"",""7"",""147689""
","""event"",""trial"",""time""
""fullscreenenter"",""1"",""2564""
","
","","","","","","1595.3999999761581","images/ball3.png","","","practice","images/park3.png","images/park2.png","images/park1.png","[2,1,0]","0","2","2","images/park2.png","-1","practice","","","",""
"html-keyboard-response","55","452943","0.0-8.0-2.0-0.7","1990","1","2","""event"",""trial"",""time""
""fullscreenenter"",""1"",""2564""
""blur"",""2"",""62781""
""focus"",""3"",""70000""
""blur"",""6"",""138713""
""focus"",""7"",""147689""
","""event"",""trial"",""time""
""blur"",""2"",""62781""
""blur"",""6"",""138713""
","""event"",""trial"",""time""
""focus"",""3"",""70000""
""focus"",""7"",""147689""
","""event"",""trial"",""time""
""fullscreenenter"",""1"",""2564""
","
","","","","","","null","<div style=""font-size:60px;"">+</div>","null","","fixation","","","","","","","","","","","","","",""
"learning-trial","56","456948","0.0-8.0-2.0-1.7","1990","1","2","""event"",""trial"",""time""
""fullscreenenter"",""1"",""2564""
""blur"",""2"",""62781""
""focus"",""3"",""70000""
""blur"",""6"",""138713""
""focus"",""7"",""147689""
","""event"",""trial"",""time""
""blur"",""2"",""62781""
""blur"",""6"",""138713""
","""event"",""trial"",""time""
""focus"",""3"",""70000""
""focus"",""7"",""147689""
","""event"",""trial"",""time""
""fullscreenenter"",""1"",""2564""
","
","","","","","","1086.800000011921","images/racket1.png","","","practice","images/park3.png","images/park2.png","images/park1.png","[2,1,0]","2","0","3","images/park1.png","-1","practice","","","",""
"html-keyboard-response","57","457454","0.0-8.0-2.0-0.8","1990","1","2","""event"",""trial"",""time""
""fullscreenenter"",""1"",""2564""
""blur"",""2"",""62781""
""focus"",""3"",""70000""
""blur"",""6"",""138713""
""focus"",""7"",""147689""
","""event"",""trial"",""time""
""blur"",""2"",""62781""
""blur"",""6"",""138713""
","""event"",""trial"",""time""
""focus"",""3"",""70000""
""focus"",""7"",""147689""
","""event"",""trial"",""time""
""fullscreenenter"",""1"",""2564""
","
","","","","","","null","<div style=""font-size:60px;"">+</div>","null","","fixation","","","","","","","","","","","","","",""
"learning-trial","58","461460","0.0-8.0-2.0-1.8","1990","1","2","""event"",""trial"",""time""
""fullscreenenter"",""1"",""2564""
""blur"",""2"",""62781""
""focus"",""3"",""70000""
""blur"",""6"",""138713""
""focus"",""7"",""147689""
","""event"",""trial"",""time""
""blur"",""2"",""62781""
""blur"",""6"",""138713""
","""event"",""trial"",""time""
""focus"",""3"",""70000""
""focus"",""7"",""147689""
","""event"",""trial"",""time""
""fullscreenenter"",""1"",""2564""
","
","","","","","","473.4000000357628","images/ball3.png","","","practice","images/park1.png","images/park2.png","images/park3.png","[0,1,2]","0","0","2","images/park2.png","-1","practice","","","",""
"html-keyboard-response","59","461961","0.0-8.0-2.0-0.9","1990","1","2","""event"",""trial"",""time""
""fullscreenenter"",""1"",""2564""
""blur"",""2"",""62781""
""focus"",""3"",""70000""
""blur"",""6"",""138713""
""focus"",""7"",""147689""
","""event"",""trial"",""time""
""blur"",""2"",""62781""
""blur"",""6"",""138713""
","""event"",""trial"",""time""
""focus"",""3"",""70000""
""focus"",""7"",""147689""
","""event"",""trial"",""time""
""fullscreenenter"",""1"",""2564""
","
","","","","","","null","<div style=""font-size:60px;"">+</div>","null","","fixation","","","","","","","","","","","","","",""
"learning-trial","60","465967","0.0-8.0-2.0-1.9","1990","1","2","""event"",""trial"",""time""
""fullscreenenter"",""1"",""2564""
""blur"",""2"",""62781""
""focus"",""3"",""70000""
""blur"",""6"",""138713""
""focus"",""7"",""147689""
","""event"",""trial"",""time""
""blur"",""2"",""62781""
""blur"",""6"",""138713""
","""event"",""trial"",""time""
""focus"",""3"",""70000""
""focus"",""7"",""147689""
","""event"",""trial"",""time""
""fullscreenenter"",""1"",""2564""
","
","","","","","","617.1999999880791","images/ball1.png","","","practice","images/park3.png","images/park2.png","images/park1.png","[2,1,0]","0","2","1","images/park3.png","1","practice","","","",""
"html-keyboard-response","61","466473","0.0-8.0-2.0-0.10","1990","1","2","""event"",""trial"",""time""
""fullscreenenter"",""1"",""2564""
""blur"",""2"",""62781""
""focus"",""3"",""70000""
""blur"",""6"",""138713""
""focus"",""7"",""147689""
","""event"",""trial"",""time""
""blur"",""2"",""62781""
""blur"",""6"",""138713""
","""event"",""trial"",""time""
""focus"",""3"",""70000""
""focus"",""7"",""147689""
","""event"",""trial"",""time""
""fullscreenenter"",""1"",""2564""
","
","","","","","","null","<div style=""font-size:60px;"">+</div>","null","","fixation","","","","","","","","","","","","","",""
"learning-trial","62","470479","0.0-8.0-2.0-1.10","1990","1","2","""event"",""trial"",""time""
""fullscreenenter"",""1"",""2564""
""blur"",""2"",""62781""
""focus"",""3"",""70000""
""blur"",""6"",""138713""
""focus"",""7"",""147689""
","""event"",""trial"",""time""
""blur"",""2"",""62781""
""blur"",""6"",""138713""
","""event"",""trial"",""time""
""focus"",""3"",""70000""
""focus"",""7"",""147689""
","""event"",""trial"",""time""
""fullscreenenter"",""1"",""2564""
","
","","","","","","1000.0999999642372","images/ball1.png","","","practice","images/park3.png","images/park1.png","images/park2.png","[2,0,1]","0","1","1","images/park3.png","-1","practice","","","",""
"html-keyboard-response","63","470980","0.0-8.0-2.0-0.11","1990","1","2","""event"",""trial"",""time""
""fullscreenenter"",""1"",""2564""
""blur"",""2"",""62781""
""focus"",""3"",""70000""
""blur"",""6"",""138713""
""focus"",""7"",""147689""
","""event"",""trial"",""time""
""blur"",""2"",""62781""
""blur"",""6"",""138713""
","""event"",""trial"",""time""
""focus"",""3"",""70000""
""focus"",""7"",""147689""
","""event"",""trial"",""time""
""fullscreenenter"",""1"",""2564""
","
","","","","","","null","<div style=""font-size:60px;"">+</div>","null","","fixation","","","","","","","","","","","","","",""
"learning-trial","64","474985","0.0-8.0-2.0-1.11","1990","1","2","""event"",""trial"",""time""
""fullscreenenter"",""1"",""2564""
""blur"",""2"",""62781""
""focus"",""3"",""70000""
""blur"",""6"",""138713""
""focus"",""7"",""147689""
","""event"",""trial"",""time""
""blur"",""2"",""62781""
""blur"",""6"",""138713""
","""event"",""trial"",""time""
""focus"",""3"",""70000""
""focus"",""7"",""147689""
","""event"",""trial"",""time""
""fullscreenenter"",""1"",""2564""
","
","","","","","","601.1999999880791","images/racket1.png","","","practice","images/park3.png","images/park2.png","images/park1.png","[2,1,0]","2","0","2","images/park2.png","-1","practice","","","",""
"html-button-response","65","479021","0.0-8.0-3.0","1990","1","2","""event"",""trial"",""time""
""fullscreenenter"",""1"",""2564""
""blur"",""2"",""62781""
""focus"",""3"",""70000""
""blur"",""6"",""138713""
""focus"",""7"",""147689""
","""event"",""trial"",""time""
""blur"",""2"",""62781""
""blur"",""6"",""138713""
","""event"",""trial"",""time""
""focus"",""3"",""70000""
""focus"",""7"",""147689""
","""event"",""trial"",""time""
""fullscreenenter"",""1"",""2564""
","
","","","","","","4032.300000011921","<p> You earned -10 points in the practice round! </p>","0","","break","","","","","","","","","","","","","",""
"learning-instructions","66","488401","0.0-8.0-4.0-0.0","1990","1","2","""event"",""trial"",""time""
""fullscreenenter"",""1"",""2564""
""blur"",""2"",""62781""
""focus"",""3"",""70000""
""blur"",""6"",""138713""
""focus"",""7"",""147689""
","""event"",""trial"",""time""
""blur"",""2"",""62781""
""blur"",""6"",""138713""
","""event"",""trial"",""time""
""focus"",""3"",""70000""
""focus"",""7"",""147689""
","""event"",""trial"",""time""
""fullscreenenter"",""1"",""2564""
","
","","","","","","1235.800000011921","<p> It's almost time to start the real game. </p><p> Before you start, we're going to ask you a few questions about how the game works. </p>","","0","instructions","","","","","","","","","","","","","",""
"preload","67","495408","0.0-8.0-5.0","1990","1","2","""event"",""trial"",""time""
""fullscreenenter"",""1"",""2564""
""blur"",""2"",""62781""
""focus"",""3"",""70000""
""blur"",""6"",""138713""
""focus"",""7"",""147689""
","""event"",""trial"",""time""
""blur"",""2"",""62781""
""blur"",""6"",""138713""
","""event"",""trial"",""time""
""focus"",""3"",""70000""
""focus"",""7"",""147689""
","""event"",""trial"",""time""
""fullscreenenter"",""1"",""2564""
","
","true","false","[]","[]","[]","","","","","","","","","","","","","","","","","","",""
"comp-q","68","503438","0.0-8.0-6.0-0.0","1990","1","2","""event"",""trial"",""time""
""fullscreenenter"",""1"",""2564""
""blur"",""2"",""62781""
""focus"",""3"",""70000""
""blur"",""6"",""138713""
""focus"",""7"",""147689""
","""event"",""trial"",""time""
""blur"",""2"",""62781""
""blur"",""6"",""138713""
","""event"",""trial"",""time""
""focus"",""3"",""70000""
""focus"",""7"",""147689""
","""event"",""trial"",""time""
""fullscreenenter"",""1"",""2564""
","
","","","","","","2578.300000011921","<p> <b> True or False? </b> </p><p> If you choose the best option, you will always earn 1 point. </p>","","0","comp_question","","","","","","","","","","","false","","",""
"comp-q","69","510188","0.0-8.0-6.0-1.0","1990","1","2","""event"",""trial"",""time""
""fullscreenenter"",""1"",""2564""
""blur"",""2"",""62781""
""focus"",""3"",""70000""
""blur"",""6"",""138713""
""focus"",""7"",""147689""
","""event"",""trial"",""time""
""blur"",""2"",""62781""
""blur"",""6"",""138713""
","""event"",""trial"",""time""
""focus"",""3"",""70000""
""focus"",""7"",""147689""
","""event"",""trial"",""time""
""fullscreenenter"",""1"",""2564""
","
","","","","","","1194.4000000357628","<p><b> Incorrect. </b> Sometimes you will lose 1 point, even if you choose the best option. </p>","","0","comp_answer","","","","","","","","","","","","","",""
"comp-q","70","515584","0.0-8.0-6.0-0.1","1990","1","2","""event"",""trial"",""time""
""fullscreenenter"",""1"",""2564""
""blur"",""2"",""62781""
""focus"",""3"",""70000""
""blur"",""6"",""138713""
""focus"",""7"",""147689""
","""event"",""trial"",""time""
""blur"",""2"",""62781""
""blur"",""6"",""138713""
","""event"",""trial"",""time""
""focus"",""3"",""70000""
""focus"",""7"",""147689""
","""event"",""trial"",""time""
""fullscreenenter"",""1"",""2564""
","
","","","","","","765.9000000357628","<p> <b> True or False? </b> </p><p> You will have as much time as you want to make each choice. </p>","","1","comp_question","","","","","","","","","","","true","","",""
"comp-q","71","521900","0.0-8.0-6.0-1.1","1990","1","2","""event"",""trial"",""time""
""fullscreenenter"",""1"",""2564""
""blur"",""2"",""62781""
""focus"",""3"",""70000""
""blur"",""6"",""138713""
""focus"",""7"",""147689""
","""event"",""trial"",""time""
""blur"",""2"",""62781""
""blur"",""6"",""138713""
","""event"",""trial"",""time""
""focus"",""3"",""70000""
""focus"",""7"",""147689""
","""event"",""trial"",""time""
""fullscreenenter"",""1"",""2564""
","
","","","","","","1499.800000011921","<p> <b> That's right! </b> You will only have 4 seconds to make each choice. </p>","","0","comp_answer","","","","","","","","","","","","","",""
"comp-q","72","529022","0.0-8.0-6.0-0.2","1990","1","2","""event"",""trial"",""time""
""fullscreenenter"",""1"",""2564""
""blur"",""2"",""62781""
""focus"",""3"",""70000""
""blur"",""6"",""138713""
""focus"",""7"",""147689""
","""event"",""trial"",""time""
""blur"",""2"",""62781""
""blur"",""6"",""138713""
","""event"",""trial"",""time""
""focus"",""3"",""70000""
""focus"",""7"",""147689""
","""event"",""trial"",""time""
""fullscreenenter"",""1"",""2564""
","
","","","","","","968.6999999880791","<p> <b> True or False? </b> </p><p> You should use the '1', '2', and '3' keys to make your choices. </p>","","0","comp_question","","","","","","","","","","","true","","",""
"comp-q","73","535590","0.0-8.0-6.0-1.2","1990","1","2","""event"",""trial"",""time""
""fullscreenenter"",""1"",""2564""
""blur"",""2"",""62781""
""focus"",""3"",""70000""
""blur"",""6"",""138713""
""focus"",""7"",""147689""
","""event"",""trial"",""time""
""blur"",""2"",""62781""
""blur"",""6"",""138713""
","""event"",""trial"",""time""
""focus"",""3"",""70000""
""focus"",""7"",""147689""
","""event"",""trial"",""time""
""fullscreenenter"",""1"",""2564""
","
","","","","","","1723.199999988079","<p> <b> That's right! </b> You should use the '1', '2', and '3' keys to make each choice. </p>","","0","comp_answer","","","","","","","","","","","","","",""
"learning-instructions","74","545074","0.0-8.0-7.0-0.0","1990","1","2","""event"",""trial"",""time""
""fullscreenenter"",""1"",""2564""
""blur"",""2"",""62781""
""focus"",""3"",""70000""
""blur"",""6"",""138713""
""focus"",""7"",""147689""
","""event"",""trial"",""time""
""blur"",""2"",""62781""
""blur"",""6"",""138713""
","""event"",""trial"",""time""
""focus"",""3"",""70000""
""focus"",""7"",""147689""
","""event"",""trial"",""time""
""fullscreenenter"",""1"",""2564""
","
","","","","","","1000.1999999880791","<p> It's now time to start the real game. </p>Do your best, because the points you earn in the next rounds will influence your bonus payment. </p>","","0","instructions","","","","","","","","","","","","","",""
"preload","75","556417","0.0-9.0-0.0","1990","1","2","""event"",""trial"",""time""
""fullscreenenter"",""1"",""2564""
""blur"",""2"",""62781""
""focus"",""3"",""70000""
""blur"",""6"",""138713""
""focus"",""7"",""147689""
","""event"",""trial"",""time""
""blur"",""2"",""62781""
""blur"",""6"",""138713""
","""event"",""trial"",""time""
""focus"",""3"",""70000""
""focus"",""7"",""147689""
","""event"",""trial"",""time""
""fullscreenenter"",""1"",""2564""
","
","true","false","[]","[]","[]","","","","","","","","","","","","","","","","","","",""
"learning-instructions","76","566021","0.0-9.0-1.0-0.0","1990","1","2","""event"",""trial"",""time""
""fullscreenenter"",""1"",""2564""
""blur"",""2"",""62781""
""focus"",""3"",""70000""
""blur"",""6"",""138713""
""focus"",""7"",""147689""
","""event"",""trial"",""time""
""blur"",""2"",""62781""
""blur"",""6"",""138713""
","""event"",""trial"",""time""
""focus"",""3"",""70000""
""focus"",""7"",""147689""
","""event"",""trial"",""time""
""fullscreenenter"",""1"",""2564""
","
","","","","","","1275.199999988079","<p> Your goal in this round is to travel the world by putting fuel into different vehicles. </p><p> To travel, you will need to put fuel into many different vehicles. </p></div>","","0","instructions","","","","","","","","","","","","","",""
"learning-instructions","77","575627","0.0-9.0-1.0-0.1","1990","1","2","""event"",""trial"",""time""
""fullscreenenter"",""1"",""2564""
""blur"",""2"",""62781""
""focus"",""3"",""70000""
""blur"",""6"",""138713""
""focus"",""7"",""147689""
","""event"",""trial"",""time""
""blur"",""2"",""62781""
""blur"",""6"",""138713""
","""event"",""trial"",""time""
""focus"",""3"",""70000""
""focus"",""7"",""147689""
","""event"",""trial"",""time""
""fullscreenenter"",""1"",""2564""
","
","","","","","","822.8000000119209","<p> On each turn, you will see a picture of one of your vehicles and three different types of fuel.  </p><p> You need to select which kind of fuel to use.  </p>","","0","instructions","","","","","","","","","","","","","",""
"learning-instructions","78","583286","0.0-9.0-1.0-0.2","1990","1","2","""event"",""trial"",""time""
""fullscreenenter"",""1"",""2564""
""blur"",""2"",""62781""
""focus"",""3"",""70000""
""blur"",""6"",""138713""
""focus"",""7"",""147689""
","""event"",""trial"",""time""
""blur"",""2"",""62781""
""blur"",""6"",""138713""
","""event"",""trial"",""time""
""focus"",""3"",""70000""
""focus"",""7"",""147689""
","""event"",""trial"",""time""
""fullscreenenter"",""1"",""2564""
","
","","","","","","790.6000000238419","<p> You can select the fuel on the left by pressing 1, the fuel in the middle by pressing 2, and the fuel on the right by pressing 3. </p><br><div class=""choice-instructions-grid""> <div class=""choice-option""><img src=""images/vehicles_choice1.png"" class=""choice-option-img"" stage=""instructions"" position=""0"" ><div class=""choice-option-text""> Press ""1."" </div></div><div class=""choice-option""><img src=""images/vehicles_choice2.png"" class=""choice-option-img"" stage=""instructions"" position=""1"" ><div class=""choice-option-text""> Press ""2."" </div></div><div class=""choice-option""><img src=""images/vehicles_choice3.png"" class=""choice-option-img"" stage=""instructions"" position=""2"" ><div class=""choice-option-text""> Press ""3."" </div></div></div>","","0","instructions","","","","","","","","","","","","","",""
"learning-instructions","79","589775","0.0-9.0-1.0-0.3","1990","1","2","""event"",""trial"",""time""
""fullscreenenter"",""1"",""2564""
""blur"",""2"",""62781""
""focus"",""3"",""70000""
""blur"",""6"",""138713""
""focus"",""7"",""147689""
","""event"",""trial"",""time""
""blur"",""2"",""62781""
""blur"",""6"",""138713""
","""event"",""trial"",""time""
""focus"",""3"",""70000""
""focus"",""7"",""147689""
","""event"",""trial"",""time""
""fullscreenenter"",""1"",""2564""
","
","","","","","","1258.5","<p> If the fuel you chose works for that vehicle, it will start, and </p><p> you will get to travel. </p><div style='float: center;'><img src='images/check.png' width = '200' height = '200'></img>","","0","instructions","","","","","","","","","","","","","",""
"learning-instructions","80","595137","0.0-9.0-1.0-0.4","1990","1","2","""event"",""trial"",""time""
""fullscreenenter"",""1"",""2564""
""blur"",""2"",""62781""
""focus"",""3"",""70000""
""blur"",""6"",""138713""
""focus"",""7"",""147689""
","""event"",""trial"",""time""
""blur"",""2"",""62781""
""blur"",""6"",""138713""
","""event"",""trial"",""time""
""focus"",""3"",""70000""
""focus"",""7"",""147689""
","""event"",""trial"",""time""
""fullscreenenter"",""1"",""2564""
","
","","","","","","823.5","<p> But, if the fuel you chose does not work, your vehicle will not move. </p><div style='float: center;'><img src='images/x.png' width = '200' height = '200'></img>","","0","instructions","","","","","","","","","","","","","",""
"learning-instructions","81","606311","0.0-9.0-1.0-0.5","1990","1","2","""event"",""trial"",""time""
""fullscreenenter"",""1"",""2564""
""blur"",""2"",""62781""
""focus"",""3"",""70000""
""blur"",""6"",""138713""
""focus"",""7"",""147689""
","""event"",""trial"",""time""
""blur"",""2"",""62781""
""blur"",""6"",""138713""
","""event"",""trial"",""time""
""focus"",""3"",""70000""
""focus"",""7"",""147689""
","""event"",""trial"",""time""
""fullscreenenter"",""1"",""2564""
","
","","","","","","494.30000001192093","<p> Importantly, each vehicle has a fuel that works best for it. </p><p> If you choose the fuel that works best for the vehicle, it will be more likely to start. </p>","","0","instructions","","","","","","","","","","","","","",""
"learning-instructions","82","619220","0.0-9.0-1.0-0.6","1990","1","2","""event"",""trial"",""time""
""fullscreenenter"",""1"",""2564""
""blur"",""2"",""62781""
""focus"",""3"",""70000""
""blur"",""6"",""138713""
""focus"",""7"",""147689""
","""event"",""trial"",""time""
""blur"",""2"",""62781""
""blur"",""6"",""138713""
","""event"",""trial"",""time""
""focus"",""3"",""70000""
""focus"",""7"",""147689""
","""event"",""trial"",""time""
""fullscreenenter"",""1"",""2564""
","
","","","","","","2704.400000035763","<p> However, even if you choose the best fuel for the vehicle, it may still not move. </p><p> Similarly, even if you choose the <i>wrong</i> fuel, the vehicle may still start and let you travel.","","0","instructions","","","","","","","","","","","","","",""
"learning-instructions","83","632029","0.0-9.0-1.0-0.7","1990","1","2","""event"",""trial"",""time""
""fullscreenenter"",""1"",""2564""
""blur"",""2"",""62781""
""focus"",""3"",""70000""
""blur"",""6"",""138713""
""focus"",""7"",""147689""
","""event"",""trial"",""time""
""blur"",""2"",""62781""
""blur"",""6"",""138713""
","""event"",""trial"",""time""
""focus"",""3"",""70000""
""focus"",""7"",""147689""
","""event"",""trial"",""time""
""fullscreenenter"",""1"",""2564""
","
","","","","","","452.80000001192093","<p> Try to choose the best fuel for each vehicle, because you will <b> WIN </b> 1 point each time you get to travel and <b>LOSE</b> 1 point each time a vehicle does not start. </p><p> Your bonus payment will depend on your total number of points.","","0","instructions","","","","","","","","","","","","","",""
"learning-instructions","84","641164","0.0-9.0-1.0-0.8","1990","1","2","""event"",""trial"",""time""
""fullscreenenter"",""1"",""2564""
""blur"",""2"",""62781""
""focus"",""3"",""70000""
""blur"",""6"",""138713""
""focus"",""7"",""147689""
","""event"",""trial"",""time""
""blur"",""2"",""62781""
""blur"",""6"",""138713""
","""event"",""trial"",""time""
""focus"",""3"",""70000""
""focus"",""7"",""147689""
","""event"",""trial"",""time""
""fullscreenenter"",""1"",""2564""
","
","","","","","","883.7999999523163","<p> The position of each type of fuel will change throughout the round. </p><p> The fuel's position <i> does not </i> influence how likely it is to make each vehicle start. </p>","","0","instructions","","","","","","","","","","","","","",""
"learning-instructions","85","651287","0.0-9.0-1.0-0.9","1990","1","2","""event"",""trial"",""time""
""fullscreenenter"",""1"",""2564""
""blur"",""2"",""62781""
""focus"",""3"",""70000""
""blur"",""6"",""138713""
""focus"",""7"",""147689""
","""event"",""trial"",""time""
""blur"",""2"",""62781""
""blur"",""6"",""138713""
","""event"",""trial"",""time""
""focus"",""3"",""70000""
""focus"",""7"",""147689""
","""event"",""trial"",""time""
""fullscreenenter"",""1"",""2564""
","
","","","","","","831.8000000119209","<p> You will have 4 seconds to make each choice. Try to respond before time runs out! </p><p> You will lose 1 point each time you do not make a response. </p>","","0","instructions","","","","","","","","","","","","","",""
"html-keyboard-response","86","651890","0.0-9.0-2.0-0.0","1990","1","2","""event"",""trial"",""time""
""fullscreenenter"",""1"",""2564""
""blur"",""2"",""62781""
""focus"",""3"",""70000""
""blur"",""6"",""138713""
""focus"",""7"",""147689""
","""event"",""trial"",""time""
""blur"",""2"",""62781""
""blur"",""6"",""138713""
","""event"",""trial"",""time""
""focus"",""3"",""70000""
""focus"",""7"",""147689""
","""event"",""trial"",""time""
""fullscreenenter"",""1"",""2564""
","
","","","","","","null","<div style=""font-size:60px;"">+</div>","null","","fixation","","","","","","","","","","","","","",""
"learning-trial","87","655894","0.0-9.0-2.0-1.0","1990","1","2","""event"",""trial"",""time""
""fullscreenenter"",""1"",""2564""
""blur"",""2"",""62781""
""focus"",""3"",""70000""
""blur"",""6"",""138713""
""focus"",""7"",""147689""
","""event"",""trial"",""time""
""blur"",""2"",""62781""
""blur"",""6"",""138713""
","""event"",""trial"",""time""
""focus"",""3"",""70000""
""focus"",""7"",""147689""
","""event"",""trial"",""time""
""fullscreenenter"",""1"",""2564""
","
","","","","","","881.3000000119209","images/train2.png","","","learning","images/vehicles_choice2.png","images/vehicles_choice3.png","images/vehicles_choice1.png","[1,2,0]","0","2","1","images/vehicles_choice2.png","-1","vehicles","","train","1","0"
"html-keyboard-response","88","656397","0.0-9.0-2.0-0.1","1990","1","2","""event"",""trial"",""time""
""fullscreenenter"",""1"",""2564""
""blur"",""2"",""62781""
""focus"",""3"",""70000""
""blur"",""6"",""138713""
""focus"",""7"",""147689""
","""event"",""trial"",""time""
""blur"",""2"",""62781""
""blur"",""6"",""138713""
","""event"",""trial"",""time""
""focus"",""3"",""70000""
""focus"",""7"",""147689""
","""event"",""trial"",""time""
""fullscreenenter"",""1"",""2564""
","
","","","","","","null","<div style=""font-size:60px;"">+</div>","null","","fixation","","","","","","","","","","","","","",""
"learning-trial","89","660402","0.0-9.0-2.0-1.1","1990","1","2","""event"",""trial"",""time""
""fullscreenenter"",""1"",""2564""
""blur"",""2"",""62781""
""focus"",""3"",""70000""
""blur"",""6"",""138713""
""focus"",""7"",""147689""
","""event"",""trial"",""time""
""blur"",""2"",""62781""
""blur"",""6"",""138713""
","""event"",""trial"",""time""
""focus"",""3"",""70000""
""focus"",""7"",""147689""
","""event"",""trial"",""time""
""fullscreenenter"",""1"",""2564""
","
","","","","","","647","images/train2.png","","","learning","images/vehicles_choice1.png","images/vehicles_choice2.png","images/vehicles_choice3.png","[0,1,2]","0","0","2","images/vehicles_choice2.png","-1","vehicles","","train","1","0"
"html-keyboard-response","90","660907","0.0-9.0-2.0-0.2","1990","1","2","""event"",""trial"",""time""
""fullscreenenter"",""1"",""2564""
""blur"",""2"",""62781""
""focus"",""3"",""70000""
""blur"",""6"",""138713""
""focus"",""7"",""147689""
","""event"",""trial"",""time""
""blur"",""2"",""62781""
""blur"",""6"",""138713""
","""event"",""trial"",""time""
""focus"",""3"",""70000""
""focus"",""7"",""147689""
","""event"",""trial"",""time""
""fullscreenenter"",""1"",""2564""
","
","","","","","","null","<div style=""font-size:60px;"">+</div>","null","","fixation","","","","","","","","","","","","","",""
"learning-trial","91","664912","0.0-9.0-2.0-1.2","1990","1","2","""event"",""trial"",""time""
""fullscreenenter"",""1"",""2564""
""blur"",""2"",""62781""
""focus"",""3"",""70000""
""blur"",""6"",""138713""
""focus"",""7"",""147689""
","""event"",""trial"",""time""
""blur"",""2"",""62781""
""blur"",""6"",""138713""
","""event"",""trial"",""time""
""focus"",""3"",""70000""
""focus"",""7"",""147689""
","""event"",""trial"",""time""
""fullscreenenter"",""1"",""2564""
","
","","","","","","715.5999999642372","images/truck4.png","","","learning","images/vehicles_choice3.png","images/vehicles_choice1.png","images/vehicles_choice2.png","[2,0,1]","1","2","1","images/vehicles_choice3.png","-1","vehicles","","truck","1","0"
"html-keyboard-response","92","665414","0.0-9.0-2.0-0.3","1990","1","2","""event"",""trial"",""time""
""fullscreenenter"",""1"",""2564""
""blur"",""2"",""62781""
""focus"",""3"",""70000""
""blur"",""6"",""138713""
""focus"",""7"",""147689""
","""event"",""trial"",""time""
""blur"",""2"",""62781""
""blur"",""6"",""138713""
","""event"",""trial"",""time""
""focus"",""3"",""70000""
""focus"",""7"",""147689""
","""event"",""trial"",""time""
""fullscreenenter"",""1"",""2564""
","
","","","","","","null","<div style=""font-size:60px;"">+</div>","null","","fixation","","","","","","","","","","","","","",""
"learning-trial","93","669423","0.0-9.0-2.0-1.3","1990","1","2","""event"",""trial"",""time""
""fullscreenenter"",""1"",""2564""
""blur"",""2"",""62781""
""focus"",""3"",""70000""
""blur"",""6"",""138713""
""focus"",""7"",""147689""
","""event"",""trial"",""time""
""blur"",""2"",""62781""
""blur"",""6"",""138713""
","""event"",""trial"",""time""
""focus"",""3"",""70000""
""focus"",""7"",""147689""
","""event"",""trial"",""time""
""fullscreenenter"",""1"",""2564""
","
","","","","","","900.8000000119209","images/boat5.png","","","learning","images/vehicles_choice2.png","images/vehicles_choice1.png","images/vehicles_choice3.png","[1,0,2]","2","2","3","images/vehicles_choice3.png","1","vehicles","","boat","1","0"
"html-keyboard-response","94","669926","0.0-9.0-2.0-0.4","1990","1","2","""event"",""trial"",""time""
""fullscreenenter"",""1"",""2564""
""blur"",""2"",""62781""
""focus"",""3"",""70000""
""blur"",""6"",""138713""
""focus"",""7"",""147689""
","""event"",""trial"",""time""
""blur"",""2"",""62781""
""blur"",""6"",""138713""
","""event"",""trial"",""time""
""focus"",""3"",""70000""
""focus"",""7"",""147689""
","""event"",""trial"",""time""
""fullscreenenter"",""1"",""2564""
","
","","","","","","null","<div style=""font-size:60px;"">+</div>","null","","fixation","","","","","","","","","","","","","",""
"learning-trial","95","673931","0.0-9.0-2.0-1.4","1990","1","2","""event"",""trial"",""time""
""fullscreenenter"",""1"",""2564""
""blur"",""2"",""62781""
""focus"",""3"",""70000""
""blur"",""6"",""138713""
""focus"",""7"",""147689""
","""event"",""trial"",""time""
""blur"",""2"",""62781""
""blur"",""6"",""138713""
","""event"",""trial"",""time""
""focus"",""3"",""70000""
""focus"",""7"",""147689""
","""event"",""trial"",""time""
""fullscreenenter"",""1"",""2564""
","
","","","","","","1373.0999999642372","images/truck4.png","","","learning","images/vehicles_choice1.png","images/vehicles_choice3.png","images/vehicles_choice2.png","[0,2,1]","1","2","2","images/vehicles_choice3.png","-1","vehicles","","truck","1","0"
"html-keyboard-response","96","674432","0.0-9.0-2.0-0.5","1990","1","2","""event"",""trial"",""time""
""fullscreenenter"",""1"",""2564""
""blur"",""2"",""62781""
""focus"",""3"",""70000""
""blur"",""6"",""138713""
""focus"",""7"",""147689""
","""event"",""trial"",""time""
""blur"",""2"",""62781""
""blur"",""6"",""138713""
","""event"",""trial"",""time""
""focus"",""3"",""70000""
""focus"",""7"",""147689""
","""event"",""trial"",""time""
""fullscreenenter"",""1"",""2564""
","
","","","","","","null","<div style=""font-size:60px;"">+</div>","null","","fixation","","","","","","","","","","","","","",""
"learning-trial","97","678440","0.0-9.0-2.0-1.5","1990","1","2","""event"",""trial"",""time""
""fullscreenenter"",""1"",""2564""
""blur"",""2"",""62781""
""focus"",""3"",""70000""
""blur"",""6"",""138713""
""focus"",""7"",""147689""
","""event"",""trial"",""time""
""blur"",""2"",""62781""
""blur"",""6"",""138713""
","""event"",""trial"",""time""
""focus"",""3"",""70000""
""focus"",""7"",""147689""
","""event"",""trial"",""time""
""fullscreenenter"",""1"",""2564""
","
","","","","","","793.4000000357628","images/train2.png","","","learning","images/vehicles_choice2.png","images/vehicles_choice1.png","images/vehicles_choice3.png","[1,0,2]","0","1","1","images/vehicles_choice2.png","-1","vehicles","","train","1","0"
"html-keyboard-response","98","678944","0.0-9.0-2.0-0.6","1990","1","2","""event"",""trial"",""time""
""fullscreenenter"",""1"",""2564""
""blur"",""2"",""62781""
""focus"",""3"",""70000""
""blur"",""6"",""138713""
""focus"",""7"",""147689""
","""event"",""trial"",""time""
""blur"",""2"",""62781""
""blur"",""6"",""138713""
","""event"",""trial"",""time""
""focus"",""3"",""70000""
""focus"",""7"",""147689""
","""event"",""trial"",""time""
""fullscreenenter"",""1"",""2564""
","
","","","","","","null","<div style=""font-size:60px;"">+</div>","null","","fixation","","","","","","","","","","","","","",""
"learning-trial","99","682950","0.0-9.0-2.0-1.6","1990","1","2","""event"",""trial"",""time""
""fullscreenenter"",""1"",""2564""
""blur"",""2"",""62781""
""focus"",""3"",""70000""
""blur"",""6"",""138713""
""focus"",""7"",""147689""
","""event"",""trial"",""time""
""blur"",""2"",""62781""
""blur"",""6"",""138713""
","""event"",""trial"",""time""
""focus"",""3"",""70000""
""focus"",""7"",""147689""
","""event"",""trial"",""time""
""fullscreenenter"",""1"",""2564""
","
","","","","","","979.8000000119209","images/boat5.png","","","learning","images/vehicles_choice2.png","images/vehicles_choice3.png","images/vehicles_choice1.png","[1,2,0]","2","1","2","images/vehicles_choice3.png","1","vehicles","","boat","1","0"
"html-keyboard-response","100","683455","0.0-9.0-2.0-0.7","1990","1","2","""event"",""trial"",""time""
""fullscreenenter"",""1"",""2564""
""blur"",""2"",""62781""
""focus"",""3"",""70000""
""blur"",""6"",""138713""
""focus"",""7"",""147689""
","""event"",""trial"",""time""
""blur"",""2"",""62781""
""blur"",""6"",""138713""
","""event"",""trial"",""time""
""focus"",""3"",""70000""
""focus"",""7"",""147689""
","""event"",""trial"",""time""
""fullscreenenter"",""1"",""2564""
","
","","","","","","null","<div style=""font-size:60px;"">+</div>","null","","fixation","","","","","","","","","","","","","",""
"learning-trial","101","687464","0.0-9.0-2.0-1.7","1990","1","2","""event"",""trial"",""time""
""fullscreenenter"",""1"",""2564""
""blur"",""2"",""62781""
""focus"",""3"",""70000""
""blur"",""6"",""138713""
""focus"",""7"",""147689""
","""event"",""trial"",""time""
""blur"",""2"",""62781""
""blur"",""6"",""138713""
","""event"",""trial"",""time""
""focus"",""3"",""70000""
""focus"",""7"",""147689""
","""event"",""trial"",""time""
""fullscreenenter"",""1"",""2564""
","
","","","","","","1052.2000000476837","images/boat1.png","","","learning","images/vehicles_choice2.png","images/vehicles_choice3.png","images/vehicles_choice1.png","[1,2,0]","2","1","2","images/vehicles_choice3.png","1","vehicles","","boat","1","0"
"html-keyboard-response","102","687968","0.0-9.0-2.0-0.8","1990","1","2","""event"",""trial"",""time""
""fullscreenenter"",""1"",""2564""
""blur"",""2"",""62781""
""focus"",""3"",""70000""
""blur"",""6"",""138713""
""focus"",""7"",""147689""
","""event"",""trial"",""time""
""blur"",""2"",""62781""
""blur"",""6"",""138713""
","""event"",""trial"",""time""
""focus"",""3"",""70000""
""focus"",""7"",""147689""
","""event"",""trial"",""time""
""fullscreenenter"",""1"",""2564""
","
","","","","","","null","<div style=""font-size:60px;"">+</div>","null","","fixation","","","","","","","","","","","","","",""
"learning-trial","103","691974","0.0-9.0-2.0-1.8","1990","1","2","""event"",""trial"",""time""
""fullscreenenter"",""1"",""2564""
""blur"",""2"",""62781""
""focus"",""3"",""70000""
""blur"",""6"",""138713""
""focus"",""7"",""147689""
","""event"",""trial"",""time""
""blur"",""2"",""62781""
""blur"",""6"",""138713""
","""event"",""trial"",""time""
""focus"",""3"",""70000""
""focus"",""7"",""147689""
","""event"",""trial"",""time""
""fullscreenenter"",""1"",""2564""
","
","","","","","","1213.300000011921","images/train5.png","","","learning","images/vehicles_choice1.png","images/vehicles_choice3.png","images/vehicles_choice2.png","[0,2,1]","0","0","3","images/vehicles_choice2.png","-1","vehicles","","train","1","0"
"html-keyboard-response","104","692475","0.0-9.0-2.0-0.9","1990","1","2","""event"",""trial"",""time""
""fullscreenenter"",""1"",""2564""
""blur"",""2"",""62781""
""focus"",""3"",""70000""
""blur"",""6"",""138713""
""focus"",""7"",""147689""
","""event"",""trial"",""time""
""blur"",""2"",""62781""
""blur"",""6"",""138713""
","""event"",""trial"",""time""
""focus"",""3"",""70000""
""focus"",""7"",""147689""
","""event"",""trial"",""time""
""fullscreenenter"",""1"",""2564""
","
","","","","","","null","<div style=""font-size:60px;"">+</div>","null","","fixation","","","","","","","","","","","","","",""
"learning-trial","105","696480","0.0-9.0-2.0-1.9","1990","1","2","""event"",""trial"",""time""
""fullscreenenter"",""1"",""2564""
""blur"",""2"",""62781""
""focus"",""3"",""70000""
""blur"",""6"",""138713""
""focus"",""7"",""147689""
","""event"",""trial"",""time""
""blur"",""2"",""62781""
""blur"",""6"",""138713""
","""event"",""trial"",""time""
""focus"",""3"",""70000""
""focus"",""7"",""147689""
","""event"",""trial"",""time""
""fullscreenenter"",""1"",""2564""
","
","","","","","","1101.7000000476837","images/boat1.png","","","learning","images/vehicles_choice1.png","images/vehicles_choice2.png","images/vehicles_choice3.png","[0,1,2]","2","2","3","images/vehicles_choice3.png","-1","vehicles","","boat","1","0"
"html-keyboard-response","106","696983","0.0-9.0-2.0-0.10","1990","1","2","""event"",""trial"",""time""
""fullscreenenter"",""1"",""2564""
""blur"",""2"",""62781""
""focus"",""3"",""70000""
""blur"",""6"",""138713""
""focus"",""7"",""147689""
","""event"",""trial"",""time""
""blur"",""2"",""62781""
""blur"",""6"",""138713""
","""event"",""trial"",""time""
""focus"",""3"",""70000""
""focus"",""7"",""147689""
","""event"",""trial"",""time""
""fullscreenenter"",""1"",""2564""
","
","","","","","","null","<div style=""font-size:60px;"">+</div>","null","","fixation","","","","","","","","","","","","","",""
"learning-trial","107","700992","0.0-9.0-2.0-1.10","1990","1","2","""event"",""trial"",""time""
""fullscreenenter"",""1"",""2564""
""blur"",""2"",""62781""
""focus"",""3"",""70000""
""blur"",""6"",""138713""
""focus"",""7"",""147689""
","""event"",""trial"",""time""
""blur"",""2"",""62781""
""blur"",""6"",""138713""
","""event"",""trial"",""time""
""focus"",""3"",""70000""
""focus"",""7"",""147689""
","""event"",""trial"",""time""
""fullscreenenter"",""1"",""2564""
","
","","","","","","1115.800000011921","images/boat5.png","","","learning","images/vehicles_choice1.png","images/vehicles_choice2.png","images/vehicles_choice3.png","[0,1,2]","2","2","3","images/vehicles_choice3.png","1","vehicles","","boat","1","0"
"html-keyboard-response","108","701496","0.0-9.0-2.0-0.11","1990","1","2","""event"",""trial"",""time""
""fullscreenenter"",""1"",""2564""
""blur"",""2"",""62781""
""focus"",""3"",""70000""
""blur"",""6"",""138713""
""focus"",""7"",""147689""
","""event"",""trial"",""time""
""blur"",""2"",""62781""
""blur"",""6"",""138713""
","""event"",""trial"",""time""
""focus"",""3"",""70000""
""focus"",""7"",""147689""
","""event"",""trial"",""time""
""fullscreenenter"",""1"",""2564""
","
","","","","","","null","<div style=""font-size:60px;"">+</div>","null","","fixation","","","","","","","","","","","","","",""
"learning-trial","109","705504","0.0-9.0-2.0-1.11","1990","1","2","""event"",""trial"",""time""
""fullscreenenter"",""1"",""2564""
""blur"",""2"",""62781""
""focus"",""3"",""70000""
""blur"",""6"",""138713""
""focus"",""7"",""147689""
","""event"",""trial"",""time""
""blur"",""2"",""62781""
""blur"",""6"",""138713""
","""event"",""trial"",""time""
""focus"",""3"",""70000""
""focus"",""7"",""147689""
","""event"",""trial"",""time""
""fullscreenenter"",""1"",""2564""
","
","","","","","","801.5999999642372","images/boat1.png","","","learning","images/vehicles_choice3.png","images/vehicles_choice2.png","images/vehicles_choice1.png","[2,1,0]","2","0","1","images/vehicles_choice3.png","1","vehicles","","boat","1","0"
"html-keyboard-response","110","706010","0.0-9.0-2.0-0.12","1990","1","2","""event"",""trial"",""time""
""fullscreenenter"",""1"",""2564""
""blur"",""2"",""62781""
""focus"",""3"",""70000""
""blur"",""6"",""138713""
""focus"",""7"",""147689""
","""event"",""trial"",""time""
""blur"",""2"",""62781""
""blur"",""6"",""138713""
","""event"",""trial"",""time""
""focus"",""3"",""70000""
""focus"",""7"",""147689""
","""event"",""trial"",""time""
""fullscreenenter"",""1"",""2564""
","
","","","","","","null","<div style=""font-size:60px;"">+</div>","null","","fixation","","","","","","","","","","","","","",""
"learning-trial","111","710016","0.0-9.0-2.0-1.12","1990","1","2","""event"",""trial"",""time""
""fullscreenenter"",""1"",""2564""
""blur"",""2"",""62781""
""focus"",""3"",""70000""
""blur"",""6"",""138713""
""focus"",""7"",""147689""
","""event"",""trial"",""time""
""blur"",""2"",""62781""
""blur"",""6"",""138713""
","""event"",""trial"",""time""
""focus"",""3"",""70000""
""focus"",""7"",""147689""
","""event"",""trial"",""time""
""fullscreenenter"",""1"",""2564""
","
","","","","","","1205.8999999761581","images/train5.png","","","learning","images/vehicles_choice2.png","images/vehicles_choice3.png","images/vehicles_choice1.png","[1,2,0]","0","2","2","images/vehicles_choice3.png","-1","vehicles","","train","1","0"
"html-keyboard-response","112","710522","0.0-9.0-2.0-0.13","1990","1","2","""event"",""trial"",""time""
""fullscreenenter"",""1"",""2564""
""blur"",""2"",""62781""
""focus"",""3"",""70000""
""blur"",""6"",""138713""
""focus"",""7"",""147689""
","""event"",""trial"",""time""
""blur"",""2"",""62781""
""blur"",""6"",""138713""
","""event"",""trial"",""time""
""focus"",""3"",""70000""
""focus"",""7"",""147689""
","""event"",""trial"",""time""
""fullscreenenter"",""1"",""2564""
","
","","","","","","null","<div style=""font-size:60px;"">+</div>","null","","fixation","","","","","","","","","","","","","",""
"learning-trial","113","714528","0.0-9.0-2.0-1.13","1990","1","2","""event"",""trial"",""time""
""fullscreenenter"",""1"",""2564""
""blur"",""2"",""62781""
""focus"",""3"",""70000""
""blur"",""6"",""138713""
""focus"",""7"",""147689""
","""event"",""trial"",""time""
""blur"",""2"",""62781""
""blur"",""6"",""138713""
","""event"",""trial"",""time""
""focus"",""3"",""70000""
""focus"",""7"",""147689""
","""event"",""trial"",""time""
""fullscreenenter"",""1"",""2564""
","
","","","","","","822.1000000238419","images/boat5.png","","","learning","images/vehicles_choice1.png","images/vehicles_choice3.png","images/vehicles_choice2.png","[0,2,1]","2","1","2","images/vehicles_choice3.png","1","vehicles","","boat","1","0"
"html-keyboard-response","114","715034","0.0-9.0-2.0-0.14","1990","1","2","""event"",""trial"",""time""
""fullscreenenter"",""1"",""2564""
""blur"",""2"",""62781""
""focus"",""3"",""70000""
""blur"",""6"",""138713""
""focus"",""7"",""147689""
","""event"",""trial"",""time""
""blur"",""2"",""62781""
""blur"",""6"",""138713""
","""event"",""trial"",""time""
""focus"",""3"",""70000""
""focus"",""7"",""147689""
","""event"",""trial"",""time""
""fullscreenenter"",""1"",""2564""
","
","","","","","","null","<div style=""font-size:60px;"">+</div>","null","","fixation","","","","","","","","","","","","","",""
"learning-trial","115","719042","0.0-9.0-2.0-1.14","1990","1","2","""event"",""trial"",""time""
""fullscreenenter"",""1"",""2564""
""blur"",""2"",""62781""
""focus"",""3"",""70000""
""blur"",""6"",""138713""
""focus"",""7"",""147689""
","""event"",""trial"",""time""
""blur"",""2"",""62781""
""blur"",""6"",""138713""
","""event"",""trial"",""time""
""focus"",""3"",""70000""
""focus"",""7"",""147689""
","""event"",""trial"",""time""
""fullscreenenter"",""1"",""2564""
","
","","","","","","741.3000000119209","images/boat1.png","","","learning","images/vehicles_choice2.png","images/vehicles_choice3.png","images/vehicles_choice1.png","[1,2,0]","2","1","2","images/vehicles_choice3.png","1","vehicles","","boat","1","0"
"html-keyboard-response","116","719546","0.0-9.0-2.0-0.15","1990","1","2","""event"",""trial"",""time""
""fullscreenenter"",""1"",""2564""
""blur"",""2"",""62781""
""focus"",""3"",""70000""
""blur"",""6"",""138713""
""focus"",""7"",""147689""
","""event"",""trial"",""time""
""blur"",""2"",""62781""
""blur"",""6"",""138713""
","""event"",""trial"",""time""
""focus"",""3"",""70000""
""focus"",""7"",""147689""
","""event"",""trial"",""time""
""fullscreenenter"",""1"",""2564""
","
","","","","","","null","<div style=""font-size:60px;"">+</div>","null","","fixation","","","","","","","","","","","","","",""
"learning-trial","117","723551","0.0-9.0-2.0-1.15","1990","1","2","""event"",""trial"",""time""
""fullscreenenter"",""1"",""2564""
""blur"",""2"",""62781""
""focus"",""3"",""70000""
""blur"",""6"",""138713""
""focus"",""7"",""147689""
","""event"",""trial"",""time""
""blur"",""2"",""62781""
""blur"",""6"",""138713""
","""event"",""trial"",""time""
""focus"",""3"",""70000""
""focus"",""7"",""147689""
","""event"",""trial"",""time""
""fullscreenenter"",""1"",""2564""
","
","","","","","","1759.7999999523163","images/train5.png","","","learning","images/vehicles_choice3.png","images/vehicles_choice2.png","images/vehicles_choice1.png","[2,1,0]","0","2","1","images/vehicles_choice3.png","-1","vehicles","","train","1","0"
"html-keyboard-response","118","724058","0.0-9.0-2.0-0.16","1990","1","2","""event"",""trial"",""time""
""fullscreenenter"",""1"",""2564""
""blur"",""2"",""62781""
""focus"",""3"",""70000""
""blur"",""6"",""138713""
""focus"",""7"",""147689""
","""event"",""trial"",""time""
""blur"",""2"",""62781""
""blur"",""6"",""138713""
","""event"",""trial"",""time""
""focus"",""3"",""70000""
""focus"",""7"",""147689""
","""event"",""trial"",""time""
""fullscreenenter"",""1"",""2564""
","
","","","","","","null","<div style=""font-size:60px;"">+</div>","null","","fixation","","","","","","","","","","","","","",""
"learning-trial","119","728066","0.0-9.0-2.0-1.16","1990","1","2","""event"",""trial"",""time""
""fullscreenenter"",""1"",""2564""
""blur"",""2"",""62781""
""focus"",""3"",""70000""
""blur"",""6"",""138713""
""focus"",""7"",""147689""
","""event"",""trial"",""time""
""blur"",""2"",""62781""
""blur"",""6"",""138713""
","""event"",""trial"",""time""
""focus"",""3"",""70000""
""focus"",""7"",""147689""
","""event"",""trial"",""time""
""fullscreenenter"",""1"",""2564""
","
","","","","","","1178.6000000238419","images/boat2.png","","","learning","images/vehicles_choice2.png","images/vehicles_choice1.png","images/vehicles_choice3.png","[1,0,2]","2","2","3","images/vehicles_choice3.png","1","vehicles","","boat","1","0"
"html-keyboard-response","120","728569","0.0-9.0-2.0-0.17","1990","1","2","""event"",""trial"",""time""
""fullscreenenter"",""1"",""2564""
""blur"",""2"",""62781""
""focus"",""3"",""70000""
""blur"",""6"",""138713""
""focus"",""7"",""147689""
","""event"",""trial"",""time""
""blur"",""2"",""62781""
""blur"",""6"",""138713""
","""event"",""trial"",""time""
""focus"",""3"",""70000""
""focus"",""7"",""147689""
","""event"",""trial"",""time""
""fullscreenenter"",""1"",""2564""
","
","","","","","","null","<div style=""font-size:60px;"">+</div>","null","","fixation","","","","","","","","","","","","","",""
"learning-trial","121","732575","0.0-9.0-2.0-1.17","1990","1","2","""event"",""trial"",""time""
""fullscreenenter"",""1"",""2564""
""blur"",""2"",""62781""
""focus"",""3"",""70000""
""blur"",""6"",""138713""
""focus"",""7"",""147689""
","""event"",""trial"",""time""
""blur"",""2"",""62781""
""blur"",""6"",""138713""
","""event"",""trial"",""time""
""focus"",""3"",""70000""
""focus"",""7"",""147689""
","""event"",""trial"",""time""
""fullscreenenter"",""1"",""2564""
","
","","","","","","933","images/boat5.png","","","learning","images/vehicles_choice2.png","images/vehicles_choice3.png","images/vehicles_choice1.png","[1,2,0]","2","1","2","images/vehicles_choice3.png","1","vehicles","","boat","1","0"
"html-keyboard-response","122","733076","0.0-9.0-2.0-0.18","1990","1","2","""event"",""trial"",""time""
""fullscreenenter"",""1"",""2564""
""blur"",""2"",""62781""
""focus"",""3"",""70000""
""blur"",""6"",""138713""
""focus"",""7"",""147689""
","""event"",""trial"",""time""
""blur"",""2"",""62781""
""blur"",""6"",""138713""
","""event"",""trial"",""time""
""focus"",""3"",""70000""
""focus"",""7"",""147689""
","""event"",""trial"",""time""
""fullscreenenter"",""1"",""2564""
","
","","","","","","null","<div style=""font-size:60px;"">+</div>","null","","fixation","","","","","","","","","","","","","",""
"learning-trial","123","737081","0.0-9.0-2.0-1.18","1990","1","2","""event"",""trial"",""time""
""fullscreenenter"",""1"",""2564""
""blur"",""2"",""62781""
""focus"",""3"",""70000""
""blur"",""6"",""138713""
""focus"",""7"",""147689""
","""event"",""trial"",""time""
""blur"",""2"",""62781""
""blur"",""6"",""138713""
","""event"",""trial"",""time""
""focus"",""3"",""70000""
""focus"",""7"",""147689""
","""event"",""trial"",""time""
""fullscreenenter"",""1"",""2564""
","
","","","","","","1312.800000011921","images/truck4.png","","","learning","images/vehicles_choice2.png","images/vehicles_choice1.png","images/vehicles_choice3.png","[1,0,2]","1","0","3","images/vehicles_choice3.png","-1","vehicles","","truck","1","0"
"html-keyboard-response","124","737583","0.0-9.0-2.0-0.19","1990","1","2","""event"",""trial"",""time""
""fullscreenenter"",""1"",""2564""
""blur"",""2"",""62781""
""focus"",""3"",""70000""
""blur"",""6"",""138713""
""focus"",""7"",""147689""
","""event"",""trial"",""time""
""blur"",""2"",""62781""
""blur"",""6"",""138713""
","""event"",""trial"",""time""
""focus"",""3"",""70000""
""focus"",""7"",""147689""
","""event"",""trial"",""time""
""fullscreenenter"",""1"",""2564""
","
","","","","","","null","<div style=""font-size:60px;"">+</div>","null","","fixation","","","","","","","","","","","","","",""
"learning-trial","125","741588","0.0-9.0-2.0-1.19","1990","1","2","""event"",""trial"",""time""
""fullscreenenter"",""1"",""2564""
""blur"",""2"",""62781""
""focus"",""3"",""70000""
""blur"",""6"",""138713""
""focus"",""7"",""147689""
","""event"",""trial"",""time""
""blur"",""2"",""62781""
""blur"",""6"",""138713""
","""event"",""trial"",""time""
""focus"",""3"",""70000""
""focus"",""7"",""147689""
","""event"",""trial"",""time""
""fullscreenenter"",""1"",""2564""
","
","","","","","","604.8000000119209","images/boat1.png","","","learning","images/vehicles_choice1.png","images/vehicles_choice3.png","images/vehicles_choice2.png","[0,2,1]","2","1","2","images/vehicles_choice3.png","1","vehicles","","boat","1","0"
"html-keyboard-response","126","742094","0.0-9.0-2.0-0.20","1990","1","2","""event"",""trial"",""time""
""fullscreenenter"",""1"",""2564""
""blur"",""2"",""62781""
""focus"",""3"",""70000""
""blur"",""6"",""138713""
""focus"",""7"",""147689""
","""event"",""trial"",""time""
""blur"",""2"",""62781""
""blur"",""6"",""138713""
","""event"",""trial"",""time""
""focus"",""3"",""70000""
""focus"",""7"",""147689""
","""event"",""trial"",""time""
""fullscreenenter"",""1"",""2564""
","
","","","","","","null","<div style=""font-size:60px;"">+</div>","null","","fixation","","","","","","","","","","","","","",""
"learning-trial","127","746101","0.0-9.0-2.0-1.20","1990","1","2","""event"",""trial"",""time""
""fullscreenenter"",""1"",""2564""
""blur"",""2"",""62781""
""focus"",""3"",""70000""
""blur"",""6"",""138713""
""focus"",""7"",""147689""
","""event"",""trial"",""time""
""blur"",""2"",""62781""
""blur"",""6"",""138713""
","""event"",""trial"",""time""
""focus"",""3"",""70000""
""focus"",""7"",""147689""
","""event"",""trial"",""time""
""fullscreenenter"",""1"",""2564""
","
","","","","","","783","images/train3.png","","","learning","images/vehicles_choice2.png","images/vehicles_choice3.png","images/vehicles_choice1.png","[1,2,0]","0","2","2","images/vehicles_choice3.png","-1","vehicles","","train","1","0"
"html-keyboard-response","128","746607","0.0-9.0-2.0-0.21","1990","1","2","""event"",""trial"",""time""
""fullscreenenter"",""1"",""2564""
""blur"",""2"",""62781""
""focus"",""3"",""70000""
""blur"",""6"",""138713""
""focus"",""7"",""147689""
","""event"",""trial"",""time""
""blur"",""2"",""62781""
""blur"",""6"",""138713""
","""event"",""trial"",""time""
""focus"",""3"",""70000""
""focus"",""7"",""147689""
","""event"",""trial"",""time""
""fullscreenenter"",""1"",""2564""
","
","","","","","","null","<div style=""font-size:60px;"">+</div>","null","","fixation","","","","","","","","","","","","","",""
"learning-trial","129","750612","0.0-9.0-2.0-1.21","1990","1","2","""event"",""trial"",""time""
""fullscreenenter"",""1"",""2564""
""blur"",""2"",""62781""
""focus"",""3"",""70000""
""blur"",""6"",""138713""
""focus"",""7"",""147689""
","""event"",""trial"",""time""
""blur"",""2"",""62781""
""blur"",""6"",""138713""
","""event"",""trial"",""time""
""focus"",""3"",""70000""
""focus"",""7"",""147689""
","""event"",""trial"",""time""
""fullscreenenter"",""1"",""2564""
","
","","","","","","793.3000000119209","images/truck5.png","","","learning","images/vehicles_choice1.png","images/vehicles_choice2.png","images/vehicles_choice3.png","[0,1,2]","1","1","3","images/vehicles_choice3.png","-1","vehicles","","truck","1","0"
"html-keyboard-response","130","751118","0.0-9.0-2.0-0.22","1990","1","2","""event"",""trial"",""time""
""fullscreenenter"",""1"",""2564""
""blur"",""2"",""62781""
""focus"",""3"",""70000""
""blur"",""6"",""138713""
""focus"",""7"",""147689""
","""event"",""trial"",""time""
""blur"",""2"",""62781""
""blur"",""6"",""138713""
","""event"",""trial"",""time""
""focus"",""3"",""70000""
""focus"",""7"",""147689""
","""event"",""trial"",""time""
""fullscreenenter"",""1"",""2564""
","
","","","","","","null","<div style=""font-size:60px;"">+</div>","null","","fixation","","","","","","","","","","","","","",""
"learning-trial","131","755126","0.0-9.0-2.0-1.22","1990","1","2","""event"",""trial"",""time""
""fullscreenenter"",""1"",""2564""
""blur"",""2"",""62781""
""focus"",""3"",""70000""
""blur"",""6"",""138713""
""focus"",""7"",""147689""
","""event"",""trial"",""time""
""blur"",""2"",""62781""
""blur"",""6"",""138713""
","""event"",""trial"",""time""
""focus"",""3"",""70000""
""focus"",""7"",""147689""
","""event"",""trial"",""time""
""fullscreenenter"",""1"",""2564""
","
","","","","","","972.8999999761581","images/boat5.png","","","learning","images/vehicles_choice1.png","images/vehicles_choice2.png","images/vehicles_choice3.png","[0,1,2]","2","2","3","images/vehicles_choice3.png","1","vehicles","","boat","1","0"
"html-keyboard-response","132","755632","0.0-9.0-2.0-0.23","1990","1","2","""event"",""trial"",""time""
""fullscreenenter"",""1"",""2564""
""blur"",""2"",""62781""
""focus"",""3"",""70000""
""blur"",""6"",""138713""
""focus"",""7"",""147689""
","""event"",""trial"",""time""
""blur"",""2"",""62781""
""blur"",""6"",""138713""
","""event"",""trial"",""time""
""focus"",""3"",""70000""
""focus"",""7"",""147689""
","""event"",""trial"",""time""
""fullscreenenter"",""1"",""2564""
","
","","","","","","null","<div style=""font-size:60px;"">+</div>","null","","fixation","","","","","","","","","","","","","",""
"learning-trial","133","759638","0.0-9.0-2.0-1.23","1990","1","2","""event"",""trial"",""time""
""fullscreenenter"",""1"",""2564""
""blur"",""2"",""62781""
""focus"",""3"",""70000""
""blur"",""6"",""138713""
""focus"",""7"",""147689""
","""event"",""trial"",""time""
""blur"",""2"",""62781""
""blur"",""6"",""138713""
","""event"",""trial"",""time""
""focus"",""3"",""70000""
""focus"",""7"",""147689""
","""event"",""trial"",""time""
""fullscreenenter"",""1"",""2564""
","
","","","","","","1376","images/train3.png","","","learning","images/vehicles_choice1.png","images/vehicles_choice2.png","images/vehicles_choice3.png","[0,1,2]","0","0","1","images/vehicles_choice1.png","-1","vehicles","","train","1","0"
"html-keyboard-response","134","760142","0.0-9.0-2.0-0.24","1990","1","2","""event"",""trial"",""time""
""fullscreenenter"",""1"",""2564""
""blur"",""2"",""62781""
""focus"",""3"",""70000""
""blur"",""6"",""138713""
""focus"",""7"",""147689""
","""event"",""trial"",""time""
""blur"",""2"",""62781""
""blur"",""6"",""138713""
","""event"",""trial"",""time""
""focus"",""3"",""70000""
""focus"",""7"",""147689""
","""event"",""trial"",""time""
""fullscreenenter"",""1"",""2564""
","
","","","","","","null","<div style=""font-size:60px;"">+</div>","null","","fixation","","","","","","","","","","","","","",""
"learning-trial","135","764151","0.0-9.0-2.0-1.24","1990","1","2","""event"",""trial"",""time""
""fullscreenenter"",""1"",""2564""
""blur"",""2"",""62781""
""focus"",""3"",""70000""
""blur"",""6"",""138713""
""focus"",""7"",""147689""
","""event"",""trial"",""time""
""blur"",""2"",""62781""
""blur"",""6"",""138713""
","""event"",""trial"",""time""
""focus"",""3"",""70000""
""focus"",""7"",""147689""
","""event"",""trial"",""time""
""fullscreenenter"",""1"",""2564""
","
","","","","","","674.3999999761581","images/train5.png","","","learning","images/vehicles_choice2.png","images/vehicles_choice1.png","images/vehicles_choice3.png","[1,0,2]","0","1","2","images/vehicles_choice1.png","1","vehicles","","train","1","0"
"html-keyboard-response","136","764654","0.0-9.0-2.0-0.25","1990","1","2","""event"",""trial"",""time""
""fullscreenenter"",""1"",""2564""
""blur"",""2"",""62781""
""focus"",""3"",""70000""
""blur"",""6"",""138713""
""focus"",""7"",""147689""
","""event"",""trial"",""time""
""blur"",""2"",""62781""
""blur"",""6"",""138713""
","""event"",""trial"",""time""
""focus"",""3"",""70000""
""focus"",""7"",""147689""
","""event"",""trial"",""time""
""fullscreenenter"",""1"",""2564""
","
","","","","","","null","<div style=""font-size:60px;"">+</div>","null","","fixation","","","","","","","","","","","","","",""
"learning-trial","137","768659","0.0-9.0-2.0-1.25","1990","1","2","""event"",""trial"",""time""
""fullscreenenter"",""1"",""2564""
""blur"",""2"",""62781""
""focus"",""3"",""70000""
""blur"",""6"",""138713""
""focus"",""7"",""147689""
","""event"",""trial"",""time""
""blur"",""2"",""62781""
""blur"",""6"",""138713""
","""event"",""trial"",""time""
""focus"",""3"",""70000""
""focus"",""7"",""147689""
","""event"",""trial"",""time""
""fullscreenenter"",""1"",""2564""
","
","","","","","","1258.5","images/train2.png","","","learning","images/vehicles_choice1.png","images/vehicles_choice2.png","images/vehicles_choice3.png","[0,1,2]","0","0","2","images/vehicles_choice2.png","1","vehicles","","train","1","0"
"html-keyboard-response","138","769162","0.0-9.0-2.0-0.26","1990","1","2","""event"",""trial"",""time""
""fullscreenenter"",""1"",""2564""
""blur"",""2"",""62781""
""focus"",""3"",""70000""
""blur"",""6"",""138713""
""focus"",""7"",""147689""
","""event"",""trial"",""time""
""blur"",""2"",""62781""
""blur"",""6"",""138713""
","""event"",""trial"",""time""
""focus"",""3"",""70000""
""focus"",""7"",""147689""
","""event"",""trial"",""time""
""fullscreenenter"",""1"",""2564""
","
","","","","","","null","<div style=""font-size:60px;"">+</div>","null","","fixation","","","","","","","","","","","","","",""
"learning-trial","139","773171","0.0-9.0-2.0-1.26","1990","1","2","""event"",""trial"",""time""
""fullscreenenter"",""1"",""2564""
""blur"",""2"",""62781""
""focus"",""3"",""70000""
""blur"",""6"",""138713""
""focus"",""7"",""147689""
","""event"",""trial"",""time""
""blur"",""2"",""62781""
""blur"",""6"",""138713""
","""event"",""trial"",""time""
""focus"",""3"",""70000""
""focus"",""7"",""147689""
","""event"",""trial"",""time""
""fullscreenenter"",""1"",""2564""
","
","","","","","","1119.5","images/truck4.png","","","learning","images/vehicles_choice3.png","images/vehicles_choice1.png","images/vehicles_choice2.png","[2,0,1]","1","2","3","images/vehicles_choice2.png","1","vehicles","","truck","1","0"
"html-keyboard-response","140","773672","0.0-9.0-2.0-0.27","1990","1","2","""event"",""trial"",""time""
""fullscreenenter"",""1"",""2564""
""blur"",""2"",""62781""
""focus"",""3"",""70000""
""blur"",""6"",""138713""
""focus"",""7"",""147689""
","""event"",""trial"",""time""
""blur"",""2"",""62781""
""blur"",""6"",""138713""
","""event"",""trial"",""time""
""focus"",""3"",""70000""
""focus"",""7"",""147689""
","""event"",""trial"",""time""
""fullscreenenter"",""1"",""2564""
","
","","","","","","null","<div style=""font-size:60px;"">+</div>","null","","fixation","","","","","","","","","","","","","",""
"learning-trial","141","777677","0.0-9.0-2.0-1.27","1990","1","2","""event"",""trial"",""time""
""fullscreenenter"",""1"",""2564""
""blur"",""2"",""62781""
""focus"",""3"",""70000""
""blur"",""6"",""138713""
""focus"",""7"",""147689""
","""event"",""trial"",""time""
""blur"",""2"",""62781""
""blur"",""6"",""138713""
","""event"",""trial"",""time""
""focus"",""3"",""70000""
""focus"",""7"",""147689""
","""event"",""trial"",""time""
""fullscreenenter"",""1"",""2564""
","
","","","","","","958","images/boat5.png","","","learning","images/vehicles_choice3.png","images/vehicles_choice2.png","images/vehicles_choice1.png","[2,1,0]","2","0","1","images/vehicles_choice3.png","1","vehicles","","boat","1","0"
"html-keyboard-response","142","778181","0.0-9.0-2.0-0.28","1990","1","2","""event"",""trial"",""time""
""fullscreenenter"",""1"",""2564""
""blur"",""2"",""62781""
""focus"",""3"",""70000""
""blur"",""6"",""138713""
""focus"",""7"",""147689""
","""event"",""trial"",""time""
""blur"",""2"",""62781""
""blur"",""6"",""138713""
","""event"",""trial"",""time""
""focus"",""3"",""70000""
""focus"",""7"",""147689""
","""event"",""trial"",""time""
""fullscreenenter"",""1"",""2564""
","
","","","","","","null","<div style=""font-size:60px;"">+</div>","null","","fixation","","","","","","","","","","","","","",""
"learning-trial","143","782189","0.0-9.0-2.0-1.28","1990","1","2","""event"",""trial"",""time""
""fullscreenenter"",""1"",""2564""
""blur"",""2"",""62781""
""focus"",""3"",""70000""
""blur"",""6"",""138713""
""focus"",""7"",""147689""
","""event"",""trial"",""time""
""blur"",""2"",""62781""
