"trial_type","trial_index","time_elapsed","internal_node_id","subject_id","condition","task_version","interactions","blur_events","focus_events","fullscreenenter_events","fullscreenexit_events","success","timeout","failed_images","failed_audio","failed_video","rt","stimulus","response","button_pressed","task_part","left_choice","middle_choice","right_choice","choice_positions","correct_response","correct_position","key_press","option_selected","points","task_block","correct","stim_cat","block_condition","block_number"
"pavlovia","0","9","0.0-0.0","1580","2","2","""event"",""trial"",""time""
""fullscreenenter"",""1"",""5289""
","
","
","""event"",""trial"",""time""
""fullscreenenter"",""1"",""5289""
","
","","","","","","","","","","","","","","","","","","","","","","","",""
"fullscreen","1","6269","0.0-1.0","1580","2","2","""event"",""trial"",""time""
""fullscreenenter"",""1"",""5289""
","
","
","""event"",""trial"",""time""
""fullscreenenter"",""1"",""5289""
","
","true","","","","","","","","","","","","","","","","","","","","","","",""
"preload","2","44147","0.0-2.0","1580","2","2","""event"",""trial"",""time""
""fullscreenenter"",""1"",""5289""
","
","
","""event"",""trial"",""time""
""fullscreenenter"",""1"",""5289""
","
","true","false","[]","[]","[]","","","","","","","","","","","","","","","","","","",""
"audio-keyboard-response","3","51988","0.0-3.0","1580","2","2","""event"",""trial"",""time""
""fullscreenenter"",""1"",""5289""
","
","
","""event"",""trial"",""time""
""fullscreenenter"",""1"",""5289""
","
","","","","","","7813.514739229028","audio/beep_loop.wav"," ","","","","","","","","","","","","","","","",""
"audio-button-response","4","54434","0.0-4.0","1580","2","2","""event"",""trial"",""time""
""fullscreenenter"",""1"",""5289""
","
","
","""event"",""trial"",""time""
""fullscreenenter"",""1"",""5289""
","
","","","","","","2447","audio/shark.wav","4","","","","","","","","","","","","","","","",""
"audio-button-response","5","57108","0.0-5.0","1580","2","2","""event"",""trial"",""time""
""fullscreenenter"",""1"",""5289""
","
","
","""event"",""trial"",""time""
""fullscreenenter"",""1"",""5289""
","
","","","","","","1678","audio/turtle.wav","1","","","","","","","","","","","","","","","",""
"preload","6","105455","0.0-6.0","1580","2","2","""event"",""trial"",""time""
""fullscreenenter"",""1"",""5289""
","
","
","""event"",""trial"",""time""
""fullscreenenter"",""1"",""5289""
","
","true","false","[]","[]","[]","","","","","","","","","","","","","","","","","","",""
"html-keyboard-response","7","107459","0.0-7.0","1580","2","2","""event"",""trial"",""time""
""fullscreenenter"",""1"",""5289""
","
","
","""event"",""trial"",""time""
""fullscreenenter"",""1"",""5289""
","
","","","","","","2002","Welcome to the experiment. Press any key to begin and to advance the instructions."," ","","","","","","","","","","","","","","","",""
"learning-instructions","8","117113","0.0-8.0-0.0-0.0","1580","2","2","""event"",""trial"",""time""
""fullscreenenter"",""1"",""5289""
","
","
","""event"",""trial"",""time""
""fullscreenenter"",""1"",""5289""
","
","","","","","","1877","<p> Welcome! Today you are going to play 6 different rounds of a decision-making game. </p><p> Use the mouse to click next to continue. </p>","","0","instructions","","","","","","","","","","","","","",""
"learning-instructions","9","120572","0.0-8.0-0.0-0.1","1580","2","2","""event"",""trial"",""time""
""fullscreenenter"",""1"",""5289""
","
","
","""event"",""trial"",""time""
""fullscreenenter"",""1"",""5289""
","
","","","","","","460","<p> You will start with a practice round to learn the rules. </p>","","0","instructions","","","","","","","","","","","","","",""
"learning-instructions","10","129325","0.0-8.0-0.0-0.2","1580","2","2","""event"",""trial"",""time""
""fullscreenenter"",""1"",""5289""
","
","
","""event"",""trial"",""time""
""fullscreenenter"",""1"",""5289""
","
","","","","","","1007","<p> Your goal in this round is to deliver sports equipment to three different parks. </p><p> You will need to deliver many types of equipment. </p></div>","","0","instructions","","","","","","","","","","","","","",""
"learning-instructions","11","139736","0.0-8.0-0.0-0.3","1580","2","2","""event"",""trial"",""time""
""fullscreenenter"",""1"",""5289""
","
","
","""event"",""trial"",""time""
""fullscreenenter"",""1"",""5289""
","
","","","","","","1929","<p> On each turn, you will see one piece of sports equipment and three different parks.  </p><p> You need to select which park to deliver the equipment to.  </p>","","0","instructions","","","","","","","","","","","","","",""
"learning-instructions","12","154871","0.0-8.0-0.0-0.4","1580","2","2","""event"",""trial"",""time""
""fullscreenenter"",""1"",""5289""
","
","
","""event"",""trial"",""time""
""fullscreenenter"",""1"",""5289""
","
","","","","","","1843","<p> You can select the park on the left by pressing the '1' key on your keyboard. <br>You can select the park in the middle by pressing the '2' key on your keyboard. <br>You can select the park on the right by pressing the '3' key on your keyboard.  </p><br><div class=""choice-instructions-grid""> <div class=""choice-option""><img src=""images/park1.png"" class=""choice-option-img"" stage=""instructions"" position=""0"" ><div class=""choice-option-text""> Press ""1."" </div></div><div class=""choice-option""><img src=""images/park2.png"" class=""choice-option-img"" stage=""instructions"" position=""1"" ><div class=""choice-option-text""> Press ""2."" </div></div><div class=""choice-option""><img src=""images/park3.png"" class=""choice-option-img"" stage=""instructions"" position=""2"" ><div class=""choice-option-text""> Press ""3."" </div></div></div>","","0","instructions","","","","","","","","","","","","","",""
"learning-instructions","13","161261","0.0-8.0-0.0-0.5","1580","2","2","""event"",""trial"",""time""
""fullscreenenter"",""1"",""5289""
","
","
","""event"",""trial"",""time""
""fullscreenenter"",""1"",""5289""
","
","","","","","","1006","<p> If the kids in the park you chose like the equipment, they will be very happy! </p><div style='float: center;'><img src='images/check.png' width = '200' height = '200'></img>","","0","instructions","","","","","","","","","","","","","",""
"learning-instructions","14","167495","0.0-8.0-0.0-0.6","1580","2","2","""event"",""trial"",""time""
""fullscreenenter"",""1"",""5289""
","
","
","""event"",""trial"",""time""
""fullscreenenter"",""1"",""5289""
","
","","","","","","644","<p> But, if the kids in the park you chose do not like the equipment, they will be sad. </p><div style='float: center;'><img src='images/x.png' width = '200' height = '200'></img>","","0","instructions","","","","","","","","","","","","","",""
"learning-instructions","15","177013","0.0-8.0-0.0-0.7","1580","2","2","""event"",""trial"",""time""
""fullscreenenter"",""1"",""5289""
","
","
","""event"",""trial"",""time""
""fullscreenenter"",""1"",""5289""
","
","","","","","","3098","<p> Importantly, the kids in each park like some pieces of sports equipment more than others. </p>","","0","instructions","","","","","","","","","","","","","",""
"learning-instructions","16","185041","0.0-8.0-0.0-0.8","1580","2","2","""event"",""trial"",""time""
""fullscreenenter"",""1"",""5289""
","
","
","""event"",""trial"",""time""
""fullscreenenter"",""1"",""5289""
","
","","","","","","1985","<p> If you choose the best park for each piece of equipment, the kids there will usually be happy. </p>","","0","instructions","","","","","","","","","","","","","",""
"learning-instructions","17","192643","0.0-8.0-0.0-0.9","1580","2","2","""event"",""trial"",""time""
""fullscreenenter"",""1"",""5289""
","
","
","""event"",""trial"",""time""
""fullscreenenter"",""1"",""5289""
","
","","","","","","971","<p> However, even if you choose the best park for the equipment, the kids may sometimes be sad. </p>","","0","instructions","","","","","","","","","","","","","",""
"learning-instructions","18","200482","0.0-8.0-0.0-0.10","1580","2","2","""event"",""trial"",""time""
""fullscreenenter"",""1"",""5289""
","
","
","""event"",""trial"",""time""
""fullscreenenter"",""1"",""5289""
","
","","","","","","607","<p> Similarly, even if you choose the <i>wrong</i> park for the equipment, the kids may still be happy sometimes.","","0","instructions","","","","","","","","","","","","","",""
"learning-instructions","19","207500","0.0-8.0-0.0-0.11","1580","2","2","""event"",""trial"",""time""
""fullscreenenter"",""1"",""5289""
","
","
","""event"",""trial"",""time""
""fullscreenenter"",""1"",""5289""
","
","","","","","","1974","<p> For example, the best park for this soccer ball is this one.<div style='float: center;'><img src='images/i1.png' width = '500' height = '268'></img>","","0","instructions","","","","","","","","","","","","","",""
"learning-instructions","20","214356","0.0-8.0-0.0-0.12","1580","2","2","""event"",""trial"",""time""
""fullscreenenter"",""1"",""5289""
","
","
","""event"",""trial"",""time""
""fullscreenenter"",""1"",""5289""
","
","","","","","","1575","<p> Let's see what happens if you choose this park for the soccer ball five times.","","0","instructions","","","","","","","","","","","","","",""
"learning-instructions","21","217603","0.0-8.0-0.0-0.13","1580","2","2","""event"",""trial"",""time""
""fullscreenenter"",""1"",""5289""
","
","
","""event"",""trial"",""time""
""fullscreenenter"",""1"",""5289""
","
","","","","","","1089","<p> The kids are happy.<div style='float: left;'><img src='images/i2.png' width = '640' height = '360'></img>","","0","instructions","","","","","","","","","","","","","",""
"learning-instructions","22","220322","0.0-8.0-0.0-0.14","1580","2","2","""event"",""trial"",""time""
""fullscreenenter"",""1"",""5289""
","
","
","""event"",""trial"",""time""
""fullscreenenter"",""1"",""5289""
","
","","","","","","553","<p> The kids are happy.<div style='float: left;'><img src='images/i3.png' width = '640' height = '360'></img>","","0","instructions","","","","","","","","","","","","","",""
"learning-instructions","23","223059","0.0-8.0-0.0-0.15","1580","2","2","""event"",""trial"",""time""
""fullscreenenter"",""1"",""5289""
","
","
","""event"",""trial"",""time""
""fullscreenenter"",""1"",""5289""
","
","","","","","","578","<p> The kids are happy.<div style='float: left;'><img src='images/i4.png' width = '640' height = '360'></img>","","0","instructions","","","","","","","","","","","","","",""
"learning-instructions","24","225744","0.0-8.0-0.0-0.16","1580","2","2","""event"",""trial"",""time""
""fullscreenenter"",""1"",""5289""
","
","
","""event"",""trial"",""time""
""fullscreenenter"",""1"",""5289""
","
","","","","","","483","<p> The kids are sad.<div style='float: left;'><img src='images/i5.png' width = '640' height = '360'></img>","","0","instructions","","","","","","","","","","","","","",""
"learning-instructions","25","228375","0.0-8.0-0.0-0.17","1580","2","2","""event"",""trial"",""time""
""fullscreenenter"",""1"",""5289""
","
","
","""event"",""trial"",""time""
""fullscreenenter"",""1"",""5289""
","
","","","","","","469","<p> The kids are happy.<div style='float: left;'><img src='images/i6.png' width = '640' height = '360'></img>","","0","instructions","","","","","","","","","","","","","",""
"learning-instructions","26","236682","0.0-8.0-0.0-0.18","1580","2","2","""event"",""trial"",""time""
""fullscreenenter"",""1"",""5289""
","
","
","""event"",""trial"",""time""
""fullscreenenter"",""1"",""5289""
","
","","","","","","1046","<p> As you can see, selecting that park for the soccer ball made the kids happy most of the time, but not all the time.","","0","instructions","","","","","","","","","","","","","",""
"learning-instructions","27","243132","0.0-8.0-0.0-0.19","1580","2","2","""event"",""trial"",""time""
""fullscreenenter"",""1"",""5289""
","
","
","""event"",""trial"",""time""
""fullscreenenter"",""1"",""5289""
","
","","","","","","455","<p> Now let's see what happens if you choose a DIFFERENT park for the soccer ball 5 times.","","0","instructions","","","","","","","","","","","","","",""
"learning-instructions","28","246041","0.0-8.0-0.0-0.20","1580","2","2","""event"",""trial"",""time""
""fullscreenenter"",""1"",""5289""
","
","
","""event"",""trial"",""time""
""fullscreenenter"",""1"",""5289""
","
","","","","","","712","<p> The kids are sad.<div style='float: left;'><img src='images/i7.png' width = '640' height = '360'></img>","","0","instructions","","","","","","","","","","","","","",""
"learning-instructions","29","249095","0.0-8.0-0.0-0.21","1580","2","2","""event"",""trial"",""time""
""fullscreenenter"",""1"",""5289""
","
","
","""event"",""trial"",""time""
""fullscreenenter"",""1"",""5289""
","
","","","","","","856","<p> The kids are sad.<div style='float: left;'><img src='images/i8.png' width = '640' height = '360'></img>","","0","instructions","","","","","","","","","","","","","",""
"learning-instructions","30","252008","0.0-8.0-0.0-0.22","1580","2","2","""event"",""trial"",""time""
""fullscreenenter"",""1"",""5289""
","
","
","""event"",""trial"",""time""
""fullscreenenter"",""1"",""5289""
","
","","","","","","751","<p> The kids are happy.<div style='float: left;'><img src='images/i9.png' width = '640' height = '360'></img>","","0","instructions","","","","","","","","","","","","","",""
"learning-instructions","31","255084","0.0-8.0-0.0-0.23","1580","2","2","""event"",""trial"",""time""
""fullscreenenter"",""1"",""5289""
","
","
","""event"",""trial"",""time""
""fullscreenenter"",""1"",""5289""
","
","","","","","","867","<p> The kids are sad.<div style='float: left;'><img src='images/i10.png' width = '640' height = '360'></img>","","0","instructions","","","","","","","","","","","","","",""
"learning-instructions","32","258371","0.0-8.0-0.0-0.24","1580","2","2","""event"",""trial"",""time""
""fullscreenenter"",""1"",""5289""
","
","
","""event"",""trial"",""time""
""fullscreenenter"",""1"",""5289""
","
","","","","","","1086","<p> The kids are sad.<div style='float: left;'><img src='images/i11.png' width = '640' height = '360'></img>","","0","instructions","","","","","","","","","","","","","",""
"learning-instructions","33","268451","0.0-8.0-0.0-0.25","1580","2","2","""event"",""trial"",""time""
""fullscreenenter"",""1"",""5289""
","
","
","""event"",""trial"",""time""
""fullscreenenter"",""1"",""5289""
","
","","","","","","1973","<p> As you can see, selecting the wrong park for the soccer ball made the kids sad most of the time, but not all the time.","","0","instructions","","","","","","","","","","","","","",""
"learning-instructions","34","278951","0.0-8.0-0.0-0.26","1580","2","2","""event"",""trial"",""time""
""fullscreenenter"",""1"",""5289""
","
","
","""event"",""trial"",""time""
""fullscreenenter"",""1"",""5289""
","
","","","","","","1392","<p> The different pieces of equipment belong in different parks. You need to try to learn which is the best park for each piece of equipment.","","0","instructions","","","","","","","","","","","","","",""
"learning-instructions","35","297565","0.0-8.0-0.0-0.27","1580","2","2","""event"",""trial"",""time""
""fullscreenenter"",""1"",""5289""
","
","
","""event"",""trial"",""time""
""fullscreenenter"",""1"",""5289""
","
","","","","","","2243","<p> Try to choose the best park for each piece of equipment, because you will <b> WIN </b> 1 point for each time you make the kids happy and <b>LOSE</b> 1 point for each time you make them sad. </p><p> Remember, if you make the best choice, you will win 1 point most of the time, but not all the time. </p>","","0","instructions","","","","","","","","","","","","","",""
"learning-instructions","36","307386","0.0-8.0-0.0-0.28","1580","2","2","""event"",""trial"",""time""
""fullscreenenter"",""1"",""5289""
","
","
","""event"",""trial"",""time""
""fullscreenenter"",""1"",""5289""
","
","","","","","","4338","<p> This is just a practice round, but in the real game, your bonus payment will depend on your total number of points.","","0","instructions","","","","","","","","","","","","","",""
"learning-instructions","37","319563","0.0-8.0-0.0-0.29","1580","2","2","""event"",""trial"",""time""
""fullscreenenter"",""1"",""5289""
","
","
","""event"",""trial"",""time""
""fullscreenenter"",""1"",""5289""
","
","","","","","","1857","<p> The position where each park appears will change throughout the game. </p><p> The position where the park appears <i> does not </i> influence how likely the kids are to be happy or sad. </p>","","0","instructions","","","","","","","","","","","","","",""
"learning-instructions","38","332864","0.0-8.0-0.0-0.30","1580","2","2","""event"",""trial"",""time""
""fullscreenenter"",""1"",""5289""
","
","
","""event"",""trial"",""time""
""fullscreenenter"",""1"",""5289""
","
","","","","","","1664","<p> You will have 4 seconds to make each choice. Try to respond before time runs out! </p><p> You will lose 1 point each time you do not make a response. </p>","","0","instructions","","","","","","","","","","","","","",""
"learning-instructions","39","340813","0.0-8.0-0.0-0.31","1580","2","2","""event"",""trial"",""time""
""fullscreenenter"",""1"",""5289""
","
","
","""event"",""trial"",""time""
""fullscreenenter"",""1"",""5289""
","
","","","","","","1161","<p> Remember, you should use the 1, 2, and 3 keys to select the park for each piece of equipment. </p><br><div class=""choice-instructions-grid""> <div class=""choice-option""><img src=""images/park1.png"" class=""choice-option-img"" stage=""instructions"" position=""0"" ><div class=""choice-option-text""> Press ""1."" </div></div><div class=""choice-option""><img src=""images/park2.png"" class=""choice-option-img"" stage=""instructions"" position=""1"" ><div class=""choice-option-text""> Press ""2."" </div></div><div class=""choice-option""><img src=""images/park3.png"" class=""choice-option-img"" stage=""instructions"" position=""2"" ><div class=""choice-option-text""> Press ""3."" </div></div></div>","","0","instructions","","","","","","","","","","","","","",""
"html-button-response","40","342434","0.0-8.0-1.0","1580","2","2","""event"",""trial"",""time""
""fullscreenenter"",""1"",""5289""
","
","
","""event"",""trial"",""time""
""fullscreenenter"",""1"",""5289""
","
","","","","","","1514","<p> Ready to practice? </p>","0","","","","","","","","","","","","","","","",""
"html-keyboard-response","41","343035","0.0-8.0-2.0-0.0","1580","2","2","""event"",""trial"",""time""
""fullscreenenter"",""1"",""5289""
","
","
","""event"",""trial"",""time""
""fullscreenenter"",""1"",""5289""
","
","","","","","","null","<div style=""font-size:60px;"">+</div>","null","","fixation","","","","","","","","","","","","","",""
"learning-trial","42","347036","0.0-8.0-2.0-1.0","1580","2","2","""event"",""trial"",""time""
""fullscreenenter"",""1"",""5289""
","
","
","""event"",""trial"",""time""
""fullscreenenter"",""1"",""5289""
","
","","","","","","3227","images/racket3.png","","","practice","images/park1.png","images/park2.png","images/park3.png","[0,1,2]","0","0","2","images/park2.png","-1","practice","","","",""
"html-keyboard-response","43","347543","0.0-8.0-2.0-0.1","1580","2","2","""event"",""trial"",""time""
""fullscreenenter"",""1"",""5289""
","
","
","""event"",""trial"",""time""
""fullscreenenter"",""1"",""5289""
","
","","","","","","null","<div style=""font-size:60px;"">+</div>","null","","fixation","","","","","","","","","","","","","",""
"learning-trial","44","351551","0.0-8.0-2.0-1.1","1580","2","2","""event"",""trial"",""time""
""fullscreenenter"",""1"",""5289""
","
","
","""event"",""trial"",""time""
""fullscreenenter"",""1"",""5289""
","
","","","","","","2291","images/ball2.png","","","practice","images/park3.png","images/park2.png","images/park1.png","[2,1,0]","0","2","3","images/park1.png","1","practice","","","",""
"html-keyboard-response","45","352060","0.0-8.0-2.0-0.2","1580","2","2","""event"",""trial"",""time""
""fullscreenenter"",""1"",""5289""
","
","
","""event"",""trial"",""time""
""fullscreenenter"",""1"",""5289""
","
","","","","","","null","<div style=""font-size:60px;"">+</div>","null","","fixation","","","","","","","","","","","","","",""
"learning-trial","46","356068","0.0-8.0-2.0-1.2","1580","2","2","""event"",""trial"",""time""
""fullscreenenter"",""1"",""5289""
","
","
","""event"",""trial"",""time""
""fullscreenenter"",""1"",""5289""
","
","","","","","","1100","images/ball4.png","","","practice","images/park3.png","images/park1.png","images/park2.png","[2,0,1]","1","2","3","images/park2.png","1","practice","","","",""
"html-keyboard-response","47","356575","0.0-8.0-2.0-0.3","1580","2","2","""event"",""trial"",""time""
""fullscreenenter"",""1"",""5289""
","
","
","""event"",""trial"",""time""
""fullscreenenter"",""1"",""5289""
","
","","","","","","null","<div style=""font-size:60px;"">+</div>","null","","fixation","","","","","","","","","","","","","",""
"learning-trial","48","360576","0.0-8.0-2.0-1.3","1580","2","2","""event"",""trial"",""time""
""fullscreenenter"",""1"",""5289""
","
","
","""event"",""trial"",""time""
""fullscreenenter"",""1"",""5289""
","
","","","","","","1217","images/ball2.png","","","practice","images/park2.png","images/park1.png","images/park3.png","[1,0,2]","0","1","2","images/park1.png","1","practice","","","",""
"html-keyboard-response","49","361076","0.0-8.0-2.0-0.4","1580","2","2","""event"",""trial"",""time""
""fullscreenenter"",""1"",""5289""
","
","
","""event"",""trial"",""time""
""fullscreenenter"",""1"",""5289""
","
","","","","","","null","<div style=""font-size:60px;"">+</div>","null","","fixation","","","","","","","","","","","","","",""
"learning-trial","50","365082","0.0-8.0-2.0-1.4","1580","2","2","""event"",""trial"",""time""
""fullscreenenter"",""1"",""5289""
","
","
","""event"",""trial"",""time""
""fullscreenenter"",""1"",""5289""
","
","","","","","","2366","images/racket3.png","","","practice","images/park1.png","images/park2.png","images/park3.png","[0,1,2]","0","0","3","images/park3.png","-1","practice","","","",""
"html-keyboard-response","51","365583","0.0-8.0-2.0-0.5","1580","2","2","""event"",""trial"",""time""
""fullscreenenter"",""1"",""5289""
","
","
","""event"",""trial"",""time""
""fullscreenenter"",""1"",""5289""
","
","","","","","","null","<div style=""font-size:60px;"">+</div>","null","","fixation","","","","","","","","","","","","","",""
"learning-trial","52","369583","0.0-8.0-2.0-1.5","1580","2","2","""event"",""trial"",""time""
""fullscreenenter"",""1"",""5289""
","
","
","""event"",""trial"",""time""
""fullscreenenter"",""1"",""5289""
","
","","","","","","1099","images/racket4.png","","","practice","images/park1.png","images/park3.png","images/park2.png","[0,2,1]","1","2","3","images/park2.png","1","practice","","","",""
"html-keyboard-response","53","370083","0.0-8.0-2.0-0.6","1580","2","2","""event"",""trial"",""time""
""fullscreenenter"",""1"",""5289""
","
","
","""event"",""trial"",""time""
""fullscreenenter"",""1"",""5289""
","
","","","","","","null","<div style=""font-size:60px;"">+</div>","null","","fixation","","","","","","","","","","","","","",""
"learning-trial","54","374085","0.0-8.0-2.0-1.6","1580","2","2","""event"",""trial"",""time""
""fullscreenenter"",""1"",""5289""
","
","
","""event"",""trial"",""time""
""fullscreenenter"",""1"",""5289""
","
","","","","","","1789","images/racket4.png","","","practice","images/park3.png","images/park2.png","images/park1.png","[2,1,0]","1","1","3","images/park1.png","-1","practice","","","",""
"html-keyboard-response","55","374586","0.0-8.0-2.0-0.7","1580","2","2","""event"",""trial"",""time""
""fullscreenenter"",""1"",""5289""
","
","
","""event"",""trial"",""time""
""fullscreenenter"",""1"",""5289""
","
","","","","","","null","<div style=""font-size:60px;"">+</div>","null","","fixation","","","","","","","","","","","","","",""
"learning-trial","56","378589","0.0-8.0-2.0-1.7","1580","2","2","""event"",""trial"",""time""
""fullscreenenter"",""1"",""5289""
","
","
","""event"",""trial"",""time""
""fullscreenenter"",""1"",""5289""
","
","","","","","","1141","images/ball3.png","","","practice","images/park1.png","images/park3.png","images/park2.png","[0,2,1]","2","1","2","images/park3.png","1","practice","","","",""
"html-keyboard-response","57","379090","0.0-8.0-2.0-0.8","1580","2","2","""event"",""trial"",""time""
""fullscreenenter"",""1"",""5289""
","
","
","""event"",""trial"",""time""
""fullscreenenter"",""1"",""5289""
","
","","","","","","null","<div style=""font-size:60px;"">+</div>","null","","fixation","","","","","","","","","","","","","",""
"learning-trial","58","383092","0.0-8.0-2.0-1.8","1580","2","2","""event"",""trial"",""time""
""fullscreenenter"",""1"",""5289""
","
","
","""event"",""trial"",""time""
""fullscreenenter"",""1"",""5289""
","
","","","","","","853","images/ball1.png","","","practice","images/park2.png","images/park3.png","images/park1.png","[1,2,0]","2","1","2","images/park3.png","-1","practice","","","",""
"html-keyboard-response","59","383593","0.0-8.0-2.0-0.9","1580","2","2","""event"",""trial"",""time""
""fullscreenenter"",""1"",""5289""
","
","
","""event"",""trial"",""time""
""fullscreenenter"",""1"",""5289""
","
","","","","","","null","<div style=""font-size:60px;"">+</div>","null","","fixation","","","","","","","","","","","","","",""
"learning-trial","60","387595","0.0-8.0-2.0-1.9","1580","2","2","""event"",""trial"",""time""
""fullscreenenter"",""1"",""5289""
","
","
","""event"",""trial"",""time""
""fullscreenenter"",""1"",""5289""
","
","","","","","","1351","images/ball4.png","","","practice","images/park3.png","images/park1.png","images/park2.png","[2,0,1]","1","2","1","images/park3.png","-1","practice","","","",""
"html-keyboard-response","61","388096","0.0-8.0-2.0-0.10","1580","2","2","""event"",""trial"",""time""
""fullscreenenter"",""1"",""5289""
","
","
","""event"",""trial"",""time""
""fullscreenenter"",""1"",""5289""
","
","","","","","","null","<div style=""font-size:60px;"">+</div>","null","","fixation","","","","","","","","","","","","","",""
"learning-trial","62","392099","0.0-8.0-2.0-1.10","1580","2","2","""event"",""trial"",""time""
""fullscreenenter"",""1"",""5289""
","
","
","""event"",""trial"",""time""
""fullscreenenter"",""1"",""5289""
","
","","","","","","1767","images/ball3.png","","","practice","images/park3.png","images/park2.png","images/park1.png","[2,1,0]","2","0","3","images/park1.png","-1","practice","","","",""
"html-keyboard-response","63","392600","0.0-8.0-2.0-0.11","1580","2","2","""event"",""trial"",""time""
""fullscreenenter"",""1"",""5289""
","
","
","""event"",""trial"",""time""
""fullscreenenter"",""1"",""5289""
","
","","","","","","null","<div style=""font-size:60px;"">+</div>","null","","fixation","","","","","","","","","","","","","",""
"learning-trial","64","396602","0.0-8.0-2.0-1.11","1580","2","2","""event"",""trial"",""time""
""fullscreenenter"",""1"",""5289""
","
","
","""event"",""trial"",""time""
""fullscreenenter"",""1"",""5289""
","
","","","","","","191","images/ball1.png","","","practice","images/park1.png","images/park3.png","images/park2.png","[0,2,1]","2","1","1","images/park1.png","-1","practice","","","",""
"html-button-response","65","398907","0.0-8.0-3.0","1580","2","2","""event"",""trial"",""time""
""fullscreenenter"",""1"",""5289""
","
","
","""event"",""trial"",""time""
""fullscreenenter"",""1"",""5289""
","
","","","","","","2303","<p> You earned -2 points in the practice round! </p>","0","","break","","","","","","","","","","","","","",""
"learning-instructions","66","409199","0.0-8.0-4.0-0.0","1580","2","2","""event"",""trial"",""time""
""fullscreenenter"",""1"",""5289""
","
","
","""event"",""trial"",""time""
""fullscreenenter"",""1"",""5289""
","
","","","","","","2602","<p> It's almost time to start the real game. </p><p> Before you start, we're going to ask you a few questions about how the game works. </p>","","0","instructions","","","","","","","","","","","","","",""
"preload","67","414971","0.0-8.0-5.0","1580","2","2","""event"",""trial"",""time""
""fullscreenenter"",""1"",""5289""
","
","
","""event"",""trial"",""time""
""fullscreenenter"",""1"",""5289""
","
","true","false","[]","[]","[]","","","","","","","","","","","","","","","","","","",""
"comp-q","68","421391","0.0-8.0-6.0-0.0","1580","2","2","""event"",""trial"",""time""
""fullscreenenter"",""1"",""5289""
","
","
","""event"",""trial"",""time""
""fullscreenenter"",""1"",""5289""
","
","","","","","","968","<p> <b> True or False? </b> </p><p> If you choose the best option, you will always earn 1 point. </p>","","1","comp_question","","","","","","","","","","","true","","",""
"comp-q","69","428643","0.0-8.0-6.0-1.0","1580","2","2","""event"",""trial"",""time""
""fullscreenenter"",""1"",""5289""
","
","
","""event"",""trial"",""time""
""fullscreenenter"",""1"",""5289""
","
","","","","","","1591","<p><b> That's right! </b> Sometimes you will lose 1 point, even if you choose the best option. </p>","","0","comp_answer","","","","","","","","","","","","","",""
"comp-q","70","434581","0.0-8.0-6.0-0.1","1580","2","2","""event"",""trial"",""time""
""fullscreenenter"",""1"",""5289""
","
","
","""event"",""trial"",""time""
""fullscreenenter"",""1"",""5289""
","
","","","","","","1311","<p> <b> True or False? </b> </p><p> You will have as much time as you want to make each choice. </p>","","1","comp_question","","","","","","","","","","","true","","",""
"comp-q","71","440507","0.0-8.0-6.0-1.1","1580","2","2","""event"",""trial"",""time""
""fullscreenenter"",""1"",""5289""
","
","
","""event"",""trial"",""time""
""fullscreenenter"",""1"",""5289""
","
","","","","","","1119","<p> <b> That's right! </b> You will only have 4 seconds to make each choice. </p>","","0","comp_answer","","","","","","","","","","","","","",""
"comp-q","72","447304","0.0-8.0-6.0-0.2","1580","2","2","""event"",""trial"",""time""
""fullscreenenter"",""1"",""5289""
","
","
","""event"",""trial"",""time""
""fullscreenenter"",""1"",""5289""
","
","","","","","","659","<p> <b> True or False? </b> </p><p> You should use the '1', '2', and '3' keys to make your choices. </p>","","0","comp_question","","","","","","","","","","","true","","",""
"comp-q","73","455125","0.0-8.0-6.0-1.2","1580","2","2","""event"",""trial"",""time""
""fullscreenenter"",""1"",""5289""
","
","
","""event"",""trial"",""time""
""fullscreenenter"",""1"",""5289""
","
","","","","","","2982","<p> <b> That's right! </b> You should use the '1', '2', and '3' keys to make each choice. </p>","","0","comp_answer","","","","","","","","","","","","","",""
"learning-instructions","74","464886","0.0-8.0-7.0-0.0","1580","2","2","""event"",""trial"",""time""
""fullscreenenter"",""1"",""5289""
","
","
","""event"",""trial"",""time""
""fullscreenenter"",""1"",""5289""
","
","","","","","","1279","<p> It's now time to start the real game. </p>Do your best, because the points you earn in the next rounds will influence your bonus payment. </p>","","0","instructions","","","","","","","","","","","","","",""
"preload","75","493704","0.0-9.0-0.0","1580","2","2","""event"",""trial"",""time""
""fullscreenenter"",""1"",""5289""
","
","
","""event"",""trial"",""time""
""fullscreenenter"",""1"",""5289""
","
","true","false","[]","[]","[]","","","","","","","","","","","","","","","","","","",""
"learning-instructions","76","502787","0.0-9.0-1.0-0.0","1580","2","2","""event"",""trial"",""time""
""fullscreenenter"",""1"",""5289""
","
","
","""event"",""trial"",""time""
""fullscreenenter"",""1"",""5289""
","
","","","","","","2592","<p> Your goal in this round is to buy different types of fruits. </p><p> You will try to purchase many fruits from different stores. </p></div>","","0","instructions","","","","","","","","","","","","","",""
"learning-instructions","77","512633","0.0-9.0-1.0-0.1","1580","2","2","""event"",""trial"",""time""
""fullscreenenter"",""1"",""5289""
","
","
","""event"",""trial"",""time""
""fullscreenenter"",""1"",""5289""
","
","","","","","","1356","<p> On each turn, you will see a picture of a fruit and three different stores.  </p><p> You need to select the store where you can buy that fruit.  </p>","","0","instructions","","","","","","","","","","","","","",""
"learning-instructions","78","521426","0.0-9.0-1.0-0.2","1580","2","2","""event"",""trial"",""time""
""fullscreenenter"",""1"",""5289""
","
","
","""event"",""trial"",""time""
""fullscreenenter"",""1"",""5289""
","
","","","","","","1423","<p> You can select the store on the left by pressing 1, the store in the middle by pressing 2, and the store on the right by pressing 3. </p><br><div class=""choice-instructions-grid""> <div class=""choice-option""><img src=""images/fruit_choice1.png"" class=""choice-option-img"" stage=""instructions"" position=""0"" ><div class=""choice-option-text""> Press ""1."" </div></div><div class=""choice-option""><img src=""images/fruit_choice2.png"" class=""choice-option-img"" stage=""instructions"" position=""1"" ><div class=""choice-option-text""> Press ""2."" </div></div><div class=""choice-option""><img src=""images/fruit_choice3.png"" class=""choice-option-img"" stage=""instructions"" position=""2"" ><div class=""choice-option-text""> Press ""3."" </div></div></div>","","0","instructions","","","","","","","","","","","","","",""
"learning-instructions","79","529493","0.0-9.0-1.0-0.3","1580","2","2","""event"",""trial"",""time""
""fullscreenenter"",""1"",""5289""
","
","
","""event"",""trial"",""time""
""fullscreenenter"",""1"",""5289""
","
","","","","","","3131","<p> If you find the fruit in the store you chose, you will get to buy and eat it! </p><div style='float: center;'><img src='images/check.png' width = '200' height = '200'></img>","","0","instructions","","","","","","","","","","","","","",""
"learning-instructions","80","537779","0.0-9.0-1.0-0.4","1580","2","2","""event"",""trial"",""time""
""fullscreenenter"",""1"",""5289""
","
","
","""event"",""trial"",""time""
""fullscreenenter"",""1"",""5289""
","
","","","","","","3831","<p> But, if the fruit is not in that store, you will be hungry. </p><div style='float: center;'><img src='images/x.png' width = '200' height = '200'></img>","","0","instructions","","","","","","","","","","","","","",""
"learning-instructions","81","547928","0.0-9.0-1.0-0.5","1580","2","2","""event"",""trial"",""time""
""fullscreenenter"",""1"",""5289""
","
","
","""event"",""trial"",""time""
""fullscreenenter"",""1"",""5289""
","
","","","","","","374","<p> Importantly, each fruit is more likely to be found in one of the stores. </p><p> If you choose the correct store, you will be more likely to be able to buy the fruit! </p>","","0","instructions","","","","","","","","","","","","","",""
"learning-instructions","82","558685","0.0-9.0-1.0-0.6","1580","2","2","""event"",""trial"",""time""
""fullscreenenter"",""1"",""5289""
","
","
","""event"",""trial"",""time""
""fullscreenenter"",""1"",""5289""
","
","","","","","","309","<p> However, even if you choose the best store for the fruit, the store might not have it sometimes. </p><p> Similarly, even if you choose the <i>wrong</i> store, it might still have the fruit.","","0","instructions","","","","","","","","","","","","","",""
"learning-instructions","83","571337","0.0-9.0-1.0-0.7","1580","2","2","""event"",""trial"",""time""
""fullscreenenter"",""1"",""5289""
","
","
","""event"",""trial"",""time""
""fullscreenenter"",""1"",""5289""
","
","","","","","","471","<p> Try to choose the best store for each fruit, because you will <b> WIN </b> 1 point for each fruit you eat and <b>LOSE</b> 1 point each time you are hungry. </p><p> Your bonus payment will depend on your total number of points.","","0","instructions","","","","","","","","","","","","","",""
"learning-instructions","84","580864","0.0-9.0-1.0-0.8","1580","2","2","""event"",""trial"",""time""
""fullscreenenter"",""1"",""5289""
","
","
","""event"",""trial"",""time""
""fullscreenenter"",""1"",""5289""
","
","","","","","","1312","<p> The position of each store will change throughout the round. </p><p> The store's position <i> does not </i> influence how likely you are to find the fruit. </p>","","0","instructions","","","","","","","","","","","","","",""
"learning-instructions","85","591268","0.0-9.0-1.0-0.9","1580","2","2","""event"",""trial"",""time""
""fullscreenenter"",""1"",""5289""
","
","
","""event"",""trial"",""time""
""fullscreenenter"",""1"",""5289""
","
","","","","","","1115","<p> You will have 4 seconds to make each choice. Try to respond before time runs out! </p><p> You will lose 1 point each time you do not make a response. </p>","","0","instructions","","","","","","","","","","","","","",""
"html-keyboard-response","86","591883","0.0-9.0-2.0-0.0","1580","2","2","""event"",""trial"",""time""
""fullscreenenter"",""1"",""5289""
","
","
","""event"",""trial"",""time""
""fullscreenenter"",""1"",""5289""
","
","","","","","","null","<div style=""font-size:60px;"">+</div>","null","","fixation","","","","","","","","","","","","","",""
"learning-trial","87","595888","0.0-9.0-2.0-1.0","1580","2","2","""event"",""trial"",""time""
""fullscreenenter"",""1"",""5289""
","
","
","""event"",""trial"",""time""
""fullscreenenter"",""1"",""5289""
","
","","","","","","1373","images/straw3.png","","","learning","images/fruit_choice1.png","images/fruit_choice3.png","images/fruit_choice2.png","[0,2,1]","2","1","2","images/fruit_choice3.png","1","fruit","","straw","2","0"
"html-keyboard-response","88","596390","0.0-9.0-2.0-0.1","1580","2","2","""event"",""trial"",""time""
""fullscreenenter"",""1"",""5289""
","
","
","""event"",""trial"",""time""
""fullscreenenter"",""1"",""5289""
","
","","","","","","null","<div style=""font-size:60px;"">+</div>","null","","fixation","","","","","","","","","","","","","",""
"learning-trial","89","600390","0.0-9.0-2.0-1.1","1580","2","2","""event"",""trial"",""time""
""fullscreenenter"",""1"",""5289""
","
","
","""event"",""trial"",""time""
""fullscreenenter"",""1"",""5289""
","
","","","","","","1882","images/banana4.png","","","learning","images/fruit_choice3.png","images/fruit_choice2.png","images/fruit_choice1.png","[2,1,0]","0","2","2","images/fruit_choice2.png","-1","fruit","","banana","2","0"
"html-keyboard-response","90","600890","0.0-9.0-2.0-0.2","1580","2","2","""event"",""trial"",""time""
""fullscreenenter"",""1"",""5289""
","
","
","""event"",""trial"",""time""
""fullscreenenter"",""1"",""5289""
","
","","","","","","null","<div style=""font-size:60px;"">+</div>","null","","fixation","","","","","","","","","","","","","",""
"learning-trial","91","604896","0.0-9.0-2.0-1.2","1580","2","2","""event"",""trial"",""time""
""fullscreenenter"",""1"",""5289""
","
","
","""event"",""trial"",""time""
""fullscreenenter"",""1"",""5289""
","
","","","","","","1286","images/straw1.png","","","learning","images/fruit_choice3.png","images/fruit_choice1.png","images/fruit_choice2.png","[2,0,1]","0","1","3","images/fruit_choice2.png","-1","fruit","","straw","2","0"
"html-keyboard-response","92","605398","0.0-9.0-2.0-0.3","1580","2","2","""event"",""trial"",""time""
""fullscreenenter"",""1"",""5289""
","
","
","""event"",""trial"",""time""
""fullscreenenter"",""1"",""5289""
","
","","","","","","null","<div style=""font-size:60px;"">+</div>","null","","fixation","","","","","","","","","","","","","",""
"learning-trial","93","609407","0.0-9.0-2.0-1.3","1580","2","2","""event"",""trial"",""time""
""fullscreenenter"",""1"",""5289""
","
","
","""event"",""trial"",""time""
""fullscreenenter"",""1"",""5289""
","
","","","","","","1074","images/straw4.png","","","learning","images/fruit_choice1.png","images/fruit_choice3.png","images/fruit_choice2.png","[0,2,1]","1","2","3","images/fruit_choice2.png","1","fruit","","straw","2","0"
"html-keyboard-response","94","609916","0.0-9.0-2.0-0.4","1580","2","2","""event"",""trial"",""time""
""fullscreenenter"",""1"",""5289""
","
","
","""event"",""trial"",""time""
""fullscreenenter"",""1"",""5289""
","
","","","","","","null","<div style=""font-size:60px;"">+</div>","null","","fixation","","","","","","","","","","","","","",""
"learning-trial","95","613918","0.0-9.0-2.0-1.4","1580","2","2","""event"",""trial"",""time""
""fullscreenenter"",""1"",""5289""
","
","
","""event"",""trial"",""time""
""fullscreenenter"",""1"",""5289""
","
","","","","","","1165","images/straw1.png","","","learning","images/fruit_choice1.png","images/fruit_choice3.png","images/fruit_choice2.png","[0,2,1]","0","0","3","images/fruit_choice2.png","-1","fruit","","straw","2","0"
"html-keyboard-response","96","614418","0.0-9.0-2.0-0.5","1580","2","2","""event"",""trial"",""time""
""fullscreenenter"",""1"",""5289""
","
","
","""event"",""trial"",""time""
""fullscreenenter"",""1"",""5289""
","
","","","","","","null","<div style=""font-size:60px;"">+</div>","null","","fixation","","","","","","","","","","","","","",""
"learning-trial","97","618422","0.0-9.0-2.0-1.5","1580","2","2","""event"",""trial"",""time""
""fullscreenenter"",""1"",""5289""
","
","
","""event"",""trial"",""time""
""fullscreenenter"",""1"",""5289""
","
","","","","","","1117","images/apple1.png","","","learning","images/fruit_choice1.png","images/fruit_choice2.png","images/fruit_choice3.png","[0,1,2]","0","0","2","images/fruit_choice2.png","1","fruit","","apple","2","0"
"html-keyboard-response","98","618925","0.0-9.0-2.0-0.6","1580","2","2","""event"",""trial"",""time""
""fullscreenenter"",""1"",""5289""
","
","
","""event"",""trial"",""time""
""fullscreenenter"",""1"",""5289""
","
","","","","","","null","<div style=""font-size:60px;"">+</div>","null","","fixation","","","","","","","","","","","","","",""
"learning-trial","99","622925","0.0-9.0-2.0-1.6","1580","2","2","""event"",""trial"",""time""
""fullscreenenter"",""1"",""5289""
","
","
","""event"",""trial"",""time""
""fullscreenenter"",""1"",""5289""
","
","","","","","","1731","images/apple5.png","","","learning","images/fruit_choice3.png","images/fruit_choice1.png","images/fruit_choice2.png","[2,0,1]","1","2","3","images/fruit_choice2.png","1","fruit","","apple","2","0"
"html-keyboard-response","100","623426","0.0-9.0-2.0-0.7","1580","2","2","""event"",""trial"",""time""
""fullscreenenter"",""1"",""5289""
","
","
","""event"",""trial"",""time""
""fullscreenenter"",""1"",""5289""
","
","","","","","","null","<div style=""font-size:60px;"">+</div>","null","","fixation","","","","","","","","","","","","","",""
"learning-trial","101","627428","0.0-9.0-2.0-1.7","1580","2","2","""event"",""trial"",""time""
""fullscreenenter"",""1"",""5289""
","
","
","""event"",""trial"",""time""
""fullscreenenter"",""1"",""5289""
","
","","","","","","1228","images/apple5.png","","","learning","images/fruit_choice3.png","images/fruit_choice1.png","images/fruit_choice2.png","[2,0,1]","1","2","3","images/fruit_choice2.png","1","fruit","","apple","2","0"
"html-keyboard-response","102","627929","0.0-9.0-2.0-0.8","1580","2","2","""event"",""trial"",""time""
""fullscreenenter"",""1"",""5289""
","
","
","""event"",""trial"",""time""
""fullscreenenter"",""1"",""5289""
","
","","","","","","null","<div style=""font-size:60px;"">+</div>","null","","fixation","","","","","","","","","","","","","",""
"learning-trial","103","631931","0.0-9.0-2.0-1.8","1580","2","2","""event"",""trial"",""time""
""fullscreenenter"",""1"",""5289""
","
","
","""event"",""trial"",""time""
""fullscreenenter"",""1"",""5289""
","
","","","","","","1237","images/straw1.png","","","learning","images/fruit_choice3.png","images/fruit_choice1.png","images/fruit_choice2.png","[2,0,1]","0","1","2","images/fruit_choice1.png","1","fruit","","straw","2","0"
"html-keyboard-response","104","632432","0.0-9.0-2.0-0.9","1580","2","2","""event"",""trial"",""time""
""fullscreenenter"",""1"",""5289""
","
","
","""event"",""trial"",""time""
""fullscreenenter"",""1"",""5289""
","
","","","","","","null","<div style=""font-size:60px;"">+</div>","null","","fixation","","","","","","","","","","","","","",""
"learning-trial","105","636434","0.0-9.0-2.0-1.9","1580","2","2","""event"",""trial"",""time""
""fullscreenenter"",""1"",""5289""
","
","
","""event"",""trial"",""time""
""fullscreenenter"",""1"",""5289""
","
","","","","","","711","images/straw3.png","","","learning","images/fruit_choice2.png","images/fruit_choice3.png","images/fruit_choice1.png","[1,2,0]","2","1","2","images/fruit_choice3.png","1","fruit","","straw","2","0"
"html-keyboard-response","106","636935","0.0-9.0-2.0-0.10","1580","2","2","""event"",""trial"",""time""
""fullscreenenter"",""1"",""5289""
","
","
","""event"",""trial"",""time""
""fullscreenenter"",""1"",""5289""
","
","","","","","","null","<div style=""font-size:60px;"">+</div>","null","","fixation","","","","","","","","","","","","","",""
"learning-trial","107","640937","0.0-9.0-2.0-1.10","1580","2","2","""event"",""trial"",""time""
""fullscreenenter"",""1"",""5289""
","
","
","""event"",""trial"",""time""
""fullscreenenter"",""1"",""5289""
","
","","","","","","2063","images/banana4.png","","","learning","images/fruit_choice3.png","images/fruit_choice1.png","images/fruit_choice2.png","[2,0,1]","0","1","1","images/fruit_choice3.png","-1","fruit","","banana","2","0"
"html-keyboard-response","108","641438","0.0-9.0-2.0-0.11","1580","2","2","""event"",""trial"",""time""
""fullscreenenter"",""1"",""5289""
","
","
","""event"",""trial"",""time""
""fullscreenenter"",""1"",""5289""
","
","","","","","","null","<div style=""font-size:60px;"">+</div>","null","","fixation","","","","","","","","","","","","","",""
"learning-trial","109","645440","0.0-9.0-2.0-1.11","1580","2","2","""event"",""trial"",""time""
""fullscreenenter"",""1"",""5289""
","
","
","""event"",""trial"",""time""
""fullscreenenter"",""1"",""5289""
","
","","","","","","1353","images/straw3.png","","","learning","images/fruit_choice2.png","images/fruit_choice1.png","images/fruit_choice3.png","[1,0,2]","2","2","2","images/fruit_choice1.png","-1","fruit","","straw","2","0"
"html-keyboard-response","110","645942","0.0-9.0-2.0-0.12","1580","2","2","""event"",""trial"",""time""
""fullscreenenter"",""1"",""5289""
","
","
","""event"",""trial"",""time""
""fullscreenenter"",""1"",""5289""
","
","","","","","","null","<div style=""font-size:60px;"">+</div>","null","","fixation","","","","","","","","","","","","","",""
"learning-trial","111","649944","0.0-9.0-2.0-1.12","1580","2","2","""event"",""trial"",""time""
""fullscreenenter"",""1"",""5289""
","
","
","""event"",""trial"",""time""
""fullscreenenter"",""1"",""5289""
","
","","","","","","720","images/apple5.png","","","learning","images/fruit_choice1.png","images/fruit_choice2.png","images/fruit_choice3.png","[0,1,2]","1","1","3","images/fruit_choice3.png","-1","fruit","","apple","2","0"
"html-keyboard-response","112","650445","0.0-9.0-2.0-0.13","1580","2","2","""event"",""trial"",""time""
""fullscreenenter"",""1"",""5289""
","
","
","""event"",""trial"",""time""
""fullscreenenter"",""1"",""5289""
","
","","","","","","null","<div style=""font-size:60px;"">+</div>","null","","fixation","","","","","","","","","","","","","",""
"learning-trial","113","654447","0.0-9.0-2.0-1.13","1580","2","2","""event"",""trial"",""time""
""fullscreenenter"",""1"",""5289""
","
","
","""event"",""trial"",""time""
""fullscreenenter"",""1"",""5289""
","
","","","","","","1433","images/apple1.png","","","learning","images/fruit_choice2.png","images/fruit_choice1.png","images/fruit_choice3.png","[1,0,2]","0","1","1","images/fruit_choice2.png","-1","fruit","","apple","2","0"
"html-keyboard-response","114","654948","0.0-9.0-2.0-0.14","1580","2","2","""event"",""trial"",""time""
""fullscreenenter"",""1"",""5289""
","
","
","""event"",""trial"",""time""
""fullscreenenter"",""1"",""5289""
","
","","","","","","null","<div style=""font-size:60px;"">+</div>","null","","fixation","","","","","","","","","","","","","",""
"learning-trial","115","658950","0.0-9.0-2.0-1.14","1580","2","2","""event"",""trial"",""time""
""fullscreenenter"",""1"",""5289""
","
","
","""event"",""trial"",""time""
""fullscreenenter"",""1"",""5289""
","
","","","","","","1282","images/straw4.png","","","learning","images/fruit_choice1.png","images/fruit_choice2.png","images/fruit_choice3.png","[0,1,2]","1","1","2","images/fruit_choice2.png","1","fruit","","straw","2","0"
"html-keyboard-response","116","659451","0.0-9.0-2.0-0.15","1580","2","2","""event"",""trial"",""time""
""fullscreenenter"",""1"",""5289""
","
","
","""event"",""trial"",""time""
""fullscreenenter"",""1"",""5289""
","
","","","","","","null","<div style=""font-size:60px;"">+</div>","null","","fixation","","","","","","","","","","","","","",""
"learning-trial","117","663453","0.0-9.0-2.0-1.15","1580","2","2","""event"",""trial"",""time""
""fullscreenenter"",""1"",""5289""
","
","
","""event"",""trial"",""time""
""fullscreenenter"",""1"",""5289""
","
","","","","","","1524","images/apple2.png","","","learning","images/fruit_choice1.png","images/fruit_choice2.png","images/fruit_choice3.png","[0,1,2]","2","2","2","images/fruit_choice2.png","-1","fruit","","apple","2","0"
"html-keyboard-response","118","663954","0.0-9.0-2.0-0.16","1580","2","2","""event"",""trial"",""time""
""fullscreenenter"",""1"",""5289""
","
","
","""event"",""trial"",""time""
""fullscreenenter"",""1"",""5289""
","
","","","","","","null","<div style=""font-size:60px;"">+</div>","null","","fixation","","","","","","","","","","","","","",""
"learning-trial","119","667956","0.0-9.0-2.0-1.16","1580","2","2","""event"",""trial"",""time""
""fullscreenenter"",""1"",""5289""
","
","
","""event"",""trial"",""time""
""fullscreenenter"",""1"",""5289""
","
","","","","","","980","images/apple5.png","","","learning","images/fruit_choice2.png","images/fruit_choice3.png","images/fruit_choice1.png","[1,2,0]","1","0","2","images/fruit_choice3.png","-1","fruit","","apple","2","0"
"html-keyboard-response","120","668457","0.0-9.0-2.0-0.17","1580","2","2","""event"",""trial"",""time""
""fullscreenenter"",""1"",""5289""
","
","
","""event"",""trial"",""time""
""fullscreenenter"",""1"",""5289""
","
","","","","","","null","<div style=""font-size:60px;"">+</div>","null","","fixation","","","","","","","","","","","","","",""
"learning-trial","121","672460","0.0-9.0-2.0-1.17","1580","2","2","""event"",""trial"",""time""
""fullscreenenter"",""1"",""5289""
","
","
","""event"",""trial"",""time""
""fullscreenenter"",""1"",""5289""
","
","","","","","","1981","images/apple2.png","","","learning","images/fruit_choice3.png","images/fruit_choice1.png","images/fruit_choice2.png","[2,0,1]","2","0","1","images/fruit_choice3.png","1","fruit","","apple","2","0"
"html-keyboard-response","122","672961","0.0-9.0-2.0-0.18","1580","2","2","""event"",""trial"",""time""
""fullscreenenter"",""1"",""5289""
","
","
","""event"",""trial"",""time""
""fullscreenenter"",""1"",""5289""
","
","","","","","","null","<div style=""font-size:60px;"">+</div>","null","","fixation","","","","","","","","","","","","","",""
"learning-trial","123","676963","0.0-9.0-2.0-1.18","1580","2","2","""event"",""trial"",""time""
""fullscreenenter"",""1"",""5289""
","
","
","""event"",""trial"",""time""
""fullscreenenter"",""1"",""5289""
","
","","","","","","903","images/apple5.png","","","learning","images/fruit_choice3.png","images/fruit_choice1.png","images/fruit_choice2.png","[2,0,1]","1","2","2","images/fruit_choice1.png","1","fruit","","apple","2","0"
"html-keyboard-response","124","677464","0.0-9.0-2.0-0.19","1580","2","2","""event"",""trial"",""time""
""fullscreenenter"",""1"",""5289""
","
","
","""event"",""trial"",""time""
""fullscreenenter"",""1"",""5289""
","
","","","","","","null","<div style=""font-size:60px;"">+</div>","null","","fixation","","","","","","","","","","","","","",""
"learning-trial","125","681467","0.0-9.0-2.0-1.19","1580","2","2","""event"",""trial"",""time""
""fullscreenenter"",""1"",""5289""
","
","
","""event"",""trial"",""time""
""fullscreenenter"",""1"",""5289""
","
","","","","","","368","images/banana1.png","","","learning","images/fruit_choice1.png","images/fruit_choice3.png","images/fruit_choice2.png","[0,2,1]","2","1","3","images/fruit_choice2.png","-1","fruit","","banana","2","0"
"html-keyboard-response","126","681968","0.0-9.0-2.0-0.20","1580","2","2","""event"",""trial"",""time""
""fullscreenenter"",""1"",""5289""
","
","
","""event"",""trial"",""time""
""fullscreenenter"",""1"",""5289""
","
","","","","","","null","<div style=""font-size:60px;"">+</div>","null","","fixation","","","","","","","","","","","","","",""
"learning-trial","127","685970","0.0-9.0-2.0-1.20","1580","2","2","""event"",""trial"",""time""
""fullscreenenter"",""1"",""5289""
","
","
","""event"",""trial"",""time""
""fullscreenenter"",""1"",""5289""
","
","","","","","","711","images/apple1.png","","","learning","images/fruit_choice3.png","images/fruit_choice1.png","images/fruit_choice2.png","[2,0,1]","0","1","2","images/fruit_choice1.png","1","fruit","","apple","2","0"
"html-keyboard-response","128","686471","0.0-9.0-2.0-0.21","1580","2","2","""event"",""trial"",""time""
""fullscreenenter"",""1"",""5289""
","
","
","""event"",""trial"",""time""
""fullscreenenter"",""1"",""5289""
","
","","","","","","null","<div style=""font-size:60px;"">+</div>","null","","fixation","","","","","","","","","","","","","",""
"learning-trial","129","690473","0.0-9.0-2.0-1.21","1580","2","2","""event"",""trial"",""time""
""fullscreenenter"",""1"",""5289""
","
","
","""event"",""trial"",""time""
""fullscreenenter"",""1"",""5289""
","
","","","","","","144","images/banana4.png","","","learning","images/fruit_choice2.png","images/fruit_choice3.png","images/fruit_choice1.png","[1,2,0]","0","2","1","images/fruit_choice2.png","-1","fruit","","banana","2","0"
"html-keyboard-response","130","690974","0.0-9.0-2.0-0.22","1580","2","2","""event"",""trial"",""time""
""fullscreenenter"",""1"",""5289""
","
","
","""event"",""trial"",""time""
""fullscreenenter"",""1"",""5289""
","
","","","","","","null","<div style=""font-size:60px;"">+</div>","null","","fixation","","","","","","","","","","","","","",""
"learning-trial","131","694976","0.0-9.0-2.0-1.22","1580","2","2","""event"",""trial"",""time""
""fullscreenenter"",""1"",""5289""
","
","
","""event"",""trial"",""time""
""fullscreenenter"",""1"",""5289""
","
","","","","","","450","images/apple1.png","","","learning","images/fruit_choice1.png","images/fruit_choice3.png","images/fruit_choice2.png","[0,2,1]","0","0","2","images/fruit_choice3.png","-1","fruit","","apple","2","0"
"html-keyboard-response","132","695477","0.0-9.0-2.0-0.23","1580","2","2","""event"",""trial"",""time""
""fullscreenenter"",""1"",""5289""
","
","
","""event"",""trial"",""time""
""fullscreenenter"",""1"",""5289""
","
","","","","","","null","<div style=""font-size:60px;"">+</div>","null","","fixation","","","","","","","","","","","","","",""
"learning-trial","133","699479","0.0-9.0-2.0-1.23","1580","2","2","""event"",""trial"",""time""
""fullscreenenter"",""1"",""5289""
","
","
","""event"",""trial"",""time""
""fullscreenenter"",""1"",""5289""
","
","","","","","","514","images/apple1.png","","","learning","images/fruit_choice2.png","images/fruit_choice3.png","images/fruit_choice1.png","[1,2,0]","0","2","2","images/fruit_choice3.png","-1","fruit","","apple","2","0"
"html-keyboard-response","134","699980","0.0-9.0-2.0-0.24","1580","2","2","""event"",""trial"",""time""
""fullscreenenter"",""1"",""5289""
","
","
","""event"",""trial"",""time""
""fullscreenenter"",""1"",""5289""
","
","","","","","","null","<div style=""font-size:60px;"">+</div>","null","","fixation","","","","","","","","","","","","","",""
"learning-trial","135","703982","0.0-9.0-2.0-1.24","1580","2","2","""event"",""trial"",""time""
""fullscreenenter"",""1"",""5289""
","
","
","""event"",""trial"",""time""
""fullscreenenter"",""1"",""5289""
","
","","","","","","403","images/apple2.png","","","learning","images/fruit_choice3.png","images/fruit_choice1.png","images/fruit_choice2.png","[2,0,1]","2","0","1","images/fruit_choice3.png","1","fruit","","apple","2","0"
"html-keyboard-response","136","704482","0.0-9.0-2.0-0.25","1580","2","2","""event"",""trial"",""time""
""fullscreenenter"",""1"",""5289""
","
","
","""event"",""trial"",""time""
""fullscreenenter"",""1"",""5289""
","
","","","","","","null","<div style=""font-size:60px;"">+</div>","null","","fixation","","","","","","","","","","","","","",""
"learning-trial","137","708484","0.0-9.0-2.0-1.25","1580","2","2","""event"",""trial"",""time""
""fullscreenenter"",""1"",""5289""
","
","
","""event"",""trial"",""time""
""fullscreenenter"",""1"",""5289""
","
","","","","","","334","images/straw1.png","","","learning","images/fruit_choice3.png","images/fruit_choice1.png","images/fruit_choice2.png","[2,0,1]","0","1","3","images/fruit_choice2.png","-1","fruit","","straw","2","0"
"html-keyboard-response","138","708985","0.0-9.0-2.0-0.26","1580","2","2","""event"",""trial"",""time""
""fullscreenenter"",""1"",""5289""
","
","
","""event"",""trial"",""time""
""fullscreenenter"",""1"",""5289""
","
","","","","","","null","<div style=""font-size:60px;"">+</div>","null","","fixation","","","","","","","","","","","","","",""
"learning-trial","139","712987","0.0-9.0-2.0-1.26","1580","2","2","""event"",""trial"",""time""
""fullscreenenter"",""1"",""5289""
","
","
","""event"",""trial"",""time""
""fullscreenenter"",""1"",""5289""
","
","","","","","","1687","images/apple5.png","","","learning","images/fruit_choice3.png","images/fruit_choice2.png","images/fruit_choice1.png","[2,1,0]","1","1","1","images/fruit_choice3.png","-1","fruit","","apple","2","0"
"html-keyboard-response","140","713487","0.0-9.0-2.0-0.27","1580","2","2","""event"",""trial"",""time""
""fullscreenenter"",""1"",""5289""
","
","
","""event"",""trial"",""time""
""fullscreenenter"",""1"",""5289""
","
","","","","","","null","<div style=""font-size:60px;"">+</div>","null","","fixation","","","","","","","","","","","","","",""
"learning-trial","141","717489","0.0-9.0-2.0-1.27","1580","2","2","""event"",""trial"",""time""
""fullscreenenter"",""1"",""5289""
","
","
","""event"",""trial"",""time""
""fullscreenenter"",""1"",""5289""
","
","","","","","","1024","images/banana1.png","","","learning","images/fruit_choice3.png","images/fruit_choice2.png","images/fruit_choice1.png","[2,1,0]","2","0","2","images/fruit_choice2.png","-1","fruit","","banana","2","0"
"html-keyboard-response","142","717989","0.0-9.0-2.0-0.28","1580","2","2","""event"",""trial"",""time""
""fullscreenenter"",""1"",""5289""
","
","
","""event"",""trial"",""time""
""fullscreenenter"",""1"",""5289""
","
","","","","","","null","<div style=""font-size:60px;"">+</div>","null","","fixation","","","","","","","","","","","","","",""
"learning-trial","143","721993","0.0-9.0-2.0-1.28","1580","2","2","""event"",""trial"",""time""
""fullscreenenter"",""1"",""5289""
","
","
","""event"",""trial"",""time""
""fullscreenenter"",""1"",""5289""
","
","","","","","","1145","images/apple2.png","","","learning","images/fruit_choice2.png","images/fruit_choice3.png","images/fruit_choice1.png","[1,2,0]","2","1","2","images/fruit_choice3.png","1","fruit","","apple","2","0"
"html-keyboard-response","144","722493","0.0-9.0-2.0-0.29","1580","2","2","""event"",""trial"",""time""
""fullscreenenter"",""1"",""5289""
","
","
","""event"",""trial"",""time""
""fullscreenenter"",""1"",""5289""
","
","","","","","","null","<div style=""font-size:60px;"">+</div>","null","","fixation","","","","","","","","","","","","","",""
"learning-trial","145","726496","0.0-9.0-2.0-1.29","1580","2","2","""event"",""trial"",""time""
""fullscreenenter"",""1"",""5289""
","
","
","""event"",""trial"",""time""
""fullscreenenter"",""1"",""5289""
","
","","","","","","930","images/banana5.png","","","learning","images/fruit_choice2.png","images/fruit_choice3.png","images/fruit_choice1.png","[1,2,0]","1","0","1","images/fruit_choice2.png","1","fruit","","banana","2","0"
"html-keyboard-response","146","726996","0.0-9.0-2.0-0.30","1580","2","2","""event"",""trial"",""time""
""fullscreenenter"",""1"",""5289""
","
","
","""event"",""trial"",""time""
""fullscreenenter"",""1"",""5289""
","
","","","","","","null","<div style=""font-size:60px;"">+</div>","null","","fixation","","","","","","","","","","","","","",""
"learning-trial","147","730997","0.0-9.0-2.0-1.30","1580","2","2","""event"",""trial"",""time""
""fullscreenenter"",""1"",""5289""
","
","
","""event"",""trial"",""time""
""fullscreenenter"",""1"",""5289""
","
","","","","","","1044","images/banana5.png","","","learning","images/fruit_choice2.png","images/fruit_choice3.png","images/fruit_choice1.png","[1,2,0]","1","0","1","images/fruit_choice2.png","1","fruit","","banana","2","0"
"html-keyboard-response","148","731498","0.0-9.0-2.0-0.31","1580","2","2","""event"",""trial"",""time""
""fullscreenenter"",""1"",""5289""
","
","
","""event"",""trial"",""time""
""fullscreenenter"",""1"",""5289""
","
","","","","","","null","<div style=""font-size:60px;"">+</div>","null","","fixation","","","","","","","","","","","","","",""
"learning-trial","149","735500","0.0-9.0-2.0-1.31","1580","2","2","""event"",""trial"",""time""
""fullscreenenter"",""1"",""5289""
","
","
","""event"",""trial"",""time""
""fullscreenenter"",""1"",""5289""
","
","","","","","","629","images/banana1.png","","","learning","images/fruit_choice2.png","images/fruit_choice3.png","images/fruit_choice1.png","[1,2,0]","2","1","3","images/fruit_choice1.png","-1","fruit","","banana","2","0"
"html-keyboard-response","150","736001","0.0-9.0-2.0-0.32","1580","2","2","""event"",""trial"",""time""
""fullscreenenter"",""1"",""5289""
","
","
","""event"",""trial"",""time""
""fullscreenenter"",""1"",""5289""
","
","","","","","","null","<div style=""font-size:60px;"">+</div>","null","","fixation","","","","","","","","","","","","","",""
"learning-trial","151","740003","0.0-9.0-2.0-1.32","1580","2","2","""event"",""trial"",""time""
""fullscreenenter"",""1"",""5289""
","
","
","""event"",""trial"",""time""
""fullscreenenter"",""1"",""5289""
","
","","","","","","829","images/straw4.png","","","learning","images/fruit_choice3.png","images/fruit_choice2.png","images/fruit_choice1.png","[2,1,0]","1","1","2","images/fruit_choice2.png","1","fruit","","straw","2","0"
"html-keyboard-response","152","740504","0.0-9.0-2.0-0.33","1580","2","2","""event"",""trial"",""time""
""fullscreenenter"",""1"",""5289""
","
","
","""event"",""trial"",""time""
""fullscreenenter"",""1"",""5289""
","
","","","","","","null","<div style=""font-size:60px;"">+</div>","null","","fixation","","","","","","","","","","","","","",""
"learning-trial","153","744506","0.0-9.0-2.0-1.33","1580","2","2","""event"",""trial"",""time""
""fullscreenenter"",""1"",""5289""
","
","
","""event"",""trial"",""time""
""fullscreenenter"",""1"",""5289""
","
","","","","","","687","images/apple5.png","","","learning","images/fruit_choice1.png","images/fruit_choice3.png","images/fruit_choice2.png","[0,2,1]","1","2","1","images/fruit_choice1.png","-1","fruit","","apple","2","0"
"html-keyboard-response","154","745006","0.0-9.0-2.0-0.34","1580","2","2","""event"",""trial"",""time""
""fullscreenenter"",""1"",""5289""
","
","
","""event"",""trial"",""time""
""fullscreenenter"",""1"",""5289""
","
","","","","","","null","<div style=""font-size:60px;"">+</div>","null","","fixation","","","","","","","","","","","","","",""
"learning-trial","155","749008","0.0-9.0-2.0-1.34","1580","2","2","""event"",""trial"",""time""
""fullscreenenter"",""1"",""5289""
","
","
","""event"",""trial"",""time""
""fullscreenenter"",""1"",""5289""
","
","","","","","","705","images/apple2.png","","","learning","images/fruit_choice1.png","images/fruit_choice2.png","images/fruit_choice3.png","[0,1,2]","2","2","3","images/fruit_choice3.png","1","fruit","","apple","2","0"
"html-keyboard-response","156","749509","0.0-9.0-2.0-0.35","1580","2","2","""event"",""trial"",""time""
""fullscreenenter"",""1"",""5289""
","
","
","""event"",""trial"",""time""
""fullscreenenter"",""1"",""5289""
","
","","","","","","null","<div style=""font-size:60px;"">+</div>","null","","fixation","","","","","","","","","","","","","",""
"learning-trial","157","753511","0.0-9.0-2.0-1.35","1580","2","2","""event"",""trial"",""time""
""fullscreenenter"",""1"",""5289""
","
","
","""event"",""trial"",""time""
""fullscreenenter"",""1"",""5289""
","
","","","","","","497","images/banana4.png","","","learning","images/fruit_choice2.png","images/fruit_choice1.png","images/fruit_choice3.png","[1,0,2]","0","1","2","images/fruit_choice1.png","1","fruit","","banana","2","0"
"html-keyboard-response","158","754012","0.0-9.0-2.0-0.36","1580","2","2","""event"",""trial"",""time""
""fullscreenenter"",""1"",""5289""
","
","
","""event"",""trial"",""time""
""fullscreenenter"",""1"",""5289""
","
","","","","","","null","<div style=""font-size:60px;"">+</div>","null","","fixation","","","","","","","","","","","","","",""
"learning-trial","159","758014","0.0-9.0-2.0-1.36","1580","2","2","""event"",""trial"",""time""
""fullscreenenter"",""1"",""5289""
","
","
","""event"",""trial"",""time""
""fullscreenenter"",""1"",""5289""
","
","","","","","","410","images/straw3.png","","","learning","images/fruit_choice1.png","images/fruit_choice3.png","images/fruit_choice2.png","[0,2,1]","2","1","3","images/fruit_choice2.png","-1","fruit","","straw","2","0"
"html-keyboard-response","160","758515","0.0-9.0-2.0-0.37","1580","2","2","""event"",""trial"",""time""
""fullscreenenter"",""1"",""5289""
","
","
","""event"",""trial"",""time""
""fullscreenenter"",""1"",""5289""
","
","","","","","","null","<div style=""font-size:60px;"">+</div>","null","","fixation","","","","","","","","","","","","","",""
"learning-trial","161","762517","0.0-9.0-2.0-1.37","1580","2","2","""event"",""trial"",""time""
""fullscreenenter"",""1"",""5289""
","
","
","""event"",""trial"",""time""
""fullscreenenter"",""1"",""5289""
","
","","","","","","604","images/apple5.png","","","learning","images/fruit_choice2.png","images/fruit_choice1.png","images/fruit_choice3.png","[1,0,2]","1","0","1","images/fruit_choice2.png","1","fruit","","apple","2","0"
"html-keyboard-response","162","763018","0.0-9.0-2.0-0.38","1580","2","2","""event"",""trial"",""time""
""fullscreenenter"",""1"",""5289""
","
","
","""event"",""trial"",""time""
""fullscreenenter"",""1"",""5289""
","
","","","","","","null","<div style=""font-size:60px;"">+</div>","null","","fixation","","","","","","","","","","","","","",""
"learning-trial","163","767020","0.0-9.0-2.0-1.38","1580","2","2","""event"",""trial"",""time""
""fullscreenenter"",""1"",""5289""
","
","
","""event"",""trial"",""time""
""fullscreenenter"",""1"",""5289""
","
","","","","","","436","images/straw4.png","","","learning","images/fruit_choice1.png","images/fruit_choice3.png","images/fruit_choice2.png","[0,2,1]","1","2","3","images/fruit_choice2.png","1","fruit","","straw","2","0"
"html-keyboard-response","164","767522","0.0-9.0-2.0-0.39","1580","2","2","""event"",""trial"",""time""
""fullscreenenter"",""1"",""5289""
","
","
","""event"",""trial"",""time""
""fullscreenenter"",""1"",""5289""
","
","","","","","","null","<div style=""font-size:60px;"">+</div>","null","","fixation","","","","","","","","","","","","","",""
"learning-trial","165","771524","0.0-9.0-2.0-1.39","1580","2","2","""event"",""trial"",""time""
""fullscreenenter"",""1"",""5289""
","
","
","""event"",""trial"",""time""
""fullscreenenter"",""1"",""5289""
","
","","","","","","108","images/straw1.png","","","learning","images/fruit_choice3.png","images/fruit_choice2.png","images/fruit_choice1.png","[2,1,0]","0","2","2","images/fruit_choice2.png","1","fruit","","straw","2","0"
"html-keyboard-response","166","772025","0.0-9.0-2.0-0.40","1580","2","2","""event"",""trial"",""time""
""fullscreenenter"",""1"",""5289""
","
","
","""event"",""trial"",""time""
""fullscreenenter"",""1"",""5289""
","
","","","","","","null","<div style=""font-size:60px;"">+</div>","null","","fixation","","","","","","","","","","","","","",""
"learning-trial","167","776027","0.0-9.0-2.0-1.40","1580","2","2","""event"",""trial"",""time""
""fullscreenenter"",""1"",""5289""
","
","
","""event"",""trial"",""time""
""fullscreenenter"",""1"",""5289""
","
","","","","","","661","images/straw3.png","","","learning","images/fruit_choice3.png","images/fruit_choice2.png","images/fruit_choice1.png","[2,1,0]","2","0","2","images/fruit_choice2.png","-1","fruit","","straw","2","0"
"html-keyboard-response","168","776527","0.0-9.0-2.0-0.41","1580","2","2","""event"",""trial"",""time""
""fullscreenenter"",""1"",""5289""
","
","
","""event"",""trial"",""time""
""fullscreenenter"",""1"",""5289""
","
","","","","","","null","<div style=""font-size:60px;"">+</div>","null","","fixation","","","","","","","","","","","","","",""
"learning-trial","169","780529","0.0-9.0-2.0-1.41","1580","2","2","""event"",""trial"",""time""
""fullscreenenter"",""1"",""5289""
","
","
","""event"",""trial"",""time""
""fullscreenenter"",""1"",""5289""
","
","","","","","","976","images/banana1.png","","","learning","images/fruit_choice2.png","images/fruit_choice3.png","images/fruit_choice1.png","[1,2,0]","2","1","1","images/fruit_choice2.png","-1","fruit","","banana","2","0"
"html-keyboard-response","170","781030","0.0-9.0-2.0-0.42","1580","2","2","""event"",""trial"",""time""
""fullscreenenter"",""1"",""5289""
","
","
","""event"",""trial"",""time""
""fullscreenenter"",""1"",""5289""
","
","","","","","","null","<div style=""font-size:60px;"">+</div>","null","","fixation","","","","","","","","","","","","","",""
"learning-trial","171","785032","0.0-9.0-2.0-1.42","1580","2","2","""event"",""trial"",""time""
""fullscreenenter"",""1"",""5289""
","
","
","""event"",""trial"",""time""
""fullscreenenter"",""1"",""5289""
","
","","","","","","1544","images/banana5.png","","","learning","images/fruit_choice2.png","images/fruit_choice3.png","images/fruit_choice1.png","[1,2,0]","1","0","1","images/fruit_choice2.png","1","fruit","","banana","2","0"
"html-keyboard-response","172","785533","0.0-9.0-2.0-0.43","1580","2","2","""event"",""trial"",""time""
""fullscreenenter"",""1"",""5289""
","
","
","""event"",""trial"",""time""
""fullscreenenter"",""1"",""5289""
","
","","","","","","null","<div style=""font-size:60px;"">+</div>","null","","fixation","","","","","","","","","","","","","",""
"learning-trial","173","789535","0.0-9.0-2.0-1.43","1580","2","2","""event"",""trial"",""time""
""fullscreenenter"",""1"",""5289""
","
","
","""event"",""trial"",""time""
""fullscreenenter"",""1"",""5289""
","
","","","","","","794","images/banana4.png","","","learning","images/fruit_choice2.png","images/fruit_choice1.png","images/fruit_choice3.png","[1,0,2]","0","1","1","images/fruit_choice2.png","-1","fruit","","banana","2","0"
"html-keyboard-response","174","790037","0.0-9.0-2.0-0.44","1580","2","2","""event"",""trial"",""time""
""fullscreenenter"",""1"",""5289""
","
","
","""event"",""trial"",""time""
""fullscreenenter"",""1"",""5289""
","
","","","","","","null","<div style=""font-size:60px;"">+</div>","null","","fixation","","","","","","","","","","","","","",""
"learning-trial","175","794039","0.0-9.0-2.0-1.44","1580","2","2","""event"",""trial"",""time""
""fullscreenenter"",""1"",""5289""
","
","
","""event"",""trial"",""time""
""fullscreenenter"",""1"",""5289""
","
","","","","","","1266","images/banana1.png","","","learning","images/fruit_choice1.png","images/fruit_choice3.png","images/fruit_choice2.png","[0,2,1]","2","1","3","images/fruit_choice2.png","-1","fruit","","banana","2","0"
"html-keyboard-response","176","794540","0.0-9.0-2.0-0.45","1580","2","2","""event"",""trial"",""time""
""fullscreenenter"",""1"",""5289""
","
","
","""event"",""trial"",""time""
""fullscreenenter"",""1"",""5289""
","
","","","","","","null","<div style=""font-size:60px;"">+</div>","null","","fixation","","","","","","","","","","","","","",""
"learning-trial","177","798542","0.0-9.0-2.0-1.45","1580","2","2","""event"",""trial"",""time""
""fullscreenenter"",""1"",""5289""
","
","
","""event"",""trial"",""time""
""fullscreenenter"",""1"",""5289""
","
","","","","","","2884","images/banana4.png","","","learning","images/fruit_choice1.png","images/fruit_choice2.png","images/fruit_choice3.png","[0,1,2]","0","0","3","images/fruit_choice3.png","-1","fruit","","banana","2","0"
"html-keyboard-response","178","799043","0.0-9.0-2.0-0.46","1580","2","2","""event"",""trial"",""time""
""fullscreenenter"",""1"",""5289""
","
","
","""event"",""trial"",""time""
""fullscreenenter"",""1"",""5289""
","
","","","","","","null","<div style=""font-size:60px;"">+</div>","null","","fixation","","","","","","","","","","","","","",""
"learning-trial","179","803046","0.0-9.0-2.0-1.46","1580","2","2","""event"",""trial"",""time""
""fullscreenenter"",""1"",""5289""
","
","
","""event"",""trial"",""time""
""fullscreenenter"",""1"",""5289""
","
","","","","","","1059","images/straw1.png","","","learning","images/fruit_choice3.png","images/fruit_choice1.png","images/fruit_choice2.png","[2,0,1]","0","1","1","images/fruit_choice3.png","-1","fruit","","straw","2","0"
"html-keyboard-response","180","803547","0.0-9.0-2.0-0.47","1580","2","2","""event"",""trial"",""time""
""fullscreenenter"",""1"",""5289""
","
","
","""event"",""trial"",""time""
""fullscreenenter"",""1"",""5289""
","
","","","","","","null","<div style=""font-size:60px;"">+</div>","null","","fixation","","","","","","","","","","","","","",""
"learning-trial","181","807549","0.0-9.0-2.0-1.47","1580","2","2","""event"",""trial"",""time""
""fullscreenenter"",""1"",""5289""
","
","
","""event"",""trial"",""time""
""fullscreenenter"",""1"",""5289""
","
","","","","","","444","images/banana4.png","","","learning","images/fruit_choice3.png","images/fruit_choice1.png","images/fruit_choice2.png","[2,0,1]","0","1","2","images/fruit_choice1.png","1","fruit","","banana","2","0"
"html-keyboard-response","182","808050","0.0-9.0-2.0-0.48","1580","2","2","""event"",""trial"",""time""
""fullscreenenter"",""1"",""5289""
","
","
","""event"",""trial"",""time""
""fullscreenenter"",""1"",""5289""
","
","","","","","","null","<div style=""font-size:60px;"">+</div>","null","","fixation","","","","","","","","","","","","","",""
"learning-trial","183","812052","0.0-9.0-2.0-1.48","1580","2","2","""event"",""trial"",""time""
""fullscreenenter"",""1"",""5289""
","
","
","""event"",""trial"",""time""
""fullscreenenter"",""1"",""5289""
","
","","","","","","717","images/straw1.png","","","learning","images/fruit_choice2.png","images/fruit_choice3.png","images/fruit_choice1.png","[1,2,0]","0","2","1","images/fruit_choice2.png","-1","fruit","","straw","2","0"
"html-keyboard-response","184","812553","0.0-9.0-2.0-0.49","1580","2","2","""event"",""trial"",""time""
""fullscreenenter"",""1"",""5289""
","
","
","""event"",""trial"",""time""
""fullscreenenter"",""1"",""5289""
","
","","","","","","null","<div style=""font-size:60px;"">+</div>","null","","fixation","","","","","","","","","","","","","",""
"learning-trial","185","816558","0.0-9.0-2.0-1.49","1580","2","2","""event"",""trial"",""time""
""fullscreenenter"",""1"",""5289""
","
","
","""event"",""trial"",""time""
""fullscreenenter"",""1"",""5289""
","
","","","","","","204","images/banana1.png","","","learning","images/fruit_choice1.png","images/fruit_choice2.png","images/fruit_choice3.png","[0,1,2]","2","2","2","images/fruit_choice2.png","-1","fruit","","banana","2","0"
"html-keyboard-response","186","817059","0.0-9.0-2.0-0.50","1580","2","2","""event"",""trial"",""time""
""fullscreenenter"",""1"",""5289""
","
","
","""event"",""trial"",""time""
""fullscreenenter"",""1"",""5289""
","
","","","","","","null","<div style=""font-size:60px;"">+</div>","null","","fixation","","","","","","","","","","","","","",""
"learning-trial","187","821061","0.0-9.0-2.0-1.50","1580","2","2","""event"",""trial"",""time""
""fullscreenenter"",""1"",""5289""
","
","
","""event"",""trial"",""time""
""fullscreenenter"",""1"",""5289""
","
","","","","","","244","images/straw1.png","","","learning","images/fruit_choice1.png","images/fruit_choice2.png","images/fruit_choice3.png","[0,1,2]","0","0","3","images/fruit_choice3.png","-1","fruit","","straw","2","0"
"html-keyboard-response","188","821562","0.0-9.0-2.0-0.51","1580","2","2","""event"",""trial"",""time""
""fullscreenenter"",""1"",""5289""
","
","
","""event"",""trial"",""time""
""fullscreenenter"",""1"",""5289""
","
","","","","","","null","<div style=""font-size:60px;"">+</div>","null","","fixation","","","","","","","","","","","","","",""
"learning-trial","189","825565","0.0-9.0-2.0-1.51","1580","2","2","""event"",""trial"",""time""
""fullscreenenter"",""1"",""5289""
","
","
","""event"",""trial"",""time""
""fullscreenenter"",""1"",""5289""
","
","","","","","","836","images/banana1.png","","","learning","images/fruit_choice3.png","images/fruit_choice1.png","images/fruit_choice2.png","[2,0,1]","2","0","1","images/fruit_choice3.png","1","fruit","","banana","2","0"
"html-keyboard-response","190","826066","0.0-9.0-2.0-0.52","1580","2","2","""event"",""trial"",""time""
""fullscreenenter"",""1"",""5289""
","
","
","""event"",""trial"",""time""
""fullscreenenter"",""1"",""5289""
","
","","","","","","null","<div style=""font-size:60px;"">+</div>","null","","fixation","","","","","","","","","","","","","",""
"learning-trial","191","830068","0.0-9.0-2.0-1.52","1580","2","2","""event"",""trial"",""time""
""fullscreenenter"",""1"",""5289""
","
","
","""event"",""trial"",""time""
""fullscreenenter"",""1"",""5289""
","
","","","","","","933","images/apple2.png","","","learning","images/fruit_choice3.png","images/fruit_choice2.png","images/fruit_choice1.png","[2,1,0]","2","0","2","images/fruit_choice2.png","-1","fruit","","apple","2","0"
"html-keyboard-response","192","830569","0.0-9.0-2.0-0.53","1580","2","2","""event"",""trial"",""time""
""fullscreenenter"",""1"",""5289""
","
","
","""event"",""trial"",""time""
""fullscreenenter"",""1"",""5289""
","
","","","","","","null","<div style=""font-size:60px;"">+</div>","null","","fixation","","","","","","","","","","","","","",""
"learning-trial","193","834571","0.0-9.0-2.0-1.53","1580","2","2","""event"",""trial"",""time""
""fullscreenenter"",""1"",""5289""
","
","
","""event"",""trial"",""time""
""fullscreenenter"",""1"",""5289""
","
","","","","","","1519","images/apple1.png","","","learning","images/fruit_choice2.png","images/fruit_choice3.png","images/fruit_choice1.png","[1,2,0]","0","2","1","images/fruit_choice2.png","-1","fruit","","apple","2","0"
"html-keyboard-response","194","835072","0.0-9.0-2.0-0.54","1580","2","2","""event"",""trial"",""time""
""fullscreenenter"",""1"",""5289""
","
","
","""event"",""trial"",""time""
""fullscreenenter"",""1"",""5289""
","
","","","","","","null","<div style=""font-size:60px;"">+</div>","null","","fixation","","","","","","","","","","","","","",""
"learning-trial","195","839075","0.0-9.0-2.0-1.54","1580","2","2","""event"",""trial"",""time""
""fullscreenenter"",""1"",""5289""
","
","
","""event"",""trial"",""time""
""fullscreenenter"",""1"",""5289""
","
","","","","","","590","images/banana5.png","","","learning","images/fruit_choice3.png","images/fruit_choice1.png","images/fruit_choice2.png","[2,0,1]","1","2","2","images/fruit_choice1.png","-1","fruit","","banana","2","0"
"html-keyboard-response","196","839576","0.0-9.0-2.0-0.55","1580","2","2","""event"",""trial"",""time""
""fullscreenenter"",""1"",""5289""
","
","
","""event"",""trial"",""time""
""fullscreenenter"",""1"",""5289""
","
","","","","","","null","<div style=""font-size:60px;"">+</div>","null","","fixation","","","","","","","","","","","","","",""
"learning-trial","197","843579","0.0-9.0-2.0-1.55","1580","2","2","""event"",""trial"",""time""
""fullscreenenter"",""1"",""5289""
","
","
","""event"",""trial"",""time""
""fullscreenenter"",""1"",""5289""
","
","","","","","","334","images/banana1.png","","","learning","images/fruit_choice3.png","images/fruit_choice1.png","images/fruit_choice2.png","[2,0,1]","2","0","1","images/fruit_choice3.png","1","fruit","","banana","2","0"
"html-keyboard-response","198","844080","0.0-9.0-2.0-0.56","1580","2","2","""event"",""trial"",""time""
""fullscreenenter"",""1"",""5289""
","
","
","""event"",""trial"",""time""
""fullscreenenter"",""1"",""5289""
","
","","","","","","null","<div style=""font-size:60px;"">+</div>","null","","fixation","","","","","","","","","","","","","",""
"learning-trial","199","848083","0.0-9.0-2.0-1.56","1580","2","2","""event"",""trial"",""time""
""fullscreenenter"",""1"",""5289""
","
","
","""event"",""trial"",""time""
""fullscreenenter"",""1"",""5289""
","
","","","","","","903","images/apple1.png","","","learning","images/fruit_choice1.png","images/fruit_choice3.png","images/fruit_choice2.png","[0,2,1]","0","0","2","images/fruit_choice3.png","-1","fruit","","apple","2","0"
"html-keyboard-response","200","848584","0.0-9.0-2.0-0.57","1580","2","2","""event"",""trial"",""time""
""fullscreenenter"",""1"",""5289""
","
","
","""event"",""trial"",""time""
""fullscreenenter"",""1"",""5289""
","
","","","","","","null","<div style=""font-size:60px;"">+</div>","null","","fixation","","","","","","","","","","","","","",""
"learning-trial","201","852586","0.0-9.0-2.0-1.57","1580","2","2","""event"",""trial"",""time""
""fullscreenenter"",""1"",""5289""
","
","
","""event"",""trial"",""time""
""fullscreenenter"",""1"",""5289""
","
","","","","","","1031","images/apple1.png","","","learning","images/fruit_choice2.png","images/fruit_choice3.png","images/fruit_choice1.png","[1,2,0]","0","2","3","images/fruit_choice1.png","1","fruit","","apple","2","0"
"html-keyboard-response","202","853087","0.0-9.0-2.0-0.58","1580","2","2","""event"",""trial"",""time""
""fullscreenenter"",""1"",""5289""
","
","
","""event"",""trial"",""time""
""fullscreenenter"",""1"",""5289""
","
","","","","","","null","<div style=""font-size:60px;"">+</div>","null","","fixation","","","","","","","","","","","","","",""
"learning-trial","203","857090","0.0-9.0-2.0-1.58","1580","2","2","""event"",""trial"",""time""
""fullscreenenter"",""1"",""5289""
","
","
","""event"",""trial"",""time""
""fullscreenenter"",""1"",""5289""
","
","","","","","","974","images/straw4.png","","","learning","images/fruit_choice2.png","images/fruit_choice3.png","images/fruit_choice1.png","[1,2,0]","1","0","2","images/fruit_choice3.png","-1","fruit","","straw","2","0"
"html-keyboard-response","204","857591","0.0-9.0-2.0-0.59","1580","2","2","""event"",""trial"",""time""
""fullscreenenter"",""1"",""5289""
","
","
","""event"",""trial"",""time""
""fullscreenenter"",""1"",""5289""
","
","","","","","","null","<div style=""font-size:60px;"">+</div>","null","","fixation","","","","","","","","","","","","","",""
"learning-trial","205","861593","0.0-9.0-2.0-1.59","1580","2","2","""event"",""trial"",""time""
""fullscreenenter"",""1"",""5289""
","
","
","""event"",""trial"",""time""
""fullscreenenter"",""1"",""5289""
","
","","","","","","1095","images/straw3.png","","","learning","images/fruit_choice2.png","images/fruit_choice3.png","images/fruit_choice1.png","[1,2,0]","2","1","1","images/fruit_choice2.png","-1","fruit","","straw","2","0"
"html-keyboard-response","206","862094","0.0-9.0-2.0-0.60","1580","2","2","""event"",""trial"",""time""
""fullscreenenter"",""1"",""5289""
","
","
","""event"",""trial"",""time""
""fullscreenenter"",""1"",""5289""
","
","","","","","","null","<div style=""font-size:60px;"">+</div>","null","","fixation","","","","","","","","","","","","","",""
"learning-trial","207","866096","0.0-9.0-2.0-1.60","1580","2","2","""event"",""trial"",""time""
""fullscreenenter"",""1"",""5289""
","
","
","""event"",""trial"",""time""
""fullscreenenter"",""1"",""5289""
","
","","","","","","1585","images/banana4.png","","","learning","images/fruit_choice1.png","images/fruit_choice2.png","images/fruit_choice3.png","[0,1,2]","0","0","2","images/fruit_choice2.png","-1","fruit","","banana","2","0"
"html-keyboard-response","208","866596","0.0-9.0-2.0-0.61","1580","2","2","""event"",""trial"",""time""
""fullscreenenter"",""1"",""5289""
","
","
","""event"",""trial"",""time""
""fullscreenenter"",""1"",""5289""
","
","","","","","","null","<div style=""font-size:60px;"">+</div>","null","","fixation","","","","","","","","","","","","","",""
"learning-trial","209","870598","0.0-9.0-2.0-1.61","1580","2","2","""event"",""trial"",""time""
""fullscreenenter"",""1"",""5289""
","
","
","""event"",""trial"",""time""
""fullscreenenter"",""1"",""5289""
","
","","","","","","419","images/straw4.png","","","learning","images/fruit_choice3.png","images/fruit_choice1.png","images/fruit_choice2.png","[2,0,1]","1","2","3","images/fruit_choice2.png","1","fruit","","straw","2","0"
"html-keyboard-response","210","871099","0.0-9.0-2.0-0.62","1580","2","2","""event"",""trial"",""time""
""fullscreenenter"",""1"",""5289""
","
","
","""event"",""trial"",""time""
""fullscreenenter"",""1"",""5289""
","
","","","","","","null","<div style=""font-size:60px;"">+</div>","null","","fixation","","","","","","","","","","","","","",""
"learning-trial","211","875101","0.0-9.0-2.0-1.62","1580","2","2","""event"",""trial"",""time""
""fullscreenenter"",""1"",""5289""
","
","
","""event"",""trial"",""time""
""fullscreenenter"",""1"",""5289""
","
","","","","","","435","images/banana5.png","","","learning","images/fruit_choice2.png","images/fruit_choice3.png","images/fruit_choice1.png","[1,2,0]","1","0","2","images/fruit_choice3.png","-1","fruit","","banana","2","0"
"html-keyboard-response","212","875602","0.0-9.0-2.0-0.63","1580","2","2","""event"",""trial"",""time""
""fullscreenenter"",""1"",""5289""
","
","
","""event"",""trial"",""time""
""fullscreenenter"",""1"",""5289""
","
","","","","","","null","<div style=""font-size:60px;"">+</div>","null","","fixation","","","","","","","","","","","","","",""
"learning-trial","213","879604","0.0-9.0-2.0-1.63","1580","2","2","""event"",""trial"",""time""
""fullscreenenter"",""1"",""5289""
","
","
","""event"",""trial"",""time""
""fullscreenenter"",""1"",""5289""
","
","","","","","","52","images/straw4.png","","","learning","images/fruit_choice2.png","images/fruit_choice1.png","images/fruit_choice3.png","[1,0,2]","1","0","3","images/fruit_choice3.png","-1","fruit","","straw","2","0"
"html-keyboard-response","214","880104","0.0-9.0-2.0-0.64","1580","2","2","""event"",""trial"",""time""
""fullscreenenter"",""1"",""5289""
","
","
","""event"",""trial"",""time""
""fullscreenenter"",""1"",""5289""
","
","","","","","","null","<div style=""font-size:60px;"">+</div>","null","","fixation","","","","","","","","","","","","","",""
"learning-trial","215","884106","0.0-9.0-2.0-1.64","1580","2","2","""event"",""trial"",""time""
""fullscreenenter"",""1"",""5289""
","
","
","""event"",""trial"",""time""
""fullscreenenter"",""1"",""5289""
","
","","","","","","423","images/banana5.png","","","learning","images/fruit_choice1.png","images/fruit_choice2.png","images/fruit_choice3.png","[0,1,2]","1","1","2","images/fruit_choice2.png","1","fruit","","banana","2","0"
"html-keyboard-response","216","884607","0.0-9.0-2.0-0.65","1580","2","2","""event"",""trial"",""time""
""fullscreenenter"",""1"",""5289""
","
","
","""event"",""trial"",""time""
""fullscreenenter"",""1"",""5289""
","
","","","","","","null","<div style=""font-size:60px;"">+</div>","null","","fixation","","","","","","","","","","","","","",""
"learning-trial","217","888609","0.0-9.0-2.0-1.65","1580","2","2","""event"",""trial"",""time""
""fullscreenenter"",""1"",""5289""
","
","
","""event"",""trial"",""time""
""fullscreenenter"",""1"",""5289""
","
","","","","","","255","images/banana5.png","","","learning","images/fruit_choice3.png","images/fruit_choice2.png","images/fruit_choice1.png","[2,1,0]","1","1","3","images/fruit_choice1.png","-1","fruit","","banana","2","0"
"html-keyboard-response","218","889110","0.0-9.0-2.0-0.66","1580","2","2","""event"",""trial"",""time""
""fullscreenenter"",""1"",""5289""
","
","
","""event"",""trial"",""time""
""fullscreenenter"",""1"",""5289""
","
","","","","","","null","<div style=""font-size:60px;"">+</div>","null","","fixation","","","","","","","","","","","","","",""
"learning-trial","219","893112","0.0-9.0-2.0-1.66","1580","2","2","""event"",""trial"",""time""
""fullscreenenter"",""1"",""5289""
","
","
","""event"",""trial"",""time""
""fullscreenenter"",""1"",""5289""
","
","","","","","","208","images/straw4.png","","","learning","images/fruit_choice1.png","images/fruit_choice3.png","images/fruit_choice2.png","[0,2,1]","1","2","3","images/fruit_choice2.png","1","fruit","","straw","2","0"
"html-keyboard-response","220","893612","0.0-9.0-2.0-0.67","1580","2","2","""event"",""trial"",""time""
""fullscreenenter"",""1"",""5289""
","
","
","""event"",""trial"",""time""
""fullscreenenter"",""1"",""5289""
","
","","","","","","null","<div style=""font-size:60px;"">+</div>","null","","fixation","","","","","","","","","","","","","",""
"learning-trial","221","897614","0.0-9.0-2.0-1.67","1580","2","2","""event"",""trial"",""time""
""fullscreenenter"",""1"",""5289""
","
","
","""event"",""trial"",""time""
""fullscreenenter"",""1"",""5289""
","
","","","","","","242","images/apple2.png","","","learning","images/fruit_choice3.png","images/fruit_choice2.png","images/fruit_choice1.png","[2,1,0]","2","0","3","images/fruit_choice1.png","-1","fruit","","apple","2","0"
"html-keyboard-response","222","898115","0.0-9.0-2.0-0.68","1580","2","2","""event"",""trial"",""time""
""fullscreenenter"",""1"",""5289""
","
","
","""event"",""trial"",""time""
""fullscreenenter"",""1"",""5289""
","
","","","","","","null","<div style=""font-size:60px;"">+</div>","null","","fixation","","","","","","","","","","","","","",""
"learning-trial","223","902117","0.0-9.0-2.0-1.68","1580","2","2","""event"",""trial"",""time""
""fullscreenenter"",""1"",""5289""
","
","
","""event"",""trial"",""time""
""fullscreenenter"",""1"",""5289""
","
","","","","","","196","images/banana5.png","","","learning","images/fruit_choice3.png","images/fruit_choice1.png","images/fruit_choice2.png","[2,0,1]","1","2","2","images/fruit_choice1.png","1","fruit","","banana","2","0"
"html-keyboard-response","224","902617","0.0-9.0-2.0-0.69","1580","2","2","""event"",""trial"",""time""
""fullscreenenter"",""1"",""5289""
","
","
","""event"",""trial"",""time""
""fullscreenenter"",""1"",""5289""
","
","","","","","","null","<div style=""font-size:60px;"">+</div>","null","","fixation","","","","","","","","","","","","","",""
"learning-trial","225","906619","0.0-9.0-2.0-1.69","1580","2","2","""event"",""trial"",""time""
""fullscreenenter"",""1"",""5289""
","
","
","""event"",""trial"",""time""
""fullscreenenter"",""1"",""5289""
","
","","","","","","237","images/straw3.png","","","learning","images/fruit_choice1.png","images/fruit_choice3.png","images/fruit_choice2.png","[0,2,1]","2","1","2","images/fruit_choice3.png","1","fruit","","straw","2","0"
"html-keyboard-response","226","907120","0.0-9.0-2.0-0.70","1580","2","2","""event"",""trial"",""time""
""fullscreenenter"",""1"",""5289""
","
","
","""event"",""trial"",""time""
""fullscreenenter"",""1"",""5289""
","
","","","","","","null","<div style=""font-size:60px;"">+</div>","null","","fixation","","","","","","","","","","","","","",""
"learning-trial","227","911123","0.0-9.0-2.0-1.70","1580","2","2","""event"",""trial"",""time""
""fullscreenenter"",""1"",""5289""
","
","
","""event"",""trial"",""time""
""fullscreenenter"",""1"",""5289""
","
","","","","","","182","images/apple2.png","","","learning","images/fruit_choice3.png","images/fruit_choice1.png","images/fruit_choice2.png","[2,0,1]","2","0","2","images/fruit_choice1.png","-1","fruit","","apple","2","0"
"html-keyboard-response","228","911624","0.0-9.0-2.0-0.71","1580","2","2","""event"",""trial"",""time""
""fullscreenenter"",""1"",""5289""
","
","
","""event"",""trial"",""time""
""fullscreenenter"",""1"",""5289""
","
","","","","","","null","<div style=""font-size:60px;"">+</div>","null","","fixation","","","","","","","","","","","","","",""
"learning-trial","229","915626","0.0-9.0-2.0-1.71","1580","2","2","""event"",""trial"",""time""
""fullscreenenter"",""1"",""5289""
","
","
","""event"",""trial"",""time""
""fullscreenenter"",""1"",""5289""
","
","","","","","","112","images/straw3.png","","","learning","images/fruit_choice1.png","images/fruit_choice2.png","images/fruit_choice3.png","[0,1,2]","2","2","3","images/fruit_choice3.png","1","fruit","","straw","2","0"
"html-button-response","230","918901","0.0-9.0-3.0","1580","2","2","""event"",""trial"",""time""
""fullscreenenter"",""1"",""5289""
","
","
","""event"",""trial"",""time""
""fullscreenenter"",""1"",""5289""
","
","","","","","","3272","<p> You have completed the round! <p> In this round, you earned -8 points! </p>","0","","break","","","","","","","","","","","","","",""
"html-button-response","231","919763","0.0-10.0","1580","2","2","""event"",""trial"",""time""
""fullscreenenter"",""1"",""5289""
","
","
","""event"",""trial"",""time""
""fullscreenenter"",""1"",""5289""
","
","","","","","","860","<p> Now it's time to play another round. </p>","0","","transition_screen","","","","","","","","","","","","","",""
"preload","232","929062","0.0-11.0-0.0","1580","2","2","""event"",""trial"",""time""
""fullscreenenter"",""1"",""5289""
","
","
","""event"",""trial"",""time""
""fullscreenenter"",""1"",""5289""
","
","true","false","[]","[]","[]","","","","","","","","","","","","","","","","","","",""
"learning-instructions","233","940980","0.0-11.0-1.0-0.0","1580","2","2","""event"",""trial"",""time""
""fullscreenenter"",""1"",""5289""
","
","
","""event"",""trial"",""time""
""fullscreenenter"",""1"",""5289""
","
","","","","","","3519","<p> Your goal in this round is to travel the world by putting fuel into different vehicles. </p><p> To travel, you will need to put fuel into many different vehicles. </p></div>","","0","instructions","","","","","","","","","","","","","",""
"learning-instructions","234","950539","0.0-11.0-1.0-0.1","1580","2","2","""event"",""trial"",""time""
""fullscreenenter"",""1"",""5289""
","
","
","""event"",""trial"",""time""
""fullscreenenter"",""1"",""5289""
","
","","","","","","779","<p> On each turn, you will see a picture of one of your vehicles and three different types of fuel.  </p><p> You need to select which kind of fuel to use.  </p>","","0","instructions","","","","","","","","","","","","","",""
"learning-instructions","235","959330","0.0-11.0-1.0-0.2","1580","2","2","""event"",""trial"",""time""
""fullscreenenter"",""1"",""5289""
","
","
","""event"",""trial"",""time""
""fullscreenenter"",""1"",""5289""
","
","","","","","","1931","<p> You can select the fuel on the left by pressing 1, the fuel in the middle by pressing 2, and the fuel on the right by pressing 3. </p><br><div class=""choice-instructions-grid""> <div class=""choice-option""><img src=""images/vehicles_choice1.png"" class=""choice-option-img"" stage=""instructions"" position=""0"" ><div class=""choice-option-text""> Press ""1."" </div></div><div class=""choice-option""><img src=""images/vehicles_choice2.png"" class=""choice-option-img"" stage=""instructions"" position=""1"" ><div class=""choice-option-text""> Press ""2."" </div></div><div class=""choice-option""><img src=""images/vehicles_choice3.png"" class=""choice-option-img"" stage=""instructions"" position=""2"" ><div class=""choice-option-text""> Press ""3."" </div></div></div>","","0","instructions","","","","","","","","","","","","","",""
"learning-instructions","236","964974","0.0-11.0-1.0-0.3","1580","2","2","""event"",""trial"",""time""
""fullscreenenter"",""1"",""5289""
","
","
","""event"",""trial"",""time""
""fullscreenenter"",""1"",""5289""
","
","","","","","","415","<p> If the fuel you chose works for that vehicle, it will start, and </p><p> you will get to travel. </p><div style='float: center;'><img src='images/check.png' width = '200' height = '200'></img>","","0","instructions","","","","","","","","","","","","","",""
"learning-instructions","237","972247","0.0-11.0-1.0-0.4","1580","2","2","""event"",""trial"",""time""
""fullscreenenter"",""1"",""5289""
","
","
","""event"",""trial"",""time""
""fullscreenenter"",""1"",""5289""
","
","","","","","","2743","<p> But, if the fuel you chose does not work, your vehicle will not move. </p><div style='float: center;'><img src='images/x.png' width = '200' height = '200'></img>","","0","instructions","","","","","","","","","","","","","",""
"learning-instructions","238","983474","0.0-11.0-1.0-0.5","1580","2","2","""event"",""trial"",""time""
""fullscreenenter"",""1"",""5289""
","
","
","""event"",""trial"",""time""
""fullscreenenter"",""1"",""5289""
","
","","","","","","560","<p> Importantly, each vehicle has a fuel that works best for it. </p><p> If you choose the fuel that works best for the vehicle, it will be more likely to start. </p>","","0","instructions","","","","","","","","","","","","","",""
"learning-instructions","239","995861","0.0-11.0-1.0-0.6","1580","2","2","""event"",""trial"",""time""
""fullscreenenter"",""1"",""5289""
","
","
","""event"",""trial"",""time""
""fullscreenenter"",""1"",""5289""
","
","","","","","","2191","<p> However, even if you choose the best fuel for the vehicle, it may still not move. </p><p> Similarly, even if you choose the <i>wrong</i> fuel, the vehicle may still start and let you travel.","","0","instructions","","","","","","","","","","","","","",""
"learning-instructions","240","1010411","0.0-11.0-1.0-0.7","1580","2","2","""event"",""trial"",""time""
""fullscreenenter"",""1"",""5289""
","
","
","""event"",""trial"",""time""
