"trial_type","trial_index","time_elapsed","internal_node_id","subject_id","condition","task_version","interactions","blur_events","focus_events","fullscreenenter_events","fullscreenexit_events","success","timeout","failed_images","failed_audio","failed_video","rt","stimulus","response","button_pressed","task_part","left_choice","middle_choice","right_choice","choice_positions","correct_response","correct_position","key_press","option_selected","points","task_block","correct","stim_cat","block_condition","block_number"
"pavlovia","0","26","0.0-0.0","1515","1","2","""event"",""trial"",""time""
""fullscreenenter"",""1"",""44349""
","
","
","""event"",""trial"",""time""
""fullscreenenter"",""1"",""44349""
","
","","","","","","","","","","","","","","","","","","","","","","","",""
"fullscreen","1","45257","0.0-1.0","1515","1","2","""event"",""trial"",""time""
""fullscreenenter"",""1"",""44349""
","
","
","""event"",""trial"",""time""
""fullscreenenter"",""1"",""44349""
","
","true","","","","","","","","","","","","","","","","","","","","","","",""
"preload","2","108253","0.0-2.0","1515","1","2","""event"",""trial"",""time""
""fullscreenenter"",""1"",""44349""
","
","
","""event"",""trial"",""time""
""fullscreenenter"",""1"",""44349""
","
","true","false","[]","[]","[]","","","","","","","","","","","","","","","","","","",""
"audio-keyboard-response","3","112785","0.0-3.0","1515","1","2","""event"",""trial"",""time""
""fullscreenenter"",""1"",""44349""
","
","
","""event"",""trial"",""time""
""fullscreenenter"",""1"",""44349""
","
","","","","","","4269.333333333336","audio/beep_loop.wav"," ","","","","","","","","","","","","","","","",""
"audio-button-response","4","166836","0.0-4.0","1515","1","2","""event"",""trial"",""time""
""fullscreenenter"",""1"",""44349""
","
","
","""event"",""trial"",""time""
""fullscreenenter"",""1"",""44349""
","
","","","","","","53888","audio/shark.wav","4","","","","","","","","","","","","","","","",""
"audio-button-response","5","174968","0.0-5.0","1515","1","2","""event"",""trial"",""time""
""fullscreenenter"",""1"",""44349""
","
","
","""event"",""trial"",""time""
""fullscreenenter"",""1"",""44349""
","
","","","","","","6891","audio/turtle.wav","1","","","","","","","","","","","","","","","",""
"preload","6","226489","0.0-6.0","1515","1","2","""event"",""trial"",""time""
""fullscreenenter"",""1"",""44349""
","
","
","""event"",""trial"",""time""
""fullscreenenter"",""1"",""44349""
","
","true","false","[]","[]","[]","","","","","","","","","","","","","","","","","","",""
"html-keyboard-response","7","237070","0.0-7.0","1515","1","2","""event"",""trial"",""time""
""fullscreenenter"",""1"",""44349""
","
","
","""event"",""trial"",""time""
""fullscreenenter"",""1"",""44349""
","
","","","","","","10576.800000011921","Welcome to the experiment. Press any key to begin and to advance the instructions.","control","","","","","","","","","","","","","","","",""
"learning-instructions","8","284873","0.0-8.0-0.0-0.0","1515","1","2","""event"",""trial"",""time""
""fullscreenenter"",""1"",""44349""
","
","
","""event"",""trial"",""time""
""fullscreenenter"",""1"",""44349""
","
","","","","","","39781.69999998808","<p> Welcome! Today you are going to play 6 different rounds of a decision-making game. </p><p> Use the mouse to click next to continue. </p>","","0","instructions","","","","","","","","","","","","","",""
"learning-instructions","9","290066","0.0-8.0-0.0-0.1","1515","1","2","""event"",""trial"",""time""
""fullscreenenter"",""1"",""44349""
","
","
","""event"",""trial"",""time""
""fullscreenenter"",""1"",""44349""
","
","","","","","","2073","<p> You will start with a practice round to learn the rules. </p>","","0","instructions","","","","","","","","","","","","","",""
"learning-instructions","10","299645","0.0-8.0-0.0-0.2","1515","1","2","""event"",""trial"",""time""
""fullscreenenter"",""1"",""44349""
","
","
","""event"",""trial"",""time""
""fullscreenenter"",""1"",""44349""
","
","","","","","","1831.1000000089407","<p> Your goal in this round is to deliver sports equipment to three different parks. </p><p> You will need to deliver many types of equipment. </p></div>","","0","instructions","","","","","","","","","","","","","",""
"learning-instructions","11","310629","0.0-8.0-0.0-0.3","1515","1","2","""event"",""trial"",""time""
""fullscreenenter"",""1"",""44349""
","
","
","""event"",""trial"",""time""
""fullscreenenter"",""1"",""44349""
","
","","","","","","2504.7999999970198","<p> On each turn, you will see one piece of sports equipment and three different parks.  </p><p> You need to select which park to deliver the equipment to.  </p>","","0","instructions","","","","","","","","","","","","","",""
"learning-instructions","12","333520","0.0-8.0-0.0-0.4","1515","1","2","""event"",""trial"",""time""
""fullscreenenter"",""1"",""44349""
","
","
","""event"",""trial"",""time""
""fullscreenenter"",""1"",""44349""
","
","","","","","","9603.70000000298","<p> You can select the park on the left by pressing the '1' key on your keyboard. <br>You can select the park in the middle by pressing the '2' key on your keyboard. <br>You can select the park on the right by pressing the '3' key on your keyboard.  </p><br><div class=""choice-instructions-grid""> <div class=""choice-option""><img src=""images/park1.png"" class=""choice-option-img"" stage=""instructions"" position=""0"" ><div class=""choice-option-text""> Press ""1."" </div></div><div class=""choice-option""><img src=""images/park2.png"" class=""choice-option-img"" stage=""instructions"" position=""1"" ><div class=""choice-option-text""> Press ""2."" </div></div><div class=""choice-option""><img src=""images/park3.png"" class=""choice-option-img"" stage=""instructions"" position=""2"" ><div class=""choice-option-text""> Press ""3."" </div></div></div>","","0","instructions","","","","","","","","","","","","","",""
"learning-instructions","13","340501","0.0-8.0-0.0-0.5","1515","1","2","""event"",""trial"",""time""
""fullscreenenter"",""1"",""44349""
","
","
","""event"",""trial"",""time""
""fullscreenenter"",""1"",""44349""
","
","","","","","","1598.2000000029802","<p> If the kids in the park you chose like the equipment, they will be very happy! </p><div style='float: center;'><img src='images/check.png' width = '200' height = '200'></img>","","0","instructions","","","","","","","","","","","","","",""
"learning-instructions","14","351853","0.0-8.0-0.0-0.6","1515","1","2","""event"",""trial"",""time""
""fullscreenenter"",""1"",""44349""
","
","
","""event"",""trial"",""time""
""fullscreenenter"",""1"",""44349""
","
","","","","","","5760.5","<p> But, if the kids in the park you chose do not like the equipment, they will be sad. </p><div style='float: center;'><img src='images/x.png' width = '200' height = '200'></img>","","0","instructions","","","","","","","","","","","","","",""
"learning-instructions","15","360941","0.0-8.0-0.0-0.7","1515","1","2","""event"",""trial"",""time""
""fullscreenenter"",""1"",""44349""
","
","
","""event"",""trial"",""time""
""fullscreenenter"",""1"",""44349""
","
","","","","","","2659.7999999970198","<p> Importantly, the kids in each park like some pieces of sports equipment more than others. </p>","","0","instructions","","","","","","","","","","","","","",""
"learning-instructions","16","374943","0.0-8.0-0.0-0.8","1515","1","2","""event"",""trial"",""time""
""fullscreenenter"",""1"",""44349""
","
","
","""event"",""trial"",""time""
""fullscreenenter"",""1"",""44349""
","
","","","","","","7938.699999988079","<p> If you choose the best park for each piece of equipment, the kids there will usually be happy. </p>","","0","instructions","","","","","","","","","","","","","",""
"learning-instructions","17","383386","0.0-8.0-0.0-0.9","1515","1","2","""event"",""trial"",""time""
""fullscreenenter"",""1"",""44349""
","
","
","""event"",""trial"",""time""
""fullscreenenter"",""1"",""44349""
","
","","","","","","1803.199999988079","<p> However, even if you choose the best park for the equipment, the kids may sometimes be sad. </p>","","0","instructions","","","","","","","","","","","","","",""
"learning-instructions","18","392767","0.0-8.0-0.0-0.10","1515","1","2","""event"",""trial"",""time""
""fullscreenenter"",""1"",""44349""
","
","
","""event"",""trial"",""time""
""fullscreenenter"",""1"",""44349""
","
","","","","","","2123","<p> Similarly, even if you choose the <i>wrong</i> park for the equipment, the kids may still be happy sometimes.","","0","instructions","","","","","","","","","","","","","",""
"learning-instructions","19","399593","0.0-8.0-0.0-0.11","1515","1","2","""event"",""trial"",""time""
""fullscreenenter"",""1"",""44349""
","
","
","""event"",""trial"",""time""
""fullscreenenter"",""1"",""44349""
","
","","","","","","1769.7999999970198","<p> For example, the best park for this soccer ball is this one.<div style='float: center;'><img src='images/i1.png' width = '500' height = '268'></img>","","0","instructions","","","","","","","","","","","","","",""
"learning-instructions","20","406184","0.0-8.0-0.0-0.12","1515","1","2","""event"",""trial"",""time""
""fullscreenenter"",""1"",""44349""
","
","
","""event"",""trial"",""time""
""fullscreenenter"",""1"",""44349""
","
","","","","","","1292","<p> Let's see what happens if you choose this park for the soccer ball five times.","","0","instructions","","","","","","","","","","","","","",""
"learning-instructions","21","409873","0.0-8.0-0.0-0.13","1515","1","2","""event"",""trial"",""time""
""fullscreenenter"",""1"",""44349""
","
","
","""event"",""trial"",""time""
""fullscreenenter"",""1"",""44349""
","
","","","","","","1498.4000000059605","<p> The kids are happy.<div style='float: left;'><img src='images/i2.png' width = '640' height = '360'></img>","","0","instructions","","","","","","","","","","","","","",""
"learning-instructions","22","413362","0.0-8.0-0.0-0.14","1515","1","2","""event"",""trial"",""time""
""fullscreenenter"",""1"",""44349""
","
","
","""event"",""trial"",""time""
""fullscreenenter"",""1"",""44349""
","
","","","","","","1318.9000000059605","<p> The kids are happy.<div style='float: left;'><img src='images/i3.png' width = '640' height = '360'></img>","","0","instructions","","","","","","","","","","","","","",""
"learning-instructions","23","416289","0.0-8.0-0.0-0.15","1515","1","2","""event"",""trial"",""time""
""fullscreenenter"",""1"",""44349""
","
","
","""event"",""trial"",""time""
""fullscreenenter"",""1"",""44349""
","
","","","","","","756.7999999970198","<p> The kids are happy.<div style='float: left;'><img src='images/i4.png' width = '640' height = '360'></img>","","0","instructions","","","","","","","","","","","","","",""
"learning-instructions","24","418849","0.0-8.0-0.0-0.16","1515","1","2","""event"",""trial"",""time""
""fullscreenenter"",""1"",""44349""
","
","
","""event"",""trial"",""time""
""fullscreenenter"",""1"",""44349""
","
","","","","","","357.70000000298023","<p> The kids are sad.<div style='float: left;'><img src='images/i5.png' width = '640' height = '360'></img>","","0","instructions","","","","","","","","","","","","","",""
"learning-instructions","25","426557","0.0-8.0-0.0-0.17","1515","1","2","""event"",""trial"",""time""
""fullscreenenter"",""1"",""44349""
","
","
","""event"",""trial"",""time""
""fullscreenenter"",""1"",""44349""
","
","","","","","","5546.29999999702","<p> The kids are happy.<div style='float: left;'><img src='images/i6.png' width = '640' height = '360'></img>","","0","instructions","","","","","","","","","","","","","",""
"learning-instructions","26","435433","0.0-8.0-0.0-0.18","1515","1","2","""event"",""trial"",""time""
""fullscreenenter"",""1"",""44349""
","
","
","""event"",""trial"",""time""
""fullscreenenter"",""1"",""44349""
","
","","","","","","1599.199999988079","<p> As you can see, selecting that park for the soccer ball made the kids happy most of the time, but not all the time.","","0","instructions","","","","","","","","","","","","","",""
"learning-instructions","27","442343","0.0-8.0-0.0-0.19","1515","1","2","""event"",""trial"",""time""
""fullscreenenter"",""1"",""44349""
","
","
","""event"",""trial"",""time""
""fullscreenenter"",""1"",""44349""
","
","","","","","","910","<p> Now let's see what happens if you choose a DIFFERENT park for the soccer ball 5 times.","","0","instructions","","","","","","","","","","","","","",""
"learning-instructions","28","445615","0.0-8.0-0.0-0.20","1515","1","2","""event"",""trial"",""time""
""fullscreenenter"",""1"",""44349""
","
","
","""event"",""trial"",""time""
""fullscreenenter"",""1"",""44349""
","
","","","","","","1072.0999999940395","<p> The kids are sad.<div style='float: left;'><img src='images/i7.png' width = '640' height = '360'></img>","","0","instructions","","","","","","","","","","","","","",""
"learning-instructions","29","448787","0.0-8.0-0.0-0.21","1515","1","2","""event"",""trial"",""time""
""fullscreenenter"",""1"",""44349""
","
","
","""event"",""trial"",""time""
""fullscreenenter"",""1"",""44349""
","
","","","","","","944.5999999940395","<p> The kids are sad.<div style='float: left;'><img src='images/i8.png' width = '640' height = '360'></img>","","0","instructions","","","","","","","","","","","","","",""
"learning-instructions","30","451496","0.0-8.0-0.0-0.22","1515","1","2","""event"",""trial"",""time""
""fullscreenenter"",""1"",""44349""
","
","
","""event"",""trial"",""time""
""fullscreenenter"",""1"",""44349""
","
","","","","","","532.6000000089407","<p> The kids are happy.<div style='float: left;'><img src='images/i9.png' width = '640' height = '360'></img>","","0","instructions","","","","","","","","","","","","","",""
"learning-instructions","31","454277","0.0-8.0-0.0-0.23","1515","1","2","""event"",""trial"",""time""
""fullscreenenter"",""1"",""44349""
","
","
","""event"",""trial"",""time""
""fullscreenenter"",""1"",""44349""
","
","","","","","","573.5999999940395","<p> The kids are sad.<div style='float: left;'><img src='images/i10.png' width = '640' height = '360'></img>","","0","instructions","","","","","","","","","","","","","",""
"learning-instructions","32","457844","0.0-8.0-0.0-0.24","1515","1","2","""event"",""trial"",""time""
""fullscreenenter"",""1"",""44349""
","
","
","""event"",""trial"",""time""
""fullscreenenter"",""1"",""44349""
","
","","","","","","1350.5","<p> The kids are sad.<div style='float: left;'><img src='images/i11.png' width = '640' height = '360'></img>","","0","instructions","","","","","","","","","","","","","",""
"learning-instructions","33","467242","0.0-8.0-0.0-0.25","1515","1","2","""event"",""trial"",""time""
""fullscreenenter"",""1"",""44349""
","
","
","""event"",""trial"",""time""
""fullscreenenter"",""1"",""44349""
","
","","","","","","1270","<p> As you can see, selecting the wrong park for the soccer ball made the kids sad most of the time, but not all the time.","","0","instructions","","","","","","","","","","","","","",""
"learning-instructions","34","476981","0.0-8.0-0.0-0.26","1515","1","2","""event"",""trial"",""time""
""fullscreenenter"",""1"",""44349""
","
","
","""event"",""trial"",""time""
""fullscreenenter"",""1"",""44349""
","
","","","","","","620.2999999970198","<p> The different pieces of equipment belong in different parks. You need to try to learn which is the best park for each piece of equipment.","","0","instructions","","","","","","","","","","","","","",""
"learning-instructions","35","494677","0.0-8.0-0.0-0.27","1515","1","2","""event"",""trial"",""time""
""fullscreenenter"",""1"",""44349""
","
","
","""event"",""trial"",""time""
""fullscreenenter"",""1"",""44349""
","
","","","","","","1314.2000000029802","<p> Try to choose the best park for each piece of equipment, because you will <b> WIN </b> 1 point for each time you make the kids happy and <b>LOSE</b> 1 point for each time you make them sad. </p><p> Remember, if you make the best choice, you will win 1 point most of the time, but not all the time. </p>","","0","instructions","","","","","","","","","","","","","",""
"learning-instructions","36","500825","0.0-8.0-0.0-0.28","1515","1","2","""event"",""trial"",""time""
""fullscreenenter"",""1"",""44349""
","
","
","""event"",""trial"",""time""
""fullscreenenter"",""1"",""44349""
","
","","","","","","661.3999999910593","<p> This is just a practice round, but in the real game, your bonus payment will depend on your total number of points.","","0","instructions","","","","","","","","","","","","","",""
"learning-instructions","37","511716","0.0-8.0-0.0-0.29","1515","1","2","""event"",""trial"",""time""
""fullscreenenter"",""1"",""44349""
","
","
","""event"",""trial"",""time""
""fullscreenenter"",""1"",""44349""
","
","","","","","","573.5999999940395","<p> The position where each park appears will change throughout the game. </p><p> The position where the park appears <i> does not </i> influence how likely the kids are to be happy or sad. </p>","","0","instructions","","","","","","","","","","","","","",""
"learning-instructions","38","646522","0.0-8.0-0.0-0.30","1515","1","2","""event"",""trial"",""time""
""fullscreenenter"",""1"",""44349""
","
","
","""event"",""trial"",""time""
""fullscreenenter"",""1"",""44349""
","
","","","","","","119615.70000000298","<p> You will have 4 seconds to make each choice. Try to respond before time runs out! </p><p> You will lose 1 point each time you do not make a response. </p>","","0","instructions","","","","","","","","","","","","","",""
"learning-instructions","39","655065","0.0-8.0-0.0-0.31","1515","1","2","""event"",""trial"",""time""
""fullscreenenter"",""1"",""44349""
","
","
","""event"",""trial"",""time""
""fullscreenenter"",""1"",""44349""
","
","","","","","","1608.4000000059605","<p> Remember, you should use the 1, 2, and 3 keys to select the park for each piece of equipment. </p><br><div class=""choice-instructions-grid""> <div class=""choice-option""><img src=""images/park1.png"" class=""choice-option-img"" stage=""instructions"" position=""0"" ><div class=""choice-option-text""> Press ""1."" </div></div><div class=""choice-option""><img src=""images/park2.png"" class=""choice-option-img"" stage=""instructions"" position=""1"" ><div class=""choice-option-text""> Press ""2."" </div></div><div class=""choice-option""><img src=""images/park3.png"" class=""choice-option-img"" stage=""instructions"" position=""2"" ><div class=""choice-option-text""> Press ""3."" </div></div></div>","","0","instructions","","","","","","","","","","","","","",""
"html-button-response","40","662859","0.0-8.0-1.0","1515","1","2","""event"",""trial"",""time""
""fullscreenenter"",""1"",""44349""
","
","
","""event"",""trial"",""time""
""fullscreenenter"",""1"",""44349""
","
","","","","","","7690.0999999940395","<p> Ready to practice? </p>","0","","","","","","","","","","","","","","","",""
"html-keyboard-response","41","663462","0.0-8.0-2.0-0.0","1515","1","2","""event"",""trial"",""time""
""fullscreenenter"",""1"",""44349""
","
","
","""event"",""trial"",""time""
""fullscreenenter"",""1"",""44349""
","
","","","","","","null","<div style=""font-size:60px;"">+</div>","null","","fixation","","","","","","","","","","","","","",""
"learning-trial","42","667470","0.0-8.0-2.0-1.0","1515","1","2","""event"",""trial"",""time""
""fullscreenenter"",""1"",""44349""
","
","
","""event"",""trial"",""time""
""fullscreenenter"",""1"",""44349""
","
","","","","","","3844.2000000029802","images/ball3.png","","","practice","images/park2.png","images/park3.png","images/park1.png","[1,2,0]","0","2","1","images/park2.png","-1","practice","","","",""
"html-keyboard-response","43","667999","0.0-8.0-2.0-0.1","1515","1","2","""event"",""trial"",""time""
""fullscreenenter"",""1"",""44349""
","
","
","""event"",""trial"",""time""
""fullscreenenter"",""1"",""44349""
","
","","","","","","null","<div style=""font-size:60px;"">+</div>","null","","fixation","","","","","","","","","","","","","",""
"learning-trial","44","672003","0.0-8.0-2.0-1.1","1515","1","2","""event"",""trial"",""time""
""fullscreenenter"",""1"",""44349""
","
","
","""event"",""trial"",""time""
""fullscreenenter"",""1"",""44349""
","
","","","","","","2994.2000000029802","images/racket1.png","","","practice","images/park2.png","images/park3.png","images/park1.png","[1,2,0]","1","0","3","images/park1.png","-1","practice","","","",""
"html-keyboard-response","45","672517","0.0-8.0-2.0-0.2","1515","1","2","""event"",""trial"",""time""
""fullscreenenter"",""1"",""44349""
","
","
","""event"",""trial"",""time""
""fullscreenenter"",""1"",""44349""
","
","","","","","","null","<div style=""font-size:60px;"">+</div>","null","","fixation","","","","","","","","","","","","","",""
"learning-trial","46","676523","0.0-8.0-2.0-1.2","1515","1","2","""event"",""trial"",""time""
""fullscreenenter"",""1"",""44349""
","
","
","""event"",""trial"",""time""
""fullscreenenter"",""1"",""44349""
","
","","","","","","2960.2000000029802","images/racket4.png","","","practice","images/park2.png","images/park1.png","images/park3.png","[1,0,2]","2","2","2","images/park1.png","-1","practice","","","",""
"html-keyboard-response","47","677024","0.0-8.0-2.0-0.3","1515","1","2","""event"",""trial"",""time""
""fullscreenenter"",""1"",""44349""
","
","
","""event"",""trial"",""time""
""fullscreenenter"",""1"",""44349""
","
","","","","","","null","<div style=""font-size:60px;"">+</div>","null","","fixation","","","","","","","","","","","","","",""
"learning-trial","48","681030","0.0-8.0-2.0-1.3","1515","1","2","""event"",""trial"",""time""
""fullscreenenter"",""1"",""44349""
","
","
","""event"",""trial"",""time""
""fullscreenenter"",""1"",""44349""
","
","","","","","","3358.2999999970198","images/racket4.png","","","practice","images/park2.png","images/park3.png","images/park1.png","[1,2,0]","2","1","1","images/park2.png","-1","practice","","","",""
"html-keyboard-response","49","681531","0.0-8.0-2.0-0.4","1515","1","2","""event"",""trial"",""time""
""fullscreenenter"",""1"",""44349""
","
","
","""event"",""trial"",""time""
""fullscreenenter"",""1"",""44349""
","
","","","","","","null","<div style=""font-size:60px;"">+</div>","null","","fixation","","","","","","","","","","","","","",""
"learning-trial","50","685558","0.0-8.0-2.0-1.4","1515","1","2","""event"",""trial"",""time""
""fullscreenenter"",""1"",""44349""
","
","
","""event"",""trial"",""time""
""fullscreenenter"",""1"",""44349""
","
","","","","","","2809.6000000089407","images/racket1.png","","","practice","images/park3.png","images/park1.png","images/park2.png","[2,0,1]","1","2","2","images/park1.png","-1","practice","","","",""
"html-keyboard-response","51","686066","0.0-8.0-2.0-0.5","1515","1","2","""event"",""trial"",""time""
""fullscreenenter"",""1"",""44349""
","
","
","""event"",""trial"",""time""
""fullscreenenter"",""1"",""44349""
","
","","","","","","null","<div style=""font-size:60px;"">+</div>","null","","fixation","","","","","","","","","","","","","",""
"learning-trial","52","690071","0.0-8.0-2.0-1.5","1515","1","2","""event"",""trial"",""time""
""fullscreenenter"",""1"",""44349""
","
","
","""event"",""trial"",""time""
""fullscreenenter"",""1"",""44349""
","
","","","","","","3227","images/racket2.png","","","practice","images/park2.png","images/park3.png","images/park1.png","[1,2,0]","0","2","2","images/park3.png","-1","practice","","","",""
"html-keyboard-response","53","690573","0.0-8.0-2.0-0.6","1515","1","2","""event"",""trial"",""time""
""fullscreenenter"",""1"",""44349""
","
","
","""event"",""trial"",""time""
""fullscreenenter"",""1"",""44349""
","
","","","","","","null","<div style=""font-size:60px;"">+</div>","null","","fixation","","","","","","","","","","","","","",""
"learning-trial","54","694580","0.0-8.0-2.0-1.6","1515","1","2","""event"",""trial"",""time""
""fullscreenenter"",""1"",""44349""
","
","
","""event"",""trial"",""time""
""fullscreenenter"",""1"",""44349""
","
","","","","","","2212.3999999910593","images/ball4.png","","","practice","images/park1.png","images/park2.png","images/park3.png","[0,1,2]","1","1","1","images/park1.png","-1","practice","","","",""
"html-keyboard-response","55","695094","0.0-8.0-2.0-0.7","1515","1","2","""event"",""trial"",""time""
""fullscreenenter"",""1"",""44349""
","
","
","""event"",""trial"",""time""
""fullscreenenter"",""1"",""44349""
","
","","","","","","null","<div style=""font-size:60px;"">+</div>","null","","fixation","","","","","","","","","","","","","",""
"learning-trial","56","699101","0.0-8.0-2.0-1.7","1515","1","2","""event"",""trial"",""time""
""fullscreenenter"",""1"",""44349""
","
","
","""event"",""trial"",""time""
""fullscreenenter"",""1"",""44349""
","
","","","","","","2044","images/ball3.png","","","practice","images/park1.png","images/park2.png","images/park3.png","[0,1,2]","0","0","2","images/park2.png","-1","practice","","","",""
"html-keyboard-response","57","699603","0.0-8.0-2.0-0.8","1515","1","2","""event"",""trial"",""time""
""fullscreenenter"",""1"",""44349""
","
","
","""event"",""trial"",""time""
""fullscreenenter"",""1"",""44349""
","
","","","","","","null","<div style=""font-size:60px;"">+</div>","null","","fixation","","","","","","","","","","","","","",""
"learning-trial","58","703607","0.0-8.0-2.0-1.8","1515","1","2","""event"",""trial"",""time""
""fullscreenenter"",""1"",""44349""
","
","
","""event"",""trial"",""time""
""fullscreenenter"",""1"",""44349""
","
","","","","","","2431.2999999970198","images/ball2.png","","","practice","images/park3.png","images/park1.png","images/park2.png","[2,0,1]","2","0","2","images/park1.png","-1","practice","","","",""
"html-keyboard-response","59","704109","0.0-8.0-2.0-0.9","1515","1","2","""event"",""trial"",""time""
""fullscreenenter"",""1"",""44349""
","
","
","""event"",""trial"",""time""
""fullscreenenter"",""1"",""44349""
","
","","","","","","null","<div style=""font-size:60px;"">+</div>","null","","fixation","","","","","","","","","","","","","",""
"learning-trial","60","708140","0.0-8.0-2.0-1.9","1515","1","2","""event"",""trial"",""time""
""fullscreenenter"",""1"",""44349""
","
","
","""event"",""trial"",""time""
""fullscreenenter"",""1"",""44349""
","
","","","","","","2060.7999999970198","images/ball2.png","","","practice","images/park2.png","images/park1.png","images/park3.png","[1,0,2]","2","2","2","images/park1.png","-1","practice","","","",""
"html-keyboard-response","61","708642","0.0-8.0-2.0-0.10","1515","1","2","""event"",""trial"",""time""
""fullscreenenter"",""1"",""44349""
","
","
","""event"",""trial"",""time""
""fullscreenenter"",""1"",""44349""
","
","","","","","","null","<div style=""font-size:60px;"">+</div>","null","","fixation","","","","","","","","","","","","","",""
"learning-trial","62","712648","0.0-8.0-2.0-1.10","1515","1","2","""event"",""trial"",""time""
""fullscreenenter"",""1"",""44349""
","
","
","""event"",""trial"",""time""
""fullscreenenter"",""1"",""44349""
","
","","","","","","3185","images/racket2.png","","","practice","images/park3.png","images/park1.png","images/park2.png","[2,0,1]","0","1","1","images/park3.png","-1","practice","","","",""
"html-keyboard-response","63","713152","0.0-8.0-2.0-0.11","1515","1","2","""event"",""trial"",""time""
""fullscreenenter"",""1"",""44349""
","
","
","""event"",""trial"",""time""
""fullscreenenter"",""1"",""44349""
","
","","","","","","null","<div style=""font-size:60px;"">+</div>","null","","fixation","","","","","","","","","","","","","",""
"learning-trial","64","717159","0.0-8.0-2.0-1.11","1515","1","2","""event"",""trial"",""time""
""fullscreenenter"",""1"",""44349""
","
","
","""event"",""trial"",""time""
""fullscreenenter"",""1"",""44349""
","
","","","","","","2688.5","images/ball4.png","","","practice","images/park2.png","images/park1.png","images/park3.png","[1,0,2]","1","0","2","images/park1.png","-1","practice","","","",""
"html-button-response","65","826752","0.0-8.0-3.0","1515","1","2","""event"",""trial"",""time""
""fullscreenenter"",""1"",""44349""
","
","
","""event"",""trial"",""time""
""fullscreenenter"",""1"",""44349""
","
","","","","","","109581.40000000596","<p> You earned -12 points in the practice round! </p>","0","","break","","","","","","","","","","","","","",""
"learning-instructions","66","841481","0.0-8.0-4.0-0.0","1515","1","2","""event"",""trial"",""time""
""fullscreenenter"",""1"",""44349""
","
","
","""event"",""trial"",""time""
""fullscreenenter"",""1"",""44349""
","
","","","","","","6831.899999991059","<p> It's almost time to start the real game. </p><p> Before you start, we're going to ask you a few questions about how the game works. </p>","","0","instructions","","","","","","","","","","","","","",""
"preload","67","851915","0.0-8.0-5.0","1515","1","2","""event"",""trial"",""time""
""fullscreenenter"",""1"",""44349""
","
","
","""event"",""trial"",""time""
""fullscreenenter"",""1"",""44349""
","
","true","false","[]","[]","[]","","","","","","","","","","","","","","","","","","",""
"comp-q","68","865512","0.0-8.0-6.0-0.0","1515","1","2","""event"",""trial"",""time""
""fullscreenenter"",""1"",""44349""
","
","
","""event"",""trial"",""time""
""fullscreenenter"",""1"",""44349""
","
","","","","","","8141","<p> <b> True or False? </b> </p><p> If you choose the best option, you will always earn 1 point. </p>","","1","comp_question","","","","","","","","","","","true","","",""
"comp-q","69","894442","0.0-8.0-6.0-1.0","1515","1","2","""event"",""trial"",""time""
""fullscreenenter"",""1"",""44349""
","
","
","""event"",""trial"",""time""
""fullscreenenter"",""1"",""44349""
","
","","","","","","23262.40000000596","<p><b> That's right! </b> Sometimes you will lose 1 point, even if you choose the best option. </p>","","0","comp_answer","","","","","","","","","","","","","",""
"comp-q","70","914977","0.0-8.0-6.0-0.1","1515","1","2","""event"",""trial"",""time""
""fullscreenenter"",""1"",""44349""
","
","
","""event"",""trial"",""time""
""fullscreenenter"",""1"",""44349""
","
","","","","","","15897.89999999106","<p> <b> True or False? </b> </p><p> You will have as much time as you want to make each choice. </p>","","1","comp_question","","","","","","","","","","","true","","",""
"comp-q","71","922856","0.0-8.0-6.0-1.1","1515","1","2","""event"",""trial"",""time""
""fullscreenenter"",""1"",""44349""
","
","
","""event"",""trial"",""time""
""fullscreenenter"",""1"",""44349""
","
","","","","","","3056.5","<p> <b> That's right! </b> You will only have 4 seconds to make each choice. </p>","","0","comp_answer","","","","","","","","","","","","","",""
"comp-q","72","932167","0.0-8.0-6.0-0.2","1515","1","2","""event"",""trial"",""time""
""fullscreenenter"",""1"",""44349""
","
","
","""event"",""trial"",""time""
""fullscreenenter"",""1"",""44349""
","
","","","","","","3157","<p> <b> True or False? </b> </p><p> You should use the '1', '2', and '3' keys to make your choices. </p>","","0","comp_question","","","","","","","","","","","true","","",""
"comp-q","73","941133","0.0-8.0-6.0-1.2","1515","1","2","""event"",""trial"",""time""
""fullscreenenter"",""1"",""44349""
","
","
","""event"",""trial"",""time""
""fullscreenenter"",""1"",""44349""
","
","","","","","","4123.20000000298","<p> <b> That's right! </b> You should use the '1', '2', and '3' keys to make each choice. </p>","","0","comp_answer","","","","","","","","","","","","","",""
"learning-instructions","74","966712","0.0-8.0-7.0-0.0","1515","1","2","""event"",""trial"",""time""
""fullscreenenter"",""1"",""44349""
","
","
","""event"",""trial"",""time""
""fullscreenenter"",""1"",""44349""
","
","","","","","","17082.59999999404","<p> It's now time to start the real game. </p>Do your best, because the points you earn in the next rounds will influence your bonus payment. </p>","","0","instructions","","","","","","","","","","","","","",""
"preload","75","976810","0.0-9.0-0.0","1515","1","2","""event"",""trial"",""time""
""fullscreenenter"",""1"",""44349""
","
","
","""event"",""trial"",""time""
""fullscreenenter"",""1"",""44349""
","
","true","false","[]","[]","[]","","","","","","","","","","","","","","","","","","",""
"learning-instructions","76","984870","0.0-9.0-1.0-0.0","1515","1","2","""event"",""trial"",""time""
""fullscreenenter"",""1"",""44349""
","
","
","""event"",""trial"",""time""
""fullscreenenter"",""1"",""44349""
","
","","","","","","1601.8999999910593","<p> Your goal in this round is to feed all of your pets with the foods they like. </p><p> You will need to feed many pets. </p></div>","","0","instructions","","","","","","","","","","","","","",""
"learning-instructions","77","994211","0.0-9.0-1.0-0.1","1515","1","2","""event"",""trial"",""time""
""fullscreenenter"",""1"",""44349""
","
","
","""event"",""trial"",""time""
""fullscreenenter"",""1"",""44349""
","
","","","","","","1352.2000000029802","<p> On each turn, you will see a picture of one of your pets and three different types of foods.  </p><p> You need to select the food that you want to give to your pet.  </p>","","0","instructions","","","","","","","","","","","","","",""
"learning-instructions","78","1003229","0.0-9.0-1.0-0.2","1515","1","2","""event"",""trial"",""time""
""fullscreenenter"",""1"",""44349""
","
","
","""event"",""trial"",""time""
""fullscreenenter"",""1"",""44349""
","
","","","","","","2309.3999999910593","<p> You can select the food on the left by pressing 1, the food in the middle by pressing 2, and the food on the right by pressing 3. </p><br><div class=""choice-instructions-grid""> <div class=""choice-option""><img src=""images/pets_choice1.png"" class=""choice-option-img"" stage=""instructions"" position=""0"" ><div class=""choice-option-text""> Press ""1."" </div></div><div class=""choice-option""><img src=""images/pets_choice2.png"" class=""choice-option-img"" stage=""instructions"" position=""1"" ><div class=""choice-option-text""> Press ""2."" </div></div><div class=""choice-option""><img src=""images/pets_choice3.png"" class=""choice-option-img"" stage=""instructions"" position=""2"" ><div class=""choice-option-text""> Press ""3."" </div></div></div>","","0","instructions","","","","","","","","","","","","","",""
"learning-instructions","79","1008583","0.0-9.0-1.0-0.3","1515","1","2","""event"",""trial"",""time""
""fullscreenenter"",""1"",""44349""
","
","
","""event"",""trial"",""time""
""fullscreenenter"",""1"",""44349""
","
","","","","","","1333.6000000089407","<p> If your pet likes the food you chose, it will be very happy! </p><div style='float: center;'><img src='images/check.png' width = '200' height = '200'></img>","","0","instructions","","","","","","","","","","","","","",""
"learning-instructions","80","1014205","0.0-9.0-1.0-0.4","1515","1","2","""event"",""trial"",""time""
""fullscreenenter"",""1"",""44349""
","
","
","""event"",""trial"",""time""
""fullscreenenter"",""1"",""44349""
","
","","","","","","1195.3999999910593","<p> But, if your pet does not like the food you chose, it will feel sick. </p><div style='float: center;'><img src='images/x.png' width = '200' height = '200'></img>","","0","instructions","","","","","","","","","","","","","",""
"learning-instructions","81","1023170","0.0-9.0-1.0-0.5","1515","1","2","""event"",""trial"",""time""
""fullscreenenter"",""1"",""44349""
","
","
","""event"",""trial"",""time""
""fullscreenenter"",""1"",""44349""
","
","","","","","","1311.9000000059605","<p> Importantly, each pet has a food that it prefers. </p><p> If you choose the food that the pet prefers, it will be more likely to be happy! </p>","","0","instructions","","","","","","","","","","","","","",""
"learning-instructions","82","1034833","0.0-9.0-1.0-0.6","1515","1","2","""event"",""trial"",""time""
""fullscreenenter"",""1"",""44349""
","
","
","""event"",""trial"",""time""
""fullscreenenter"",""1"",""44349""
","
","","","","","","2035.4000000059605","<p> However, even if you choose the food the pet prefers, it may still feel sick sometimes. </p><p> Similarly, even if you choose the <i>wrong</i> food, it may still feel happy.","","0","instructions","","","","","","","","","","","","","",""
"learning-instructions","83","1048663","0.0-9.0-1.0-0.7","1515","1","2","""event"",""trial"",""time""
""fullscreenenter"",""1"",""44349""
","
","
","""event"",""trial"",""time""
""fullscreenenter"",""1"",""44349""
","
","","","","","","1025.9000000059605","<p> Try to choose the food each pet prefers, because you will <b> WIN </b> 1 point each time the pet is happy and <b>LOSE</b>  1 point each time the pet feels sick. </p><p> Your bonus payment will depend on your total number of points.","","0","instructions","","","","","","","","","","","","","",""
"learning-instructions","84","1059312","0.0-9.0-1.0-0.8","1515","1","2","""event"",""trial"",""time""
""fullscreenenter"",""1"",""44349""
","
","
","""event"",""trial"",""time""
""fullscreenenter"",""1"",""44349""
","
","","","","","","2032.8999999910593","<p> The position of each food will change throughout the round. </p><p> The food's position <i> does not </i> influence how likely the pet is to feel happy or sick. </p>","","0","instructions","","","","","","","","","","","","","",""
"learning-instructions","85","1069675","0.0-9.0-1.0-0.9","1515","1","2","""event"",""trial"",""time""
""fullscreenenter"",""1"",""44349""
","
","
","""event"",""trial"",""time""
""fullscreenenter"",""1"",""44349""
","
","","","","","","1066.1000000089407","<p> You will have 4 seconds to make each choice. Try to respond before time runs out! </p><p> You will lose 1 point each time you do not make a response. </p>","","0","instructions","","","","","","","","","","","","","",""
"html-keyboard-response","86","1070280","0.0-9.0-2.0-0.0","1515","1","2","""event"",""trial"",""time""
""fullscreenenter"",""1"",""44349""
","
","
","""event"",""trial"",""time""
""fullscreenenter"",""1"",""44349""
","
","","","","","","null","<div style=""font-size:60px;"">+</div>","null","","fixation","","","","","","","","","","","","","",""
"learning-trial","87","1074288","0.0-9.0-2.0-1.0","1515","1","2","""event"",""trial"",""time""
""fullscreenenter"",""1"",""44349""
","
","
","""event"",""trial"",""time""
""fullscreenenter"",""1"",""44349""
","
","","","","","","1974.1000000089407","images/dog3.png","","","learning","images/pets_choice3.png","images/pets_choice1.png","images/pets_choice2.png","[2,0,1]","0","1","1","images/pets_choice3.png","-1","pets","","dog","1","0"
"html-keyboard-response","88","1074790","0.0-9.0-2.0-0.1","1515","1","2","""event"",""trial"",""time""
""fullscreenenter"",""1"",""44349""
","
","
","""event"",""trial"",""time""
""fullscreenenter"",""1"",""44349""
","
","","","","","","null","<div style=""font-size:60px;"">+</div>","null","","fixation","","","","","","","","","","","","","",""
"learning-trial","89","1078798","0.0-9.0-2.0-1.1","1515","1","2","""event"",""trial"",""time""
""fullscreenenter"",""1"",""44349""
","
","
","""event"",""trial"",""time""
""fullscreenenter"",""1"",""44349""
","
","","","","","","1760.8999999910593","images/dog1.png","","","learning","images/pets_choice3.png","images/pets_choice1.png","images/pets_choice2.png","[2,0,1]","0","1","2","images/pets_choice1.png","1","pets","","dog","1","0"
"html-keyboard-response","90","1079300","0.0-9.0-2.0-0.2","1515","1","2","""event"",""trial"",""time""
""fullscreenenter"",""1"",""44349""
","
","
","""event"",""trial"",""time""
""fullscreenenter"",""1"",""44349""
","
","","","","","","null","<div style=""font-size:60px;"">+</div>","null","","fixation","","","","","","","","","","","","","",""
"learning-trial","91","1083308","0.0-9.0-2.0-1.2","1515","1","2","""event"",""trial"",""time""
""fullscreenenter"",""1"",""44349""
","
","
","""event"",""trial"",""time""
""fullscreenenter"",""1"",""44349""
","
","","","","","","1512.0999999940395","images/rodent3.png","","","learning","images/pets_choice2.png","images/pets_choice1.png","images/pets_choice3.png","[1,0,2]","1","0","2","images/pets_choice1.png","-1","pets","","rodent","1","0"
"html-keyboard-response","92","1083811","0.0-9.0-2.0-0.3","1515","1","2","""event"",""trial"",""time""
""fullscreenenter"",""1"",""44349""
","
","
","""event"",""trial"",""time""
""fullscreenenter"",""1"",""44349""
","
","","","","","","null","<div style=""font-size:60px;"">+</div>","null","","fixation","","","","","","","","","","","","","",""
"learning-trial","93","1087819","0.0-9.0-2.0-1.3","1515","1","2","""event"",""trial"",""time""
""fullscreenenter"",""1"",""44349""
","
","
","""event"",""trial"",""time""
""fullscreenenter"",""1"",""44349""
","
","","","","","","1470.0999999940395","images/rabbit1.png","","","learning","images/pets_choice3.png","images/pets_choice1.png","images/pets_choice2.png","[2,0,1]","2","0","3","images/pets_choice2.png","-1","pets","","rabbit","1","0"
"html-keyboard-response","94","1088322","0.0-9.0-2.0-0.4","1515","1","2","""event"",""trial"",""time""
""fullscreenenter"",""1"",""44349""
","
","
","""event"",""trial"",""time""
""fullscreenenter"",""1"",""44349""
","
","","","","","","null","<div style=""font-size:60px;"">+</div>","null","","fixation","","","","","","","","","","","","","",""
"learning-trial","95","1092330","0.0-9.0-2.0-1.4","1515","1","2","""event"",""trial"",""time""
""fullscreenenter"",""1"",""44349""
","
","
","""event"",""trial"",""time""
""fullscreenenter"",""1"",""44349""
","
","","","","","","1579.0999999940395","images/rabbit5.png","","","learning","images/pets_choice1.png","images/pets_choice3.png","images/pets_choice2.png","[0,2,1]","2","1","1","images/pets_choice1.png","-1","pets","","rabbit","1","0"
"html-keyboard-response","96","1092833","0.0-9.0-2.0-0.5","1515","1","2","""event"",""trial"",""time""
""fullscreenenter"",""1"",""44349""
","
","
","""event"",""trial"",""time""
""fullscreenenter"",""1"",""44349""
","
","","","","","","null","<div style=""font-size:60px;"">+</div>","null","","fixation","","","","","","","","","","","","","",""
"learning-trial","97","1096841","0.0-9.0-2.0-1.5","1515","1","2","""event"",""trial"",""time""
""fullscreenenter"",""1"",""44349""
","
","
","""event"",""trial"",""time""
""fullscreenenter"",""1"",""44349""
","
","","","","","","1590.7999999970198","images/dog2.png","","","learning","images/pets_choice2.png","images/pets_choice3.png","images/pets_choice1.png","[1,2,0]","0","2","2","images/pets_choice3.png","-1","pets","","dog","1","0"
"html-keyboard-response","98","1097343","0.0-9.0-2.0-0.6","1515","1","2","""event"",""trial"",""time""
""fullscreenenter"",""1"",""44349""
","
","
","""event"",""trial"",""time""
""fullscreenenter"",""1"",""44349""
","
","","","","","","null","<div style=""font-size:60px;"">+</div>","null","","fixation","","","","","","","","","","","","","",""
"learning-trial","99","1101353","0.0-9.0-2.0-1.6","1515","1","2","""event"",""trial"",""time""
""fullscreenenter"",""1"",""44349""
","
","
","""event"",""trial"",""time""
""fullscreenenter"",""1"",""44349""
","
","","","","","","1534.4000000059605","images/rabbit1.png","","","learning","images/pets_choice3.png","images/pets_choice2.png","images/pets_choice1.png","[2,1,0]","2","0","1","images/pets_choice3.png","1","pets","","rabbit","1","0"
"html-keyboard-response","100","1101855","0.0-9.0-2.0-0.7","1515","1","2","""event"",""trial"",""time""
""fullscreenenter"",""1"",""44349""
","
","
","""event"",""trial"",""time""
""fullscreenenter"",""1"",""44349""
","
","","","","","","null","<div style=""font-size:60px;"">+</div>","null","","fixation","","","","","","","","","","","","","",""
"learning-trial","101","1105864","0.0-9.0-2.0-1.7","1515","1","2","""event"",""trial"",""time""
""fullscreenenter"",""1"",""44349""
","
","
","""event"",""trial"",""time""
""fullscreenenter"",""1"",""44349""
","
","","","","","","1075.5999999940395","images/dog3.png","","","learning","images/pets_choice1.png","images/pets_choice2.png","images/pets_choice3.png","[0,1,2]","0","0","3","images/pets_choice3.png","-1","pets","","dog","1","0"
"html-keyboard-response","102","1106366","0.0-9.0-2.0-0.8","1515","1","2","""event"",""trial"",""time""
""fullscreenenter"",""1"",""44349""
","
","
","""event"",""trial"",""time""
""fullscreenenter"",""1"",""44349""
","
","","","","","","null","<div style=""font-size:60px;"">+</div>","null","","fixation","","","","","","","","","","","","","",""
"learning-trial","103","1110374","0.0-9.0-2.0-1.8","1515","1","2","""event"",""trial"",""time""
""fullscreenenter"",""1"",""44349""
","
","
","""event"",""trial"",""time""
""fullscreenenter"",""1"",""44349""
","
","","","","","","1455.1000000089407","images/dog2.png","","","learning","images/pets_choice3.png","images/pets_choice1.png","images/pets_choice2.png","[2,0,1]","0","1","2","images/pets_choice1.png","1","pets","","dog","1","0"
"html-keyboard-response","104","1110876","0.0-9.0-2.0-0.9","1515","1","2","""event"",""trial"",""time""
""fullscreenenter"",""1"",""44349""
","
","
","""event"",""trial"",""time""
""fullscreenenter"",""1"",""44349""
","
","","","","","","null","<div style=""font-size:60px;"">+</div>","null","","fixation","","","","","","","","","","","","","",""
"learning-trial","105","1114884","0.0-9.0-2.0-1.9","1515","1","2","""event"",""trial"",""time""
""fullscreenenter"",""1"",""44349""
","
","
","""event"",""trial"",""time""
""fullscreenenter"",""1"",""44349""
","
","","","","","","1170.199999988079","images/dog2.png","","","learning","images/pets_choice3.png","images/pets_choice2.png","images/pets_choice1.png","[2,1,0]","0","2","1","images/pets_choice3.png","1","pets","","dog","1","0"
"html-keyboard-response","106","1115386","0.0-9.0-2.0-0.10","1515","1","2","""event"",""trial"",""time""
""fullscreenenter"",""1"",""44349""
","
","
","""event"",""trial"",""time""
""fullscreenenter"",""1"",""44349""
","
","","","","","","null","<div style=""font-size:60px;"">+</div>","null","","fixation","","","","","","","","","","","","","",""
"learning-trial","107","1119397","0.0-9.0-2.0-1.10","1515","1","2","""event"",""trial"",""time""
""fullscreenenter"",""1"",""44349""
","
","
","""event"",""trial"",""time""
""fullscreenenter"",""1"",""44349""
","
","","","","","","954.2999999970198","images/rabbit2.png","","","learning","images/pets_choice2.png","images/pets_choice3.png","images/pets_choice1.png","[1,2,0]","2","1","3","images/pets_choice1.png","-1","pets","","rabbit","1","0"
"html-keyboard-response","108","1119900","0.0-9.0-2.0-0.11","1515","1","2","""event"",""trial"",""time""
""fullscreenenter"",""1"",""44349""
","
","
","""event"",""trial"",""time""
""fullscreenenter"",""1"",""44349""
","
","","","","","","null","<div style=""font-size:60px;"">+</div>","null","","fixation","","","","","","","","","","","","","",""
"learning-trial","109","1123908","0.0-9.0-2.0-1.11","1515","1","2","""event"",""trial"",""time""
""fullscreenenter"",""1"",""44349""
","
","
","""event"",""trial"",""time""
""fullscreenenter"",""1"",""44349""
","
","","","","","","1076.1000000089407","images/rabbit2.png","","","learning","images/pets_choice3.png","images/pets_choice1.png","images/pets_choice2.png","[2,0,1]","2","0","2","images/pets_choice1.png","-1","pets","","rabbit","1","0"
"html-keyboard-response","110","1124410","0.0-9.0-2.0-0.12","1515","1","2","""event"",""trial"",""time""
""fullscreenenter"",""1"",""44349""
","
","
","""event"",""trial"",""time""
""fullscreenenter"",""1"",""44349""
","
","","","","","","null","<div style=""font-size:60px;"">+</div>","null","","fixation","","","","","","","","","","","","","",""
"learning-trial","111","1128419","0.0-9.0-2.0-1.12","1515","1","2","""event"",""trial"",""time""
""fullscreenenter"",""1"",""44349""
","
","
","""event"",""trial"",""time""
""fullscreenenter"",""1"",""44349""
","
","","","","","","1042.2000000029802","images/dog1.png","","","learning","images/pets_choice1.png","images/pets_choice3.png","images/pets_choice2.png","[0,2,1]","0","0","1","images/pets_choice1.png","1","pets","","dog","1","0"
"html-keyboard-response","112","1128921","0.0-9.0-2.0-0.13","1515","1","2","""event"",""trial"",""time""
""fullscreenenter"",""1"",""44349""
","
","
","""event"",""trial"",""time""
""fullscreenenter"",""1"",""44349""
","
","","","","","","null","<div style=""font-size:60px;"">+</div>","null","","fixation","","","","","","","","","","","","","",""
"learning-trial","113","1132929","0.0-9.0-2.0-1.13","1515","1","2","""event"",""trial"",""time""
""fullscreenenter"",""1"",""44349""
","
","
","""event"",""trial"",""time""
""fullscreenenter"",""1"",""44349""
","
","","","","","","1074.300000011921","images/rodent5.png","","","learning","images/pets_choice3.png","images/pets_choice2.png","images/pets_choice1.png","[2,1,0]","1","1","2","images/pets_choice2.png","1","pets","","rodent","1","0"
"html-keyboard-response","114","1133431","0.0-9.0-2.0-0.14","1515","1","2","""event"",""trial"",""time""
""fullscreenenter"",""1"",""44349""
","
","
","""event"",""trial"",""time""
""fullscreenenter"",""1"",""44349""
","
","","","","","","null","<div style=""font-size:60px;"">+</div>","null","","fixation","","","","","","","","","","","","","",""
"learning-trial","115","1137439","0.0-9.0-2.0-1.14","1515","1","2","""event"",""trial"",""time""
""fullscreenenter"",""1"",""44349""
","
","
","""event"",""trial"",""time""
""fullscreenenter"",""1"",""44349""
","
","","","","","","1247.1000000089407","images/dog3.png","","","learning","images/pets_choice1.png","images/pets_choice3.png","images/pets_choice2.png","[0,2,1]","0","0","1","images/pets_choice1.png","1","pets","","dog","1","0"
"html-keyboard-response","116","1137942","0.0-9.0-2.0-0.15","1515","1","2","""event"",""trial"",""time""
""fullscreenenter"",""1"",""44349""
","
","
","""event"",""trial"",""time""
""fullscreenenter"",""1"",""44349""
","
","","","","","","null","<div style=""font-size:60px;"">+</div>","null","","fixation","","","","","","","","","","","","","",""
"learning-trial","117","1141949","0.0-9.0-2.0-1.15","1515","1","2","""event"",""trial"",""time""
""fullscreenenter"",""1"",""44349""
","
","
","""event"",""trial"",""time""
""fullscreenenter"",""1"",""44349""
","
","","","","","","1157.5999999940395","images/rodent5.png","","","learning","images/pets_choice2.png","images/pets_choice3.png","images/pets_choice1.png","[1,2,0]","1","0","3","images/pets_choice1.png","-1","pets","","rodent","1","0"
"html-keyboard-response","118","1142451","0.0-9.0-2.0-0.16","1515","1","2","""event"",""trial"",""time""
""fullscreenenter"",""1"",""44349""
","
","
","""event"",""trial"",""time""
""fullscreenenter"",""1"",""44349""
","
","","","","","","null","<div style=""font-size:60px;"">+</div>","null","","fixation","","","","","","","","","","","","","",""
"learning-trial","119","1146458","0.0-9.0-2.0-1.16","1515","1","2","""event"",""trial"",""time""
""fullscreenenter"",""1"",""44349""
","
","
","""event"",""trial"",""time""
""fullscreenenter"",""1"",""44349""
","
","","","","","","1098.5","images/rodent2.png","","","learning","images/pets_choice3.png","images/pets_choice2.png","images/pets_choice1.png","[2,1,0]","1","1","1","images/pets_choice3.png","-1","pets","","rodent","1","0"
"html-keyboard-response","120","1146961","0.0-9.0-2.0-0.17","1515","1","2","""event"",""trial"",""time""
""fullscreenenter"",""1"",""44349""
","
","
","""event"",""trial"",""time""
""fullscreenenter"",""1"",""44349""
","
","","","","","","null","<div style=""font-size:60px;"">+</div>","null","","fixation","","","","","","","","","","","","","",""
"learning-trial","121","1150968","0.0-9.0-2.0-1.17","1515","1","2","""event"",""trial"",""time""
""fullscreenenter"",""1"",""44349""
","
","
","""event"",""trial"",""time""
""fullscreenenter"",""1"",""44349""
","
","","","","","","927.7999999970198","images/rabbit5.png","","","learning","images/pets_choice3.png","images/pets_choice2.png","images/pets_choice1.png","[2,1,0]","2","0","3","images/pets_choice1.png","-1","pets","","rabbit","1","0"
"html-keyboard-response","122","1151471","0.0-9.0-2.0-0.18","1515","1","2","""event"",""trial"",""time""
""fullscreenenter"",""1"",""44349""
","
","
","""event"",""trial"",""time""
""fullscreenenter"",""1"",""44349""
","
","","","","","","null","<div style=""font-size:60px;"">+</div>","null","","fixation","","","","","","","","","","","","","",""
"learning-trial","123","1155478","0.0-9.0-2.0-1.18","1515","1","2","""event"",""trial"",""time""
""fullscreenenter"",""1"",""44349""
","
","
","""event"",""trial"",""time""
""fullscreenenter"",""1"",""44349""
","
","","","","","","662.5","images/rodent5.png","","","learning","images/pets_choice1.png","images/pets_choice3.png","images/pets_choice2.png","[0,2,1]","1","2","2","images/pets_choice3.png","-1","pets","","rodent","1","0"
"html-keyboard-response","124","1155981","0.0-9.0-2.0-0.19","1515","1","2","""event"",""trial"",""time""
""fullscreenenter"",""1"",""44349""
","
","
","""event"",""trial"",""time""
""fullscreenenter"",""1"",""44349""
","
","","","","","","null","<div style=""font-size:60px;"">+</div>","null","","fixation","","","","","","","","","","","","","",""
"learning-trial","125","1159989","0.0-9.0-2.0-1.19","1515","1","2","""event"",""trial"",""time""
""fullscreenenter"",""1"",""44349""
","
","
","""event"",""trial"",""time""
""fullscreenenter"",""1"",""44349""
","
","","","","","","666.0999999940395","images/dog1.png","","","learning","images/pets_choice3.png","images/pets_choice1.png","images/pets_choice2.png","[2,0,1]","0","1","1","images/pets_choice3.png","-1","pets","","dog","1","0"
"html-keyboard-response","126","1160491","0.0-9.0-2.0-0.20","1515","1","2","""event"",""trial"",""time""
""fullscreenenter"",""1"",""44349""
","
","
","""event"",""trial"",""time""
""fullscreenenter"",""1"",""44349""
","
","","","","","","null","<div style=""font-size:60px;"">+</div>","null","","fixation","","","","","","","","","","","","","",""
"learning-trial","127","1164498","0.0-9.0-2.0-1.20","1515","1","2","""event"",""trial"",""time""
""fullscreenenter"",""1"",""44349""
","
","
","""event"",""trial"",""time""
""fullscreenenter"",""1"",""44349""
","
","","","","","","666.7000000029802","images/rabbit2.png","","","learning","images/pets_choice3.png","images/pets_choice1.png","images/pets_choice2.png","[2,0,1]","2","0","3","images/pets_choice2.png","1","pets","","rabbit","1","0"
"html-keyboard-response","128","1165000","0.0-9.0-2.0-0.21","1515","1","2","""event"",""trial"",""time""
""fullscreenenter"",""1"",""44349""
","
","
","""event"",""trial"",""time""
""fullscreenenter"",""1"",""44349""
","
","","","","","","null","<div style=""font-size:60px;"">+</div>","null","","fixation","","","","","","","","","","","","","",""
"learning-trial","129","1169008","0.0-9.0-2.0-1.21","1515","1","2","""event"",""trial"",""time""
""fullscreenenter"",""1"",""44349""
","
","
","""event"",""trial"",""time""
""fullscreenenter"",""1"",""44349""
","
","","","","","","949.7999999970198","images/rabbit5.png","","","learning","images/pets_choice2.png","images/pets_choice1.png","images/pets_choice3.png","[1,0,2]","2","2","2","images/pets_choice1.png","1","pets","","rabbit","1","0"
"html-keyboard-response","130","1169510","0.0-9.0-2.0-0.22","1515","1","2","""event"",""trial"",""time""
""fullscreenenter"",""1"",""44349""
","
","
","""event"",""trial"",""time""
""fullscreenenter"",""1"",""44349""
","
","","","","","","null","<div style=""font-size:60px;"">+</div>","null","","fixation","","","","","","","","","","","","","",""
"learning-trial","131","1173518","0.0-9.0-2.0-1.22","1515","1","2","""event"",""trial"",""time""
""fullscreenenter"",""1"",""44349""
","
","
","""event"",""trial"",""time""
""fullscreenenter"",""1"",""44349""
","
","","","","","","1359.300000011921","images/dog1.png","","","learning","images/pets_choice2.png","images/pets_choice3.png","images/pets_choice1.png","[1,2,0]","0","2","1","images/pets_choice2.png","-1","pets","","dog","1","0"
"html-keyboard-response","132","1174020","0.0-9.0-2.0-0.23","1515","1","2","""event"",""trial"",""time""
""fullscreenenter"",""1"",""44349""
","
","
","""event"",""trial"",""time""
""fullscreenenter"",""1"",""44349""
","
","","","","","","null","<div style=""font-size:60px;"">+</div>","null","","fixation","","","","","","","","","","","","","",""
"learning-trial","133","1178030","0.0-9.0-2.0-1.23","1515","1","2","""event"",""trial"",""time""
""fullscreenenter"",""1"",""44349""
","
","
","""event"",""trial"",""time""
""fullscreenenter"",""1"",""44349""
","
","","","","","","1359.2000000029802","images/rabbit2.png","","","learning","images/pets_choice3.png","images/pets_choice1.png","images/pets_choice2.png","[2,0,1]","2","0","2","images/pets_choice1.png","1","pets","","rabbit","1","0"
"html-keyboard-response","134","1178532","0.0-9.0-2.0-0.24","1515","1","2","""event"",""trial"",""time""
""fullscreenenter"",""1"",""44349""
","
","
","""event"",""trial"",""time""
""fullscreenenter"",""1"",""44349""
","
","","","","","","null","<div style=""font-size:60px;"">+</div>","null","","fixation","","","","","","","","","","","","","",""
"learning-trial","135","1182540","0.0-9.0-2.0-1.24","1515","1","2","""event"",""trial"",""time""
""fullscreenenter"",""1"",""44349""
","
","
","""event"",""trial"",""time""
""fullscreenenter"",""1"",""44349""
","
","","","","","","906.8999999910593","images/dog1.png","","","learning","images/pets_choice2.png","images/pets_choice1.png","images/pets_choice3.png","[1,0,2]","0","1","3","images/pets_choice3.png","-1","pets","","dog","1","0"
"html-keyboard-response","136","1183042","0.0-9.0-2.0-0.25","1515","1","2","""event"",""trial"",""time""
""fullscreenenter"",""1"",""44349""
","
","
","""event"",""trial"",""time""
""fullscreenenter"",""1"",""44349""
","
","","","","","","null","<div style=""font-size:60px;"">+</div>","null","","fixation","","","","","","","","","","","","","",""
"learning-trial","137","1187049","0.0-9.0-2.0-1.25","1515","1","2","""event"",""trial"",""time""
""fullscreenenter"",""1"",""44349""
","
","
","""event"",""trial"",""time""
""fullscreenenter"",""1"",""44349""
","
","","","","","","929","images/rabbit1.png","","","learning","images/pets_choice2.png","images/pets_choice3.png","images/pets_choice1.png","[1,2,0]","2","1","2","images/pets_choice3.png","1","pets","","rabbit","1","0"
"html-keyboard-response","138","1187552","0.0-9.0-2.0-0.26","1515","1","2","""event"",""trial"",""time""
""fullscreenenter"",""1"",""44349""
","
","
","""event"",""trial"",""time""
""fullscreenenter"",""1"",""44349""
","
","","","","","","null","<div style=""font-size:60px;"">+</div>","null","","fixation","","","","","","","","","","","","","",""
"learning-trial","139","1191560","0.0-9.0-2.0-1.26","1515","1","2","""event"",""trial"",""time""
""fullscreenenter"",""1"",""44349""
","
","
","""event"",""trial"",""time""
""fullscreenenter"",""1"",""44349""
","
","","","","","","682.4000000059605","images/dog2.png","","","learning","images/pets_choice3.png","images/pets_choice2.png","images/pets_choice1.png","[2,1,0]","0","2","1","images/pets_choice3.png","-1","pets","","dog","1","0"
"html-keyboard-response","140","1192062","0.0-9.0-2.0-0.27","1515","1","2","""event"",""trial"",""time""
""fullscreenenter"",""1"",""44349""
","
","
","""event"",""trial"",""time""
""fullscreenenter"",""1"",""44349""
","
","","","","","","null","<div style=""font-size:60px;"">+</div>","null","","fixation","","","","","","","","","","","","","",""
"learning-trial","141","1196069","0.0-9.0-2.0-1.27","1515","1","2","""event"",""trial"",""time""
""fullscreenenter"",""1"",""44349""
","
","
","""event"",""trial"",""time""
""fullscreenenter"",""1"",""44349""
","
","","","","","","783.5","images/rabbit2.png","","","learning","images/pets_choice2.png","images/pets_choice1.png","images/pets_choice3.png","[1,0,2]","2","2","2","images/pets_choice1.png","-1","pets","","rabbit","1","0"
"html-keyboard-response","142","1196572","0.0-9.0-2.0-0.28","1515","1","2","""event"",""trial"",""time""
""fullscreenenter"",""1"",""44349""
","
","
","""event"",""trial"",""time""
""fullscreenenter"",""1"",""44349""
","
","","","","","","null","<div style=""font-size:60px;"">+</div>","null","","fixation","","","","","","","","","","","","","",""
"learning-trial","143","1200580","0.0-9.0-2.0-1.28","1515","1","2","""event"",""trial"",""time""
""fullscreenenter"",""1"",""44349""
","
","
","""event"",""trial"",""time""
""fullscreenenter"",""1"",""44349""
","
","","","","","","729.9000000059605","images/rodent5.png","","","learning","images/pets_choice2.png","images/pets_choice3.png","images/pets_choice1.png","[1,2,0]","1","0","1","images/pets_choice2.png","1","pets","","rodent","1","0"
"html-keyboard-response","144","1201082","0.0-9.0-2.0-0.29","1515","1","2","""event"",""trial"",""time""
""fullscreenenter"",""1"",""44349""
","
","
","""event"",""trial"",""time""
""fullscreenenter"",""1"",""44349""
","
","","","","","","null","<div style=""font-size:60px;"">+</div>","null","","fixation","","","","","","","","","","","","","",""
"learning-trial","145","1205090","0.0-9.0-2.0-1.29","1515","1","2","""event"",""trial"",""time""
""fullscreenenter"",""1"",""44349""
","
","
","""event"",""trial"",""time""
""fullscreenenter"",""1"",""44349""
","
","","","","","","1094.2000000029802","images/rabbit1.png","","","learning","images/pets_choice2.png","images/pets_choice3.png","images/pets_choice1.png","[1,2,0]","2","1","3","images/pets_choice1.png","-1","pets","","rabbit","1","0"
"html-keyboard-response","146","1205592","0.0-9.0-2.0-0.30","1515","1","2","""event"",""trial"",""time""
""fullscreenenter"",""1"",""44349""
","
","
","""event"",""trial"",""time""
""fullscreenenter"",""1"",""44349""
","
","","","","","","null","<div style=""font-size:60px;"">+</div>","null","","fixation","","","","","","","","","","","","","",""
"learning-trial","147","1209601","0.0-9.0-2.0-1.30","1515","1","2","""event"",""trial"",""time""
""fullscreenenter"",""1"",""44349""
","
","
","""event"",""trial"",""time""
""fullscreenenter"",""1"",""44349""
","
","","","","","","1179.4000000059605","images/rabbit2.png","","","learning","images/pets_choice1.png","images/pets_choice3.png","images/pets_choice2.png","[0,2,1]","2","1","2","images/pets_choice3.png","1","pets","","rabbit","1","0"
"html-keyboard-response","148","1210104","0.0-9.0-2.0-0.31","1515","1","2","""event"",""trial"",""time""
""fullscreenenter"",""1"",""44349""
","
","
","""event"",""trial"",""time""
""fullscreenenter"",""1"",""44349""
","
","","","","","","null","<div style=""font-size:60px;"">+</div>","null","","fixation","","","","","","","","","","","","","",""
"learning-trial","149","1214111","0.0-9.0-2.0-1.31","1515","1","2","""event"",""trial"",""time""
""fullscreenenter"",""1"",""44349""
","
","
","""event"",""trial"",""time""
""fullscreenenter"",""1"",""44349""
","
","","","","","","1008.7000000029802","images/rodent2.png","","","learning","images/pets_choice1.png","images/pets_choice2.png","images/pets_choice3.png","[0,1,2]","1","1","2","images/pets_choice2.png","-1","pets","","rodent","1","0"
"html-keyboard-response","150","1214614","0.0-9.0-2.0-0.32","1515","1","2","""event"",""trial"",""time""
""fullscreenenter"",""1"",""44349""
","
","
","""event"",""trial"",""time""
""fullscreenenter"",""1"",""44349""
","
","","","","","","null","<div style=""font-size:60px;"">+</div>","null","","fixation","","","","","","","","","","","","","",""
"learning-trial","151","1218621","0.0-9.0-2.0-1.32","1515","1","2","""event"",""trial"",""time""
""fullscreenenter"",""1"",""44349""
","
","
","""event"",""trial"",""time""
""fullscreenenter"",""1"",""44349""
","
","","","","","","914.2000000029802","images/dog3.png","","","learning","images/pets_choice2.png","images/pets_choice1.png","images/pets_choice3.png","[1,0,2]","0","1","1","images/pets_choice2.png","-1","pets","","dog","1","0"
"html-keyboard-response","152","1219124","0.0-9.0-2.0-0.33","1515","1","2","""event"",""trial"",""time""
""fullscreenenter"",""1"",""44349""
","
","
","""event"",""trial"",""time""
""fullscreenenter"",""1"",""44349""
","
","","","","","","null","<div style=""font-size:60px;"">+</div>","null","","fixation","","","","","","","","","","","","","",""
"learning-trial","153","1223131","0.0-9.0-2.0-1.33","1515","1","2","""event"",""trial"",""time""
""fullscreenenter"",""1"",""44349""
","
","
","""event"",""trial"",""time""
""fullscreenenter"",""1"",""44349""
","
","","","","","","855.8999999910593","images/rodent5.png","","","learning","images/pets_choice3.png","images/pets_choice2.png","images/pets_choice1.png","[2,1,0]","1","1","2","images/pets_choice2.png","1","pets","","rodent","1","0"
"html-keyboard-response","154","1223634","0.0-9.0-2.0-0.34","1515","1","2","""event"",""trial"",""time""
""fullscreenenter"",""1"",""44349""
","
","
","""event"",""trial"",""time""
""fullscreenenter"",""1"",""44349""
","
","","","","","","null","<div style=""font-size:60px;"">+</div>","null","","fixation","","","","","","","","","","","","","",""
"learning-trial","155","1227641","0.0-9.0-2.0-1.34","1515","1","2","""event"",""trial"",""time""
""fullscreenenter"",""1"",""44349""
","
","
","""event"",""trial"",""time""
""fullscreenenter"",""1"",""44349""
","
","","","","","","492.20000000298023","images/rodent3.png","","","learning","images/pets_choice3.png","images/pets_choice1.png","images/pets_choice2.png","[2,0,1]","1","2","3","images/pets_choice2.png","1","pets","","rodent","1","0"
"html-keyboard-response","156","1228144","0.0-9.0-2.0-0.35","1515","1","2","""event"",""trial"",""time""
""fullscreenenter"",""1"",""44349""
","
","
","""event"",""trial"",""time""
""fullscreenenter"",""1"",""44349""
","
","","","","","","null","<div style=""font-size:60px;"">+</div>","null","","fixation","","","","","","","","","","","","","",""
"learning-trial","157","1232152","0.0-9.0-2.0-1.35","1515","1","2","""event"",""trial"",""time""
""fullscreenenter"",""1"",""44349""
","
","
","""event"",""trial"",""time""
""fullscreenenter"",""1"",""44349""
","
","","","","","","756.7999999970198","images/rodent2.png","","","learning","images/pets_choice2.png","images/pets_choice1.png","images/pets_choice3.png","[1,0,2]","1","0","1","images/pets_choice2.png","1","pets","","rodent","1","0"
"html-keyboard-response","158","1232654","0.0-9.0-2.0-0.36","1515","1","2","""event"",""trial"",""time""
""fullscreenenter"",""1"",""44349""
","
","
","""event"",""trial"",""time""
""fullscreenenter"",""1"",""44349""
","
","","","","","","null","<div style=""font-size:60px;"">+</div>","null","","fixation","","","","","","","","","","","","","",""
"learning-trial","159","1236662","0.0-9.0-2.0-1.36","1515","1","2","""event"",""trial"",""time""
""fullscreenenter"",""1"",""44349""
","
","
","""event"",""trial"",""time""
""fullscreenenter"",""1"",""44349""
","
","","","","","","576.2000000029802","images/dog2.png","","","learning","images/pets_choice3.png","images/pets_choice1.png","images/pets_choice2.png","[2,0,1]","0","1","2","images/pets_choice1.png","-1","pets","","dog","1","0"
"html-keyboard-response","160","1237164","0.0-9.0-2.0-0.37","1515","1","2","""event"",""trial"",""time""
""fullscreenenter"",""1"",""44349""
","
","
","""event"",""trial"",""time""
""fullscreenenter"",""1"",""44349""
","
","","","","","","null","<div style=""font-size:60px;"">+</div>","null","","fixation","","","","","","","","","","","","","",""
"learning-trial","161","1241174","0.0-9.0-2.0-1.37","1515","1","2","""event"",""trial"",""time""
""fullscreenenter"",""1"",""44349""
","
","
","""event"",""trial"",""time""
""fullscreenenter"",""1"",""44349""
","
","","","","","","702.5","images/rabbit5.png","","","learning","images/pets_choice3.png","images/pets_choice1.png","images/pets_choice2.png","[2,0,1]","2","0","1","images/pets_choice3.png","1","pets","","rabbit","1","0"
"html-keyboard-response","162","1241676","0.0-9.0-2.0-0.38","1515","1","2","""event"",""trial"",""time""
""fullscreenenter"",""1"",""44349""
","
","
","""event"",""trial"",""time""
""fullscreenenter"",""1"",""44349""
","
","","","","","","null","<div style=""font-size:60px;"">+</div>","null","","fixation","","","","","","","","","","","","","",""
"learning-trial","163","1245684","0.0-9.0-2.0-1.38","1515","1","2","""event"",""trial"",""time""
""fullscreenenter"",""1"",""44349""
","
","
","""event"",""trial"",""time""
""fullscreenenter"",""1"",""44349""
","
","","","","","","722.5","images/dog1.png","","","learning","images/pets_choice1.png","images/pets_choice2.png","images/pets_choice3.png","[0,1,2]","0","0","2","images/pets_choice2.png","-1","pets","","dog","1","0"
"html-keyboard-response","164","1246186","0.0-9.0-2.0-0.39","1515","1","2","""event"",""trial"",""time""
""fullscreenenter"",""1"",""44349""
","
","
","""event"",""trial"",""time""
""fullscreenenter"",""1"",""44349""
","
","","","","","","null","<div style=""font-size:60px;"">+</div>","null","","fixation","","","","","","","","","","","","","",""
"learning-trial","165","1250194","0.0-9.0-2.0-1.39","1515","1","2","""event"",""trial"",""time""
""fullscreenenter"",""1"",""44349""
","
","
","""event"",""trial"",""time""
""fullscreenenter"",""1"",""44349""
","
","","","","","","753.0999999940395","images/rabbit1.png","","","learning","images/pets_choice2.png","images/pets_choice3.png","images/pets_choice1.png","[1,2,0]","2","1","3","images/pets_choice1.png","-1","pets","","rabbit","1","0"
"html-keyboard-response","166","1250696","0.0-9.0-2.0-0.40","1515","1","2","""event"",""trial"",""time""
""fullscreenenter"",""1"",""44349""
","
","
","""event"",""trial"",""time""
""fullscreenenter"",""1"",""44349""
","
","","","","","","null","<div style=""font-size:60px;"">+</div>","null","","fixation","","","","","","","","","","","","","",""
"learning-trial","167","1254704","0.0-9.0-2.0-1.40","1515","1","2","""event"",""trial"",""time""
""fullscreenenter"",""1"",""44349""
","
","
","""event"",""trial"",""time""
""fullscreenenter"",""1"",""44349""
","
","","","","","","1020.1000000089407","images/rodent2.png","","","learning","images/pets_choice1.png","images/pets_choice3.png","images/pets_choice2.png","[0,2,1]","1","2","2","images/pets_choice3.png","-1","pets","","rodent","1","0"
"html-keyboard-response","168","1255206","0.0-9.0-2.0-0.41","1515","1","2","""event"",""trial"",""time""
""fullscreenenter"",""1"",""44349""
","
","
","""event"",""trial"",""time""
""fullscreenenter"",""1"",""44349""
","
","","","","","","null","<div style=""font-size:60px;"">+</div>","null","","fixation","","","","","","","","","","","","","",""
"learning-trial","169","1259214","0.0-9.0-2.0-1.41","1515","1","2","""event"",""trial"",""time""
""fullscreenenter"",""1"",""44349""
","
","
","""event"",""trial"",""time""
""fullscreenenter"",""1"",""44349""
","
","","","","","","2091.0999999940395","images/rabbit2.png","","","learning","images/pets_choice3.png","images/pets_choice2.png","images/pets_choice1.png","[2,1,0]","2","0","3","images/pets_choice1.png","-1","pets","","rabbit","1","0"
"html-keyboard-response","170","1259716","0.0-9.0-2.0-0.42","1515","1","2","""event"",""trial"",""time""
""fullscreenenter"",""1"",""44349""
","
","
","""event"",""trial"",""time""
""fullscreenenter"",""1"",""44349""
","
","","","","","","null","<div style=""font-size:60px;"">+</div>","null","","fixation","","","","","","","","","","","","","",""
"learning-trial","171","1263724","0.0-9.0-2.0-1.42","1515","1","2","""event"",""trial"",""time""
""fullscreenenter"",""1"",""44349""
","
","
","""event"",""trial"",""time""
""fullscreenenter"",""1"",""44349""
","
","","","","","","1473.5999999940395","images/rodent3.png","","","learning","images/pets_choice3.png","images/pets_choice2.png","images/pets_choice1.png","[2,1,0]","1","1","1","images/pets_choice3.png","-1","pets","","rodent","1","0"
"html-keyboard-response","172","1264227","0.0-9.0-2.0-0.43","1515","1","2","""event"",""trial"",""time""
""fullscreenenter"",""1"",""44349""
","
","
","""event"",""trial"",""time""
""fullscreenenter"",""1"",""44349""
","
","","","","","","null","<div style=""font-size:60px;"">+</div>","null","","fixation","","","","","","","","","","","","","",""
"learning-trial","173","1268234","0.0-9.0-2.0-1.43","1515","1","2","""event"",""trial"",""time""
""fullscreenenter"",""1"",""44349""
","
","
","""event"",""trial"",""time""
""fullscreenenter"",""1"",""44349""
","
","","","","","","2363.0999999940395","images/dog3.png","","","learning","images/pets_choice3.png","images/pets_choice2.png","images/pets_choice1.png","[2,1,0]","0","2","2","images/pets_choice2.png","-1","pets","","dog","1","0"
"html-keyboard-response","174","1268740","0.0-9.0-2.0-0.44","1515","1","2","""event"",""trial"",""time""
""fullscreenenter"",""1"",""44349""
","
","
","""event"",""trial"",""time""
""fullscreenenter"",""1"",""44349""
","
","","","","","","null","<div style=""font-size:60px;"">+</div>","null","","fixation","","","","","","","","","","","","","",""
"learning-trial","175","1272748","0.0-9.0-2.0-1.44","1515","1","2","""event"",""trial"",""time""
""fullscreenenter"",""1"",""44349""
","
","
","""event"",""trial"",""time""
""fullscreenenter"",""1"",""44349""
","
","","","","","","2187.1000000089407","images/rabbit5.png","","","learning","images/pets_choice1.png","images/pets_choice2.png","images/pets_choice3.png","[0,1,2]","2","2","3","images/pets_choice3.png","-1","pets","","rabbit","1","0"
"html-keyboard-response","176","1273250","0.0-9.0-2.0-0.45","1515","1","2","""event"",""trial"",""time""
""fullscreenenter"",""1"",""44349""
","
","
","""event"",""trial"",""time""
""fullscreenenter"",""1"",""44349""
","
","","","","","","null","<div style=""font-size:60px;"">+</div>","null","","fixation","","","","","","","","","","","","","",""
"learning-trial","177","1277258","0.0-9.0-2.0-1.45","1515","1","2","""event"",""trial"",""time""
""fullscreenenter"",""1"",""44349""
","
","
","""event"",""trial"",""time""
""fullscreenenter"",""1"",""44349""
","
","","","","","","2014","images/rabbit1.png","","","learning","images/pets_choice1.png","images/pets_choice2.png","images/pets_choice3.png","[0,1,2]","2","2","1","images/pets_choice1.png","-1","pets","","rabbit","1","0"
"html-keyboard-response","178","1277760","0.0-9.0-2.0-0.46","1515","1","2","""event"",""trial"",""time""
""fullscreenenter"",""1"",""44349""
","
","
","""event"",""trial"",""time""
""fullscreenenter"",""1"",""44349""
","
","","","","","","null","<div style=""font-size:60px;"">+</div>","null","","fixation","","","","","","","","","","","","","",""
"learning-trial","179","1281768","0.0-9.0-2.0-1.46","1515","1","2","""event"",""trial"",""time""
""fullscreenenter"",""1"",""44349""
","
","
","""event"",""trial"",""time""
""fullscreenenter"",""1"",""44349""
","
","","","","","","999.7999999970198","images/dog2.png","","","learning","images/pets_choice2.png","images/pets_choice1.png","images/pets_choice3.png","[1,0,2]","0","1","2","images/pets_choice1.png","-1","pets","","dog","1","0"
"html-keyboard-response","180","1282270","0.0-9.0-2.0-0.47","1515","1","2","""event"",""trial"",""time""
""fullscreenenter"",""1"",""44349""
","
","
","""event"",""trial"",""time""
""fullscreenenter"",""1"",""44349""
","
","","","","","","null","<div style=""font-size:60px;"">+</div>","null","","fixation","","","","","","","","","","","","","",""
"learning-trial","181","1286279","0.0-9.0-2.0-1.47","1515","1","2","""event"",""trial"",""time""
""fullscreenenter"",""1"",""44349""
","
","
","""event"",""trial"",""time""
""fullscreenenter"",""1"",""44349""
","
","","","","","","631.5","images/rabbit5.png","","","learning","images/pets_choice3.png","images/pets_choice2.png","images/pets_choice1.png","[2,1,0]","2","0","1","images/pets_choice3.png","1","pets","","rabbit","1","0"
"html-keyboard-response","182","1286781","0.0-9.0-2.0-0.48","1515","1","2","""event"",""trial"",""time""
""fullscreenenter"",""1"",""44349""
","
","
","""event"",""trial"",""time""
""fullscreenenter"",""1"",""44349""
","
","","","","","","null","<div style=""font-size:60px;"">+</div>","null","","fixation","","","","","","","","","","","","","",""
"learning-trial","183","1290789","0.0-9.0-2.0-1.48","1515","1","2","""event"",""trial"",""time""
""fullscreenenter"",""1"",""44349""
","
","
","""event"",""trial"",""time""
""fullscreenenter"",""1"",""44349""
","
","","","","","","722.7000000029802","images/rodent3.png","","","learning","images/pets_choice2.png","images/pets_choice1.png","images/pets_choice3.png","[1,0,2]","1","0","3","images/pets_choice3.png","-1","pets","","rodent","1","0"
"html-keyboard-response","184","1291292","0.0-9.0-2.0-0.49","1515","1","2","""event"",""trial"",""time""
""fullscreenenter"",""1"",""44349""
","
","
","""event"",""trial"",""time""
""fullscreenenter"",""1"",""44349""
","
","","","","","","null","<div style=""font-size:60px;"">+</div>","null","","fixation","","","","","","","","","","","","","",""
"learning-trial","185","1295299","0.0-9.0-2.0-1.49","1515","1","2","""event"",""trial"",""time""
""fullscreenenter"",""1"",""44349""
","
","
","""event"",""trial"",""time""
""fullscreenenter"",""1"",""44349""
","
","","","","","","660.2999999970198","images/rodent2.png","","","learning","images/pets_choice3.png","images/pets_choice1.png","images/pets_choice2.png","[2,0,1]","1","2","2","images/pets_choice1.png","-1","pets","","rodent","1","0"
"html-keyboard-response","186","1295802","0.0-9.0-2.0-0.50","1515","1","2","""event"",""trial"",""time""
""fullscreenenter"",""1"",""44349""
","
","
","""event"",""trial"",""time""
""fullscreenenter"",""1"",""44349""
","
","","","","","","null","<div style=""font-size:60px;"">+</div>","null","","fixation","","","","","","","","","","","","","",""
"learning-trial","187","1299811","0.0-9.0-2.0-1.50","1515","1","2","""event"",""trial"",""time""
""fullscreenenter"",""1"",""44349""
","
","
","""event"",""trial"",""time""
""fullscreenenter"",""1"",""44349""
","
","","","","","","666.5","images/dog3.png","","","learning","images/pets_choice3.png","images/pets_choice2.png","images/pets_choice1.png","[2,1,0]","0","2","1","images/pets_choice3.png","1","pets","","dog","1","0"
"html-keyboard-response","188","1300313","0.0-9.0-2.0-0.51","1515","1","2","""event"",""trial"",""time""
""fullscreenenter"",""1"",""44349""
","
","
","""event"",""trial"",""time""
""fullscreenenter"",""1"",""44349""
","
","","","","","","null","<div style=""font-size:60px;"">+</div>","null","","fixation","","","","","","","","","","","","","",""
"learning-trial","189","1304321","0.0-9.0-2.0-1.51","1515","1","2","""event"",""trial"",""time""
""fullscreenenter"",""1"",""44349""
","
","
","""event"",""trial"",""time""
""fullscreenenter"",""1"",""44349""
","
","","","","","","828.4000000059605","images/rodent2.png","","","learning","images/pets_choice3.png","images/pets_choice2.png","images/pets_choice1.png","[2,1,0]","1","1","1","images/pets_choice3.png","-1","pets","","rodent","1","0"
"html-keyboard-response","190","1304824","0.0-9.0-2.0-0.52","1515","1","2","""event"",""trial"",""time""
""fullscreenenter"",""1"",""44349""
","
","
","""event"",""trial"",""time""
""fullscreenenter"",""1"",""44349""
","
","","","","","","null","<div style=""font-size:60px;"">+</div>","null","","fixation","","","","","","","","","","","","","",""
"learning-trial","191","1308831","0.0-9.0-2.0-1.52","1515","1","2","""event"",""trial"",""time""
""fullscreenenter"",""1"",""44349""
","
","
","""event"",""trial"",""time""
""fullscreenenter"",""1"",""44349""
","
","","","","","","996.8999999910593","images/rabbit5.png","","","learning","images/pets_choice3.png","images/pets_choice1.png","images/pets_choice2.png","[2,0,1]","2","0","2","images/pets_choice1.png","-1","pets","","rabbit","1","0"
"html-keyboard-response","192","1309334","0.0-9.0-2.0-0.53","1515","1","2","""event"",""trial"",""time""
""fullscreenenter"",""1"",""44349""
","
","
","""event"",""trial"",""time""
""fullscreenenter"",""1"",""44349""
","
","","","","","","null","<div style=""font-size:60px;"">+</div>","null","","fixation","","","","","","","","","","","","","",""
"learning-trial","193","1313341","0.0-9.0-2.0-1.53","1515","1","2","""event"",""trial"",""time""
""fullscreenenter"",""1"",""44349""
","
","
","""event"",""trial"",""time""
""fullscreenenter"",""1"",""44349""
","
","","","","","","542.6999999880791","images/rodent5.png","","","learning","images/pets_choice1.png","images/pets_choice3.png","images/pets_choice2.png","[0,2,1]","1","2","1","images/pets_choice1.png","-1","pets","","rodent","1","0"
"html-keyboard-response","194","1313844","0.0-9.0-2.0-0.54","1515","1","2","""event"",""trial"",""time""
""fullscreenenter"",""1"",""44349""
","
","
","""event"",""trial"",""time""
""fullscreenenter"",""1"",""44349""
","
","","","","","","null","<div style=""font-size:60px;"">+</div>","null","","fixation","","","","","","","","","","","","","",""
"learning-trial","195","1317853","0.0-9.0-2.0-1.54","1515","1","2","""event"",""trial"",""time""
""fullscreenenter"",""1"",""44349""
","
","
","""event"",""trial"",""time""
""fullscreenenter"",""1"",""44349""
","
","","","","","","1566.3999999910593","images/rodent5.png","","","learning","images/pets_choice2.png","images/pets_choice1.png","images/pets_choice3.png","[1,0,2]","1","0","3","images/pets_choice3.png","-1","pets","","rodent","1","0"
"html-keyboard-response","196","1318356","0.0-9.0-2.0-0.55","1515","1","2","""event"",""trial"",""time""
""fullscreenenter"",""1"",""44349""
","
","
","""event"",""trial"",""time""
""fullscreenenter"",""1"",""44349""
","
","","","","","","null","<div style=""font-size:60px;"">+</div>","null","","fixation","","","","","","","","","","","","","",""
"learning-trial","197","1322364","0.0-9.0-2.0-1.55","1515","1","2","""event"",""trial"",""time""
""fullscreenenter"",""1"",""44349""
","
","
","""event"",""trial"",""time""
""fullscreenenter"",""1"",""44349""
","
","","","","","","828","images/rodent3.png","","","learning","images/pets_choice3.png","images/pets_choice1.png","images/pets_choice2.png","[2,0,1]","1","2","3","images/pets_choice2.png","1","pets","","rodent","1","0"
"html-keyboard-response","198","1322866","0.0-9.0-2.0-0.56","1515","1","2","""event"",""trial"",""time""
""fullscreenenter"",""1"",""44349""
","
","
","""event"",""trial"",""time""
""fullscreenenter"",""1"",""44349""
","
","","","","","","null","<div style=""font-size:60px;"">+</div>","null","","fixation","","","","","","","","","","","","","",""
"learning-trial","199","1326874","0.0-9.0-2.0-1.56","1515","1","2","""event"",""trial"",""time""
""fullscreenenter"",""1"",""44349""
","
","
","""event"",""trial"",""time""
""fullscreenenter"",""1"",""44349""
","
","","","","","","2195","images/rodent2.png","","","learning","images/pets_choice2.png","images/pets_choice1.png","images/pets_choice3.png","[1,0,2]","1","0","3","images/pets_choice3.png","1","pets","","rodent","1","0"
"html-keyboard-response","200","1327376","0.0-9.0-2.0-0.57","1515","1","2","""event"",""trial"",""time""
""fullscreenenter"",""1"",""44349""
","
","
","""event"",""trial"",""time""
""fullscreenenter"",""1"",""44349""
","
","","","","","","null","<div style=""font-size:60px;"">+</div>","null","","fixation","","","","","","","","","","","","","",""
"learning-trial","201","1331384","0.0-9.0-2.0-1.57","1515","1","2","""event"",""trial"",""time""
""fullscreenenter"",""1"",""44349""
","
","
","""event"",""trial"",""time""
""fullscreenenter"",""1"",""44349""
","
","","","","","","1165","images/rabbit1.png","","","learning","images/pets_choice3.png","images/pets_choice1.png","images/pets_choice2.png","[2,0,1]","2","0","1","images/pets_choice3.png","-1","pets","","rabbit","1","0"
"html-keyboard-response","202","1331886","0.0-9.0-2.0-0.58","1515","1","2","""event"",""trial"",""time""
""fullscreenenter"",""1"",""44349""
","
","
","""event"",""trial"",""time""
""fullscreenenter"",""1"",""44349""
","
","","","","","","null","<div style=""font-size:60px;"">+</div>","null","","fixation","","","","","","","","","","","","","",""
"learning-trial","203","1335894","0.0-9.0-2.0-1.58","1515","1","2","""event"",""trial"",""time""
""fullscreenenter"",""1"",""44349""
","
","
","""event"",""trial"",""time""
""fullscreenenter"",""1"",""44349""
","
","","","","","","1331.9000000059605","images/rodent3.png","","","learning","images/pets_choice3.png","images/pets_choice1.png","images/pets_choice2.png","[2,0,1]","1","2","2","images/pets_choice1.png","-1","pets","","rodent","1","0"
"html-keyboard-response","204","1336397","0.0-9.0-2.0-0.59","1515","1","2","""event"",""trial"",""time""
""fullscreenenter"",""1"",""44349""
","
","
","""event"",""trial"",""time""
""fullscreenenter"",""1"",""44349""
","
","","","","","","null","<div style=""font-size:60px;"">+</div>","null","","fixation","","","","","","","","","","","","","",""
"learning-trial","205","1340404","0.0-9.0-2.0-1.59","1515","1","2","""event"",""trial"",""time""
""fullscreenenter"",""1"",""44349""
","
","
","""event"",""trial"",""time""
""fullscreenenter"",""1"",""44349""
","
","","","","","","2700.4000000059605","images/rabbit1.png","","","learning","images/pets_choice3.png","images/pets_choice2.png","images/pets_choice1.png","[2,1,0]","2","0","3","images/pets_choice1.png","-1","pets","","rabbit","1","0"
"html-keyboard-response","206","1340907","0.0-9.0-2.0-0.60","1515","1","2","""event"",""trial"",""time""
""fullscreenenter"",""1"",""44349""
","
","
","""event"",""trial"",""time""
""fullscreenenter"",""1"",""44349""
","
","","","","","","null","<div style=""font-size:60px;"">+</div>","null","","fixation","","","","","","","","","","","","","",""
"learning-trial","207","1344915","0.0-9.0-2.0-1.60","1515","1","2","""event"",""trial"",""time""
""fullscreenenter"",""1"",""44349""
","
","
","""event"",""trial"",""time""
""fullscreenenter"",""1"",""44349""
","
","","","","","","947.5999999940395","images/dog1.png","","","learning","images/pets_choice3.png","images/pets_choice2.png","images/pets_choice1.png","[2,1,0]","0","2","2","images/pets_choice2.png","-1","pets","","dog","1","0"
"html-keyboard-response","208","1345418","0.0-9.0-2.0-0.61","1515","1","2","""event"",""trial"",""time""
""fullscreenenter"",""1"",""44349""
","
","
","""event"",""trial"",""time""
""fullscreenenter"",""1"",""44349""
","
","","","","","","null","<div style=""font-size:60px;"">+</div>","null","","fixation","","","","","","","","","","","","","",""
"learning-trial","209","1349425","0.0-9.0-2.0-1.61","1515","1","2","""event"",""trial"",""time""
""fullscreenenter"",""1"",""44349""
","
","
","""event"",""trial"",""time""
""fullscreenenter"",""1"",""44349""
","
","","","","","","856.0999999940395","images/rabbit5.png","","","learning","images/pets_choice1.png","images/pets_choice2.png","images/pets_choice3.png","[0,1,2]","2","2","1","images/pets_choice1.png","-1","pets","","rabbit","1","0"
"html-keyboard-response","210","1349928","0.0-9.0-2.0-0.62","1515","1","2","""event"",""trial"",""time""
""fullscreenenter"",""1"",""44349""
","
","
","""event"",""trial"",""time""
""fullscreenenter"",""1"",""44349""
","
","","","","","","null","<div style=""font-size:60px;"">+</div>","null","","fixation","","","","","","","","","","","","","",""
"learning-trial","211","1353935","0.0-9.0-2.0-1.62","1515","1","2","""event"",""trial"",""time""
""fullscreenenter"",""1"",""44349""
","
","
","""event"",""trial"",""time""
""fullscreenenter"",""1"",""44349""
","
","","","","","","874.5","images/rodent2.png","","","learning","images/pets_choice3.png","images/pets_choice1.png","images/pets_choice2.png","[2,0,1]","1","2","1","images/pets_choice3.png","-1","pets","","rodent","1","0"
"html-keyboard-response","212","1354438","0.0-9.0-2.0-0.63","1515","1","2","""event"",""trial"",""time""
""fullscreenenter"",""1"",""44349""
","
","
","""event"",""trial"",""time""
""fullscreenenter"",""1"",""44349""
","
","","","","","","null","<div style=""font-size:60px;"">+</div>","null","","fixation","","","","","","","","","","","","","",""
"learning-trial","213","1358447","0.0-9.0-2.0-1.63","1515","1","2","""event"",""trial"",""time""
""fullscreenenter"",""1"",""44349""
","
","
","""event"",""trial"",""time""
""fullscreenenter"",""1"",""44349""
","
","","","","","","521.9000000059605","images/dog2.png","","","learning","images/pets_choice1.png","images/pets_choice2.png","images/pets_choice3.png","[0,1,2]","0","0","3","images/pets_choice3.png","-1","pets","","dog","1","0"
"html-keyboard-response","214","1358950","0.0-9.0-2.0-0.64","1515","1","2","""event"",""trial"",""time""
""fullscreenenter"",""1"",""44349""
","
","
","""event"",""trial"",""time""
""fullscreenenter"",""1"",""44349""
","
","","","","","","null","<div style=""font-size:60px;"">+</div>","null","","fixation","","","","","","","","","","","","","",""
"learning-trial","215","1362957","0.0-9.0-2.0-1.64","1515","1","2","""event"",""trial"",""time""
""fullscreenenter"",""1"",""44349""
","
","
","""event"",""trial"",""time""
""fullscreenenter"",""1"",""44349""
","
","","","","","","1783.4000000059605","images/rodent5.png","","","learning","images/pets_choice1.png","images/pets_choice2.png","images/pets_choice3.png","[0,1,2]","1","1","3","images/pets_choice3.png","-1","pets","","rodent","1","0"
"html-keyboard-response","216","1363460","0.0-9.0-2.0-0.65","1515","1","2","""event"",""trial"",""time""
""fullscreenenter"",""1"",""44349""
","
","
","""event"",""trial"",""time""
""fullscreenenter"",""1"",""44349""
","
","","","","","","null","<div style=""font-size:60px;"">+</div>","null","","fixation","","","","","","","","","","","","","",""
"learning-trial","217","1367467","0.0-9.0-2.0-1.65","1515","1","2","""event"",""trial"",""time""
""fullscreenenter"",""1"",""44349""
","
","
","""event"",""trial"",""time""
""fullscreenenter"",""1"",""44349""
","
","","","","","","1111.4000000059605","images/rodent3.png","","","learning","images/pets_choice3.png","images/pets_choice1.png","images/pets_choice2.png","[2,0,1]","1","2","2","images/pets_choice1.png","1","pets","","rodent","1","0"
"html-keyboard-response","218","1367970","0.0-9.0-2.0-0.66","1515","1","2","""event"",""trial"",""time""
""fullscreenenter"",""1"",""44349""
","
","
","""event"",""trial"",""time""
""fullscreenenter"",""1"",""44349""
","
","","","","","","null","<div style=""font-size:60px;"">+</div>","null","","fixation","","","","","","","","","","","","","",""
"learning-trial","219","1371978","0.0-9.0-2.0-1.66","1515","1","2","""event"",""trial"",""time""
""fullscreenenter"",""1"",""44349""
","
","
","""event"",""trial"",""time""
""fullscreenenter"",""1"",""44349""
","
","","","","","","809.5999999940395","images/dog3.png","","","learning","images/pets_choice2.png","images/pets_choice3.png","images/pets_choice1.png","[1,2,0]","0","2","1","images/pets_choice2.png","1","pets","","dog","1","0"
"html-keyboard-response","220","1372480","0.0-9.0-2.0-0.67","1515","1","2","""event"",""trial"",""time""
""fullscreenenter"",""1"",""44349""
","
","
","""event"",""trial"",""time""
""fullscreenenter"",""1"",""44349""
","
","","","","","","null","<div style=""font-size:60px;"">+</div>","null","","fixation","","","","","","","","","","","","","",""
"learning-trial","221","1376491","0.0-9.0-2.0-1.67","1515","1","2","""event"",""trial"",""time""
""fullscreenenter"",""1"",""44349""
","
","
","""event"",""trial"",""time""
""fullscreenenter"",""1"",""44349""
","
","","","","","","1345.7000000029802","images/dog2.png","","","learning","images/pets_choice2.png","images/pets_choice1.png","images/pets_choice3.png","[1,0,2]","0","1","2","images/pets_choice1.png","1","pets","","dog","1","0"
"html-keyboard-response","222","1376993","0.0-9.0-2.0-0.68","1515","1","2","""event"",""trial"",""time""
""fullscreenenter"",""1"",""44349""
","
","
","""event"",""trial"",""time""
""fullscreenenter"",""1"",""44349""
","
","","","","","","null","<div style=""font-size:60px;"">+</div>","null","","fixation","","","","","","","","","","","","","",""
"learning-trial","223","1381001","0.0-9.0-2.0-1.68","1515","1","2","""event"",""trial"",""time""
""fullscreenenter"",""1"",""44349""
","
","
","""event"",""trial"",""time""
""fullscreenenter"",""1"",""44349""
","
","","","","","","1111.7999999970198","images/rabbit2.png","","","learning","images/pets_choice2.png","images/pets_choice3.png","images/pets_choice1.png","[1,2,0]","2","1","1","images/pets_choice2.png","-1","pets","","rabbit","1","0"
"html-keyboard-response","224","1381503","0.0-9.0-2.0-0.69","1515","1","2","""event"",""trial"",""time""
""fullscreenenter"",""1"",""44349""
","
","
","""event"",""trial"",""time""
""fullscreenenter"",""1"",""44349""
","
","","","","","","null","<div style=""font-size:60px;"">+</div>","null","","fixation","","","","","","","","","","","","","",""
"learning-trial","225","1385511","0.0-9.0-2.0-1.69","1515","1","2","""event"",""trial"",""time""
""fullscreenenter"",""1"",""44349""
","
","
","""event"",""trial"",""time""
""fullscreenenter"",""1"",""44349""
","
","","","","","","982.1000000089407","images/rodent3.png","","","learning","images/pets_choice1.png","images/pets_choice2.png","images/pets_choice3.png","[0,1,2]","1","1","2","images/pets_choice2.png","1","pets","","rodent","1","0"
"html-keyboard-response","226","1386014","0.0-9.0-2.0-0.70","1515","1","2","""event"",""trial"",""time""
""fullscreenenter"",""1"",""44349""
","
","
","""event"",""trial"",""time""
""fullscreenenter"",""1"",""44349""
","
","","","","","","null","<div style=""font-size:60px;"">+</div>","null","","fixation","","","","","","","","","","","","","",""
"learning-trial","227","1390021","0.0-9.0-2.0-1.70","1515","1","2","""event"",""trial"",""time""
""fullscreenenter"",""1"",""44349""
","
","
","""event"",""trial"",""time""
""fullscreenenter"",""1"",""44349""
","
","","","","","","1122.1000000089407","images/dog3.png","","","learning","images/pets_choice3.png","images/pets_choice2.png","images/pets_choice1.png","[2,1,0]","0","2","1","images/pets_choice3.png","-1","pets","","dog","1","0"
"html-keyboard-response","228","1390524","0.0-9.0-2.0-0.71","1515","1","2","""event"",""trial"",""time""
""fullscreenenter"",""1"",""44349""
","
","
","""event"",""trial"",""time""
""fullscreenenter"",""1"",""44349""
","
","","","","","","null","<div style=""font-size:60px;"">+</div>","null","","fixation","","","","","","","","","","","","","",""
"learning-trial","229","1394531","0.0-9.0-2.0-1.71","1515","1","2","""event"",""trial"",""time""
""fullscreenenter"",""1"",""44349""
","
","
","""event"",""trial"",""time""
""fullscreenenter"",""1"",""44349""
","
","","","","","","755.5","images/dog1.png","","","learning","images/pets_choice1.png","images/pets_choice2.png","images/pets_choice3.png","[0,1,2]","0","0","2","images/pets_choice2.png","-1","pets","","dog","1","0"
"html-button-response","230","1409040","0.0-9.0-3.0","1515","1","2","""event"",""trial"",""time""
""fullscreenenter"",""1"",""44349""
","
","
","""event"",""trial"",""time""
""fullscreenenter"",""1"",""44349""
","
","","","","","","14503.79999999702","<p> You have completed the round! <p> In this round, you earned -22 points! </p>","0","","break","","","","","","","","","","","","","",""
"html-button-response","231","1412532","0.0-10.0","1515","1","2","""event"",""trial"",""time""
""fullscreenenter"",""1"",""44349""
","
","
","""event"",""trial"",""time""
""fullscreenenter"",""1"",""44349""
","
","","","","","","3488","<p> Now it's time to play another round. </p>","0","","transition_screen","","","","","","","","","","","","","",""
"preload","232","1429798","0.0-11.0-0.0","1515","1","2","""event"",""trial"",""time""
""fullscreenenter"",""1"",""44349""
","
","
","""event"",""trial"",""time""
""fullscreenenter"",""1"",""44349""
","
","true","false","[]","[]","[]","","","","","","","","","","","","","","","","","","",""
"learning-instructions","233","1442581","0.0-11.0-1.0-0.0","1515","1","2","""event"",""trial"",""time""
""fullscreenenter"",""1"",""44349""
","
","
","""event"",""trial"",""time""
""fullscreenenter"",""1"",""44349""
","
","","","","","","4010.7999999970198","<p> Your goal in this round is to travel the world by putting fuel into different vehicles. </p><p> To travel, you will need to put fuel into many different vehicles. </p></div>","","0","instructions","","","","","","","","","","","","","",""
"learning-instructions","234","1452801","0.0-11.0-1.0-0.1","1515","1","2","""event"",""trial"",""time""
""fullscreenenter"",""1"",""44349""
","
","
","""event"",""trial"",""time""
""fullscreenenter"",""1"",""44349""
","
","","","","","","1442.0999999940395","<p> On each turn, you will see a picture of one of your vehicles and three different types of fuel.  </p><p> You need to select which kind of fuel to use.  </p>","","0","instructions","","","","","","","","","","","","","",""
"learning-instructions","235","1460387","0.0-11.0-1.0-0.2","1515","1","2","""event"",""trial"",""time""
""fullscreenenter"",""1"",""44349""
","
","
","""event"",""trial"",""time""
""fullscreenenter"",""1"",""44349""
","
","","","","","","705.2999999970198","<p> You can select the fuel on the left by pressing 1, the fuel in the middle by pressing 2, and the fuel on the right by pressing 3. </p><br><div class=""choice-instructions-grid""> <div class=""choice-option""><img src=""images/vehicles_choice1.png"" class=""choice-option-img"" stage=""instructions"" position=""0"" ><div class=""choice-option-text""> Press ""1."" </div></div><div class=""choice-option""><img src=""images/vehicles_choice2.png"" class=""choice-option-img"" stage=""instructions"" position=""1"" ><div class=""choice-option-text""> Press ""2."" </div></div><div class=""choice-option""><img src=""images/vehicles_choice3.png"" class=""choice-option-img"" stage=""instructions"" position=""2"" ><div class=""choice-option-text""> Press ""3."" </div></div></div>","","0","instructions","","","","","","","","","","","","","",""
"learning-instructions","236","1466930","0.0-11.0-1.0-0.3","1515","1","2","""event"",""trial"",""time""
""fullscreenenter"",""1"",""44349""
","
","
","""event"",""trial"",""time""
""fullscreenenter"",""1"",""44349""
","
