"trial_type","trial_index","time_elapsed","internal_node_id","subject_id","condition","task_version","interactions","blur_events","focus_events","fullscreenenter_events","fullscreenexit_events","success","timeout","failed_images","failed_audio","failed_video","rt","stimulus","response","button_pressed","task_part","left_choice","middle_choice","right_choice","choice_positions","correct_response","correct_position","key_press","option_selected","points","task_block","correct","stim_cat","block_condition","block_number"
"pavlovia","0","4","0.0-0.0","1734","2","2","""event"",""trial"",""time""
""fullscreenenter"",""1"",""3876""
","
","
","""event"",""trial"",""time""
""fullscreenenter"",""1"",""3876""
","
","","","","","","","","","","","","","","","","","","","","","","","",""
"fullscreen","1","4852","0.0-1.0","1734","2","2","""event"",""trial"",""time""
""fullscreenenter"",""1"",""3876""
","
","
","""event"",""trial"",""time""
""fullscreenenter"",""1"",""3876""
","
","true","","","","","","","","","","","","","","","","","","","","","","",""
"preload","2","10799","0.0-2.0","1734","2","2","""event"",""trial"",""time""
""fullscreenenter"",""1"",""3876""
","
","
","""event"",""trial"",""time""
""fullscreenenter"",""1"",""3876""
","
","true","false","[]","[]","[]","","","","","","","","","","","","","","","","","","",""
"audio-keyboard-response","3","13304","0.0-3.0","1734","2","2","""event"",""trial"",""time""
""fullscreenenter"",""1"",""3876""
","
","
","""event"",""trial"",""time""
""fullscreenenter"",""1"",""3876""
","
","","","","","","2501.950113378685","audio/beep_loop.wav"," ","","","","","","","","","","","","","","","",""
"audio-button-response","4","15853","0.0-4.0","1734","2","2","""event"",""trial"",""time""
""fullscreenenter"",""1"",""3876""
","
","
","""event"",""trial"",""time""
""fullscreenenter"",""1"",""3876""
","
","","","","","","2548","audio/shark.wav","4","","","","","","","","","","","","","","","",""
"audio-button-response","5","19242","0.0-5.0","1734","2","2","""event"",""trial"",""time""
""fullscreenenter"",""1"",""3876""
","
","
","""event"",""trial"",""time""
""fullscreenenter"",""1"",""3876""
","
","","","","","","2380","audio/turtle.wav","1","","","","","","","","","","","","","","","",""
"preload","6","24937","0.0-6.0","1734","2","2","""event"",""trial"",""time""
""fullscreenenter"",""1"",""3876""
","
","
","""event"",""trial"",""time""
""fullscreenenter"",""1"",""3876""
","
","true","false","[]","[]","[]","","","","","","","","","","","","","","","","","","",""
"html-keyboard-response","7","27240","0.0-7.0","1734","2","2","""event"",""trial"",""time""
""fullscreenenter"",""1"",""3876""
","
","
","""event"",""trial"",""time""
""fullscreenenter"",""1"",""3876""
","
","","","","","","2301.60000000149","Welcome to the experiment. Press any key to begin and to advance the instructions."," ","","","","","","","","","","","","","","","",""
"learning-instructions","8","119532","0.0-8.0-0.0-0.0","1734","2","2","""event"",""trial"",""time""
""fullscreenenter"",""1"",""3876""
","
","
","""event"",""trial"",""time""
""fullscreenenter"",""1"",""3876""
","
","","","","","","84548.89999999851","<p> Welcome! Today you are going to play 6 different rounds of a decision-making game. </p><p> Use the mouse to click next to continue. </p>","","0","instructions","","","","","","","","","","","","","",""
"learning-instructions","9","507355","0.0-8.0-0.0-0.1","1734","2","2","""event"",""trial"",""time""
""fullscreenenter"",""1"",""3876""
","
","
","""event"",""trial"",""time""
""fullscreenenter"",""1"",""3876""
","
","","","","","","384726.1000000015","<p> You will start with a practice round to learn the rules. </p>","","0","instructions","","","","","","","","","","","","","",""
"learning-instructions","10","516397","0.0-8.0-0.0-0.2","1734","2","2","""event"",""trial"",""time""
""fullscreenenter"",""1"",""3876""
","
","
","""event"",""trial"",""time""
""fullscreenenter"",""1"",""3876""
","
","","","","","","1188.3999999985099","<p> Your goal in this round is to deliver sports equipment to three different parks. </p><p> You will need to deliver many types of equipment. </p></div>","","0","instructions","","","","","","","","","","","","","",""
"learning-instructions","11","525455","0.0-8.0-0.0-0.3","1734","2","2","""event"",""trial"",""time""
""fullscreenenter"",""1"",""3876""
","
","
","""event"",""trial"",""time""
""fullscreenenter"",""1"",""3876""
","
","","","","","","575.6000000014901","<p> On each turn, you will see one piece of sports equipment and three different parks.  </p><p> You need to select which park to deliver the equipment to.  </p>","","0","instructions","","","","","","","","","","","","","",""
"learning-instructions","12","554656","0.0-8.0-0.0-0.4","1734","2","2","""event"",""trial"",""time""
""fullscreenenter"",""1"",""3876""
","
","
","""event"",""trial"",""time""
""fullscreenenter"",""1"",""3876""
","
","","","","","","15926.60000000149","<p> You can select the park on the left by pressing the '1' key on your keyboard. <br>You can select the park in the middle by pressing the '2' key on your keyboard. <br>You can select the park on the right by pressing the '3' key on your keyboard.  </p><br><div class=""choice-instructions-grid""> <div class=""choice-option""><img src=""images/park1.png"" class=""choice-option-img"" stage=""instructions"" position=""0"" ><div class=""choice-option-text""> Press ""1."" </div></div><div class=""choice-option""><img src=""images/park2.png"" class=""choice-option-img"" stage=""instructions"" position=""1"" ><div class=""choice-option-text""> Press ""2."" </div></div><div class=""choice-option""><img src=""images/park3.png"" class=""choice-option-img"" stage=""instructions"" position=""2"" ><div class=""choice-option-text""> Press ""3."" </div></div></div>","","0","instructions","","","","","","","","","","","","","",""
"learning-instructions","13","560760","0.0-8.0-0.0-0.5","1734","2","2","""event"",""trial"",""time""
""fullscreenenter"",""1"",""3876""
","
","
","""event"",""trial"",""time""
""fullscreenenter"",""1"",""3876""
","
","","","","","","726.3000000044703","<p> If the kids in the park you chose like the equipment, they will be very happy! </p><div style='float: center;'><img src='images/check.png' width = '200' height = '200'></img>","","0","instructions","","","","","","","","","","","","","",""
"learning-instructions","14","600151","0.0-8.0-0.0-0.6","1734","2","2","""event"",""trial"",""time""
""fullscreenenter"",""1"",""3876""
","
","
","""event"",""trial"",""time""
""fullscreenenter"",""1"",""3876""
","
","","","","","","33808.60000000149","<p> But, if the kids in the park you chose do not like the equipment, they will be sad. </p><div style='float: center;'><img src='images/x.png' width = '200' height = '200'></img>","","0","instructions","","","","","","","","","","","","","",""
"learning-instructions","15","607722","0.0-8.0-0.0-0.7","1734","2","2","""event"",""trial"",""time""
""fullscreenenter"",""1"",""3876""
","
","
","""event"",""trial"",""time""
""fullscreenenter"",""1"",""3876""
","
","","","","","","1144","<p> Importantly, the kids in each park like some pieces of sports equipment more than others. </p>","","0","instructions","","","","","","","","","","","","","",""
"learning-instructions","16","614973","0.0-8.0-0.0-0.8","1734","2","2","""event"",""trial"",""time""
""fullscreenenter"",""1"",""3876""
","
","
","""event"",""trial"",""time""
""fullscreenenter"",""1"",""3876""
","
","","","","","","1208.6000000014901","<p> If you choose the best park for each piece of equipment, the kids there will usually be happy. </p>","","0","instructions","","","","","","","","","","","","","",""
"learning-instructions","17","681320","0.0-8.0-0.0-0.9","1734","2","2","""event"",""trial"",""time""
""fullscreenenter"",""1"",""3876""
","
","
","""event"",""trial"",""time""
""fullscreenenter"",""1"",""3876""
","
","","","","","","59708.80000000447","<p> However, even if you choose the best park for the equipment, the kids may sometimes be sad. </p>","","0","instructions","","","","","","","","","","","","","",""
"learning-instructions","18","729626","0.0-8.0-0.0-0.10","1734","2","2","""event"",""trial"",""time""
""fullscreenenter"",""1"",""3876""
","
","
","""event"",""trial"",""time""
""fullscreenenter"",""1"",""3876""
","
","","","","","","41081.79999999702","<p> Similarly, even if you choose the <i>wrong</i> park for the equipment, the kids may still be happy sometimes.","","0","instructions","","","","","","","","","","","","","",""
"learning-instructions","19","745979","0.0-8.0-0.0-0.11","1734","2","2","""event"",""trial"",""time""
""fullscreenenter"",""1"",""3876""
","
","
","""event"",""trial"",""time""
""fullscreenenter"",""1"",""3876""
","
","","","","","","11296","<p> For example, the best park for this soccer ball is this one.<div style='float: center;'><img src='images/i1.png' width = '500' height = '268'></img>","","0","instructions","","","","","","","","","","","","","",""
"learning-instructions","20","844508","0.0-8.0-0.0-0.12","1734","2","2","""event"",""trial"",""time""
""fullscreenenter"",""1"",""3876""
","
","
","""event"",""trial"",""time""
""fullscreenenter"",""1"",""3876""
","
","","","","","","93250","<p> Let's see what happens if you choose this park for the soccer ball five times.","","0","instructions","","","","","","","","","","","","","",""
"learning-instructions","21","849006","0.0-8.0-0.0-0.13","1734","2","2","""event"",""trial"",""time""
""fullscreenenter"",""1"",""3876""
","
","
","""event"",""trial"",""time""
""fullscreenenter"",""1"",""3876""
","
","","","","","","2228.3000000044703","<p> The kids are happy.<div style='float: left;'><img src='images/i2.png' width = '640' height = '360'></img>","","0","instructions","","","","","","","","","","","","","",""
"learning-instructions","22","868405","0.0-8.0-0.0-0.14","1734","2","2","""event"",""trial"",""time""
""fullscreenenter"",""1"",""3876""
","
","
","""event"",""trial"",""time""
""fullscreenenter"",""1"",""3876""
","
","","","","","","17239.20000000298","<p> The kids are happy.<div style='float: left;'><img src='images/i3.png' width = '640' height = '360'></img>","","0","instructions","","","","","","","","","","","","","",""
"learning-instructions","23","871342","0.0-8.0-0.0-0.15","1734","2","2","""event"",""trial"",""time""
""fullscreenenter"",""1"",""3876""
","
","
","""event"",""trial"",""time""
""fullscreenenter"",""1"",""3876""
","
","","","","","","775.6000000014901","<p> The kids are happy.<div style='float: left;'><img src='images/i4.png' width = '640' height = '360'></img>","","0","instructions","","","","","","","","","","","","","",""
"learning-instructions","24","907948","0.0-8.0-0.0-0.16","1734","2","2","""event"",""trial"",""time""
""fullscreenenter"",""1"",""3876""
","
","
","""event"",""trial"",""time""
""fullscreenenter"",""1"",""3876""
","
","","","","","","34404.89999999851","<p> The kids are sad.<div style='float: left;'><img src='images/i5.png' width = '640' height = '360'></img>","","0","instructions","","","","","","","","","","","","","",""
"learning-instructions","25","947917","0.0-8.0-0.0-0.17","1734","2","2","""event"",""trial"",""time""
""fullscreenenter"",""1"",""3876""
","
","
","""event"",""trial"",""time""
""fullscreenenter"",""1"",""3876""
","
","","","","","","37807.69999999553","<p> The kids are happy.<div style='float: left;'><img src='images/i6.png' width = '640' height = '360'></img>","","0","instructions","","","","","","","","","","","","","",""
"learning-instructions","26","957163","0.0-8.0-0.0-0.18","1734","2","2","""event"",""trial"",""time""
""fullscreenenter"",""1"",""3876""
","
","
","""event"",""trial"",""time""
""fullscreenenter"",""1"",""3876""
","
","","","","","","1977.2999999970198","<p> As you can see, selecting that park for the soccer ball made the kids happy most of the time, but not all the time.","","0","instructions","","","","","","","","","","","","","",""
"learning-instructions","27","963975","0.0-8.0-0.0-0.19","1734","2","2","""event"",""trial"",""time""
""fullscreenenter"",""1"",""3876""
","
","
","""event"",""trial"",""time""
""fullscreenenter"",""1"",""3876""
","
","","","","","","813.1999999955297","<p> Now let's see what happens if you choose a DIFFERENT park for the soccer ball 5 times.","","0","instructions","","","","","","","","","","","","","",""
"learning-instructions","28","966641","0.0-8.0-0.0-0.20","1734","2","2","""event"",""trial"",""time""
""fullscreenenter"",""1"",""3876""
","
","
","""event"",""trial"",""time""
""fullscreenenter"",""1"",""3876""
","
","","","","","","466.19999999552965","<p> The kids are sad.<div style='float: left;'><img src='images/i7.png' width = '640' height = '360'></img>","","0","instructions","","","","","","","","","","","","","",""
"learning-instructions","29","968998","0.0-8.0-0.0-0.21","1734","2","2","""event"",""trial"",""time""
""fullscreenenter"",""1"",""3876""
","
","
","""event"",""trial"",""time""
""fullscreenenter"",""1"",""3876""
","
","","","","","","159.69999999552965","<p> The kids are sad.<div style='float: left;'><img src='images/i8.png' width = '640' height = '360'></img>","","0","instructions","","","","","","","","","","","","","",""
"learning-instructions","30","971764","0.0-8.0-0.0-0.22","1734","2","2","""event"",""trial"",""time""
""fullscreenenter"",""1"",""3876""
","
","
","""event"",""trial"",""time""
""fullscreenenter"",""1"",""3876""
","
","","","","","","602.8999999985099","<p> The kids are happy.<div style='float: left;'><img src='images/i9.png' width = '640' height = '360'></img>","","0","instructions","","","","","","","","","","","","","",""
"learning-instructions","31","974679","0.0-8.0-0.0-0.23","1734","2","2","""event"",""trial"",""time""
""fullscreenenter"",""1"",""3876""
","
","
","""event"",""trial"",""time""
""fullscreenenter"",""1"",""3876""
","
","","","","","","715","<p> The kids are sad.<div style='float: left;'><img src='images/i10.png' width = '640' height = '360'></img>","","0","instructions","","","","","","","","","","","","","",""
"learning-instructions","32","978186","0.0-8.0-0.0-0.24","1734","2","2","""event"",""trial"",""time""
""fullscreenenter"",""1"",""3876""
","
","
","""event"",""trial"",""time""
""fullscreenenter"",""1"",""3876""
","
","","","","","","1307.7999999970198","<p> The kids are sad.<div style='float: left;'><img src='images/i11.png' width = '640' height = '360'></img>","","0","instructions","","","","","","","","","","","","","",""
"learning-instructions","33","1134903","0.0-8.0-0.0-0.25","1734","2","2","""event"",""trial"",""time""
""fullscreenenter"",""1"",""3876""
","
","
","""event"",""trial"",""time""
""fullscreenenter"",""1"",""3876""
","
","","","","","","148608.3999999985","<p> As you can see, selecting the wrong park for the soccer ball made the kids sad most of the time, but not all the time.","","0","instructions","","","","","","","","","","","","","",""
"learning-instructions","34","1159416","0.0-8.0-0.0-0.26","1734","2","2","""event"",""trial"",""time""
""fullscreenenter"",""1"",""3876""
","
","
","""event"",""trial"",""time""
""fullscreenenter"",""1"",""3876""
","
","","","","","","15298.40000000596","<p> The different pieces of equipment belong in different parks. You need to try to learn which is the best park for each piece of equipment.","","0","instructions","","","","","","","","","","","","","",""
"learning-instructions","35","1293815","0.0-8.0-0.0-0.27","1734","2","2","""event"",""trial"",""time""
""fullscreenenter"",""1"",""3876""
","
","
","""event"",""trial"",""time""
""fullscreenenter"",""1"",""3876""
","
","","","","","","118018","<p> Try to choose the best park for each piece of equipment, because you will <b> WIN </b> 1 point for each time you make the kids happy and <b>LOSE</b> 1 point for each time you make them sad. </p><p> Remember, if you make the best choice, you will win 1 point most of the time, but not all the time. </p>","","0","instructions","","","","","","","","","","","","","",""
"learning-instructions","36","1300514","0.0-8.0-0.0-0.28","1734","2","2","""event"",""trial"",""time""
""fullscreenenter"",""1"",""3876""
","
","
","""event"",""trial"",""time""
""fullscreenenter"",""1"",""3876""
","
","","","","","","1112.7999999970198","<p> This is just a practice round, but in the real game, your bonus payment will depend on your total number of points.","","0","instructions","","","","","","","","","","","","","",""
"learning-instructions","37","1320643","0.0-8.0-0.0-0.29","1734","2","2","""event"",""trial"",""time""
""fullscreenenter"",""1"",""3876""
","
","
","""event"",""trial"",""time""
""fullscreenenter"",""1"",""3876""
","
","","","","","","9806.79999999702","<p> The position where each park appears will change throughout the game. </p><p> The position where the park appears <i> does not </i> influence how likely the kids are to be happy or sad. </p>","","0","instructions","","","","","","","","","","","","","",""
"learning-instructions","38","1552263","0.0-8.0-0.0-0.30","1734","2","2","""event"",""trial"",""time""
""fullscreenenter"",""1"",""3876""
","
","
","""event"",""trial"",""time""
""fullscreenenter"",""1"",""3876""
","
","","","","","","220809.1000000015","<p> You will have 4 seconds to make each choice. Try to respond before time runs out! </p><p> You will lose 1 point each time you do not make a response. </p>","","0","instructions","","","","","","","","","","","","","",""
"learning-instructions","39","1561155","0.0-8.0-0.0-0.31","1734","2","2","""event"",""trial"",""time""
""fullscreenenter"",""1"",""3876""
","
","
","""event"",""trial"",""time""
""fullscreenenter"",""1"",""3876""
","
","","","","","","2000","<p> Remember, you should use the 1, 2, and 3 keys to select the park for each piece of equipment. </p><br><div class=""choice-instructions-grid""> <div class=""choice-option""><img src=""images/park1.png"" class=""choice-option-img"" stage=""instructions"" position=""0"" ><div class=""choice-option-text""> Press ""1."" </div></div><div class=""choice-option""><img src=""images/park2.png"" class=""choice-option-img"" stage=""instructions"" position=""1"" ><div class=""choice-option-text""> Press ""2."" </div></div><div class=""choice-option""><img src=""images/park3.png"" class=""choice-option-img"" stage=""instructions"" position=""2"" ><div class=""choice-option-text""> Press ""3."" </div></div></div>","","0","instructions","","","","","","","","","","","","","",""
"html-button-response","40","1562289","0.0-8.0-1.0","1734","2","2","""event"",""trial"",""time""
""fullscreenenter"",""1"",""3876""
","
","
","""event"",""trial"",""time""
""fullscreenenter"",""1"",""3876""
","
","","","","","","1032.6000000014901","<p> Ready to practice? </p>","0","","","","","","","","","","","","","","","",""
"html-keyboard-response","41","1562891","0.0-8.0-2.0-0.0","1734","2","2","""event"",""trial"",""time""
""fullscreenenter"",""1"",""3876""
","
","
","""event"",""trial"",""time""
""fullscreenenter"",""1"",""3876""
","
","","","","","","null","<div style=""font-size:60px;"">+</div>","null","","fixation","","","","","","","","","","","","","",""
"learning-trial","42","1566897","0.0-8.0-2.0-1.0","1734","2","2","""event"",""trial"",""time""
""fullscreenenter"",""1"",""3876""
","
","
","""event"",""trial"",""time""
""fullscreenenter"",""1"",""3876""
","
","","","","","","2317","images/ball1.png","","","practice","images/park1.png","images/park2.png","images/park3.png","[0,1,2]","0","0","2","images/park2.png","-1","practice","","","",""
"html-keyboard-response","43","1567399","0.0-8.0-2.0-0.1","1734","2","2","""event"",""trial"",""time""
""fullscreenenter"",""1"",""3876""
","
","
","""event"",""trial"",""time""
""fullscreenenter"",""1"",""3876""
","
","","","","","","null","<div style=""font-size:60px;"">+</div>","null","","fixation","","","","","","","","","","","","","",""
"learning-trial","44","1571401","0.0-8.0-2.0-1.1","1734","2","2","""event"",""trial"",""time""
""fullscreenenter"",""1"",""3876""
","
","
","""event"",""trial"",""time""
""fullscreenenter"",""1"",""3876""
","
","","","","","","3305.8000000044703","images/racket2.png","","","practice","images/park1.png","images/park3.png","images/park2.png","[0,2,1]","1","2","1","images/park1.png","-1","practice","","","",""
"html-keyboard-response","45","1571902","0.0-8.0-2.0-0.2","1734","2","2","""event"",""trial"",""time""
""fullscreenenter"",""1"",""3876""
","
","
","""event"",""trial"",""time""
""fullscreenenter"",""1"",""3876""
","
","","","","","","null","<div style=""font-size:60px;"">+</div>","null","","fixation","","","","","","","","","","","","","",""
"learning-trial","46","1575906","0.0-8.0-2.0-1.2","1734","2","2","""event"",""trial"",""time""
""fullscreenenter"",""1"",""3876""
","
","
","""event"",""trial"",""time""
""fullscreenenter"",""1"",""3876""
","
","","","","","","2802.9000000059605","images/ball3.png","","","practice","images/park3.png","images/park2.png","images/park1.png","[2,1,0]","0","2","3","images/park1.png","-1","practice","","","",""
"html-keyboard-response","47","1576411","0.0-8.0-2.0-0.3","1734","2","2","""event"",""trial"",""time""
""fullscreenenter"",""1"",""3876""
","
","
","""event"",""trial"",""time""
""fullscreenenter"",""1"",""3876""
","
","","","","","","null","<div style=""font-size:60px;"">+</div>","null","","fixation","","","","","","","","","","","","","",""
"learning-trial","48","1580416","0.0-8.0-2.0-1.3","1734","2","2","""event"",""trial"",""time""
""fullscreenenter"",""1"",""3876""
","
","
","""event"",""trial"",""time""
""fullscreenenter"",""1"",""3876""
","
","","","","","","1541.8000000044703","images/ball1.png","","","practice","images/park1.png","images/park3.png","images/park2.png","[0,2,1]","0","0","2","images/park3.png","-1","practice","","","",""
"html-keyboard-response","49","1580917","0.0-8.0-2.0-0.4","1734","2","2","""event"",""trial"",""time""
""fullscreenenter"",""1"",""3876""
","
","
","""event"",""trial"",""time""
""fullscreenenter"",""1"",""3876""
","
","","","","","","null","<div style=""font-size:60px;"">+</div>","null","","fixation","","","","","","","","","","","","","",""
"learning-trial","50","1584921","0.0-8.0-2.0-1.4","1734","2","2","""event"",""trial"",""time""
""fullscreenenter"",""1"",""3876""
","
","
","""event"",""trial"",""time""
""fullscreenenter"",""1"",""3876""
","
","","","","","","1146.8000000044703","images/racket2.png","","","practice","images/park3.png","images/park1.png","images/park2.png","[2,0,1]","1","2","2","images/park1.png","-1","practice","","","",""
"html-keyboard-response","51","1585424","0.0-8.0-2.0-0.5","1734","2","2","""event"",""trial"",""time""
""fullscreenenter"",""1"",""3876""
","
","
","""event"",""trial"",""time""
""fullscreenenter"",""1"",""3876""
","
","","","","","","null","<div style=""font-size:60px;"">+</div>","null","","fixation","","","","","","","","","","","","","",""
"learning-trial","52","1589432","0.0-8.0-2.0-1.5","1734","2","2","""event"",""trial"",""time""
""fullscreenenter"",""1"",""3876""
","
","
","""event"",""trial"",""time""
""fullscreenenter"",""1"",""3876""
","
","","","","","","1775.8000000044703","images/racket3.png","","","practice","images/park3.png","images/park1.png","images/park2.png","[2,0,1]","1","2","2","images/park1.png","-1","practice","","","",""
"html-keyboard-response","53","1589937","0.0-8.0-2.0-0.6","1734","2","2","""event"",""trial"",""time""
""fullscreenenter"",""1"",""3876""
","
","
","""event"",""trial"",""time""
""fullscreenenter"",""1"",""3876""
","
","","","","","","null","<div style=""font-size:60px;"">+</div>","null","","fixation","","","","","","","","","","","","","",""
"learning-trial","54","1593942","0.0-8.0-2.0-1.6","1734","2","2","""event"",""trial"",""time""
""fullscreenenter"",""1"",""3876""
","
","
","""event"",""trial"",""time""
""fullscreenenter"",""1"",""3876""
","
","","","","","","1527.8000000044703","images/ball4.png","","","practice","images/park3.png","images/park2.png","images/park1.png","[2,1,0]","2","0","3","images/park1.png","-1","practice","","","",""
"html-keyboard-response","55","1594447","0.0-8.0-2.0-0.7","1734","2","2","""event"",""trial"",""time""
""fullscreenenter"",""1"",""3876""
","
","
","""event"",""trial"",""time""
""fullscreenenter"",""1"",""3876""
","
","","","","","","null","<div style=""font-size:60px;"">+</div>","null","","fixation","","","","","","","","","","","","","",""
"learning-trial","56","1598450","0.0-8.0-2.0-1.7","1734","2","2","""event"",""trial"",""time""
""fullscreenenter"",""1"",""3876""
","
","
","""event"",""trial"",""time""
""fullscreenenter"",""1"",""3876""
","
","","","","","","608.7999999970198","images/ball2.png","","","practice","images/park3.png","images/park2.png","images/park1.png","[2,1,0]","2","0","2","images/park2.png","-1","practice","","","",""
"html-keyboard-response","57","1598952","0.0-8.0-2.0-0.8","1734","2","2","""event"",""trial"",""time""
""fullscreenenter"",""1"",""3876""
","
","
","""event"",""trial"",""time""
""fullscreenenter"",""1"",""3876""
","
","","","","","","null","<div style=""font-size:60px;"">+</div>","null","","fixation","","","","","","","","","","","","","",""
"learning-trial","58","1602955","0.0-8.0-2.0-1.8","1734","2","2","""event"",""trial"",""time""
""fullscreenenter"",""1"",""3876""
","
","
","""event"",""trial"",""time""
""fullscreenenter"",""1"",""3876""
","
","","","","","","808.6999999955297","images/ball3.png","","","practice","images/park2.png","images/park3.png","images/park1.png","[1,2,0]","0","2","1","images/park2.png","-1","practice","","","",""
"html-keyboard-response","59","1603456","0.0-8.0-2.0-0.9","1734","2","2","""event"",""trial"",""time""
""fullscreenenter"",""1"",""3876""
","
","
","""event"",""trial"",""time""
""fullscreenenter"",""1"",""3876""
","
","","","","","","null","<div style=""font-size:60px;"">+</div>","null","","fixation","","","","","","","","","","","","","",""
"learning-trial","60","1607461","0.0-8.0-2.0-1.9","1734","2","2","""event"",""trial"",""time""
""fullscreenenter"",""1"",""3876""
","
","
","""event"",""trial"",""time""
""fullscreenenter"",""1"",""3876""
","
","","","","","","1607.6000000014901","images/racket3.png","","","practice","images/park3.png","images/park1.png","images/park2.png","[2,0,1]","1","2","1","images/park3.png","-1","practice","","","",""
"html-keyboard-response","61","1607966","0.0-8.0-2.0-0.10","1734","2","2","""event"",""trial"",""time""
""fullscreenenter"",""1"",""3876""
","
","
","""event"",""trial"",""time""
""fullscreenenter"",""1"",""3876""
","
","","","","","","null","<div style=""font-size:60px;"">+</div>","null","","fixation","","","","","","","","","","","","","",""
"learning-trial","62","1611972","0.0-8.0-2.0-1.10","1734","2","2","""event"",""trial"",""time""
""fullscreenenter"",""1"",""3876""
","
","
","""event"",""trial"",""time""
""fullscreenenter"",""1"",""3876""
","
","","","","","","1561.0999999940395","images/ball4.png","","","practice","images/park1.png","images/park2.png","images/park3.png","[0,1,2]","2","2","1","images/park1.png","-1","practice","","","",""
"html-keyboard-response","63","1612477","0.0-8.0-2.0-0.11","1734","2","2","""event"",""trial"",""time""
""fullscreenenter"",""1"",""3876""
","
","
","""event"",""trial"",""time""
""fullscreenenter"",""1"",""3876""
","
","","","","","","null","<div style=""font-size:60px;"">+</div>","null","","fixation","","","","","","","","","","","","","",""
"learning-trial","64","1616482","0.0-8.0-2.0-1.11","1734","2","2","""event"",""trial"",""time""
""fullscreenenter"",""1"",""3876""
","
","
","""event"",""trial"",""time""
""fullscreenenter"",""1"",""3876""
","
","","","","","","346.70000000298023","images/ball2.png","","","practice","images/park3.png","images/park1.png","images/park2.png","[2,0,1]","2","0","2","images/park1.png","-1","practice","","","",""
"html-button-response","65","1618657","0.0-8.0-3.0","1734","2","2","""event"",""trial"",""time""
""fullscreenenter"",""1"",""3876""
","
","
","""event"",""trial"",""time""
""fullscreenenter"",""1"",""3876""
","
","","","","","","2172.39999999851","<p> You earned -12 points in the practice round! </p>","0","","break","","","","","","","","","","","","","",""
"learning-instructions","66","1627575","0.0-8.0-4.0-0.0","1734","2","2","""event"",""trial"",""time""
""fullscreenenter"",""1"",""3876""
","
","
","""event"",""trial"",""time""
""fullscreenenter"",""1"",""3876""
","
","","","","","","1240.5","<p> It's almost time to start the real game. </p><p> Before you start, we're going to ask you a few questions about how the game works. </p>","","0","instructions","","","","","","","","","","","","","",""
"preload","67","1630315","0.0-8.0-5.0","1734","2","2","""event"",""trial"",""time""
""fullscreenenter"",""1"",""3876""
","
","
","""event"",""trial"",""time""
""fullscreenenter"",""1"",""3876""
","
","true","false","[]","[]","[]","","","","","","","","","","","","","","","","","","",""
"comp-q","68","1636605","0.0-8.0-6.0-0.0","1734","2","2","""event"",""trial"",""time""
""fullscreenenter"",""1"",""3876""
","
","
","""event"",""trial"",""time""
""fullscreenenter"",""1"",""3876""
","
","","","","","","837.8999999985099","<p> <b> True or False? </b> </p><p> If you choose the best option, you will always earn 1 point. </p>","","0","comp_question","","","","","","","","","","","false","","",""
"comp-q","69","1642892","0.0-8.0-6.0-1.0","1734","2","2","""event"",""trial"",""time""
""fullscreenenter"",""1"",""3876""
","
","
","""event"",""trial"",""time""
""fullscreenenter"",""1"",""3876""
","
","","","","","","734.2000000029802","<p><b> Incorrect. </b> Sometimes you will lose 1 point, even if you choose the best option. </p>","","0","comp_answer","","","","","","","","","","","","","",""
"comp-q","70","1648100","0.0-8.0-6.0-0.1","1734","2","2","""event"",""trial"",""time""
""fullscreenenter"",""1"",""3876""
","
","
","""event"",""trial"",""time""
""fullscreenenter"",""1"",""3876""
","
","","","","","","578.1000000014901","<p> <b> True or False? </b> </p><p> You will have as much time as you want to make each choice. </p>","","1","comp_question","","","","","","","","","","","true","","",""
"comp-q","71","1656081","0.0-8.0-6.0-1.1","1734","2","2","""event"",""trial"",""time""
""fullscreenenter"",""1"",""3876""
","
","
","""event"",""trial"",""time""
""fullscreenenter"",""1"",""3876""
","
","","","","","","3167.2999999970198","<p> <b> That's right! </b> You will only have 4 seconds to make each choice. </p>","","0","comp_answer","","","","","","","","","","","","","",""
"comp-q","72","1662888","0.0-8.0-6.0-0.2","1734","2","2","""event"",""trial"",""time""
""fullscreenenter"",""1"",""3876""
","
","
","""event"",""trial"",""time""
""fullscreenenter"",""1"",""3876""
","
","","","","","","656.6000000014901","<p> <b> True or False? </b> </p><p> You should use the '1', '2', and '3' keys to make your choices. </p>","","0","comp_question","","","","","","","","","","","true","","",""
"comp-q","73","1668439","0.0-8.0-6.0-1.2","1734","2","2","""event"",""trial"",""time""
""fullscreenenter"",""1"",""3876""
","
","
","""event"",""trial"",""time""
""fullscreenenter"",""1"",""3876""
","
","","","","","","710.7999999970198","<p> <b> That's right! </b> You should use the '1', '2', and '3' keys to make each choice. </p>","","0","comp_answer","","","","","","","","","","","","","",""
"learning-instructions","74","1678178","0.0-8.0-7.0-0.0","1734","2","2","""event"",""trial"",""time""
""fullscreenenter"",""1"",""3876""
","
","
","""event"",""trial"",""time""
""fullscreenenter"",""1"",""3876""
","
","","","","","","1254.6999999955297","<p> It's now time to start the real game. </p>Do your best, because the points you earn in the next rounds will influence your bonus payment. </p>","","0","instructions","","","","","","","","","","","","","",""
"preload","75","1682843","0.0-9.0-0.0","1734","2","2","""event"",""trial"",""time""
""fullscreenenter"",""1"",""3876""
","
","
","""event"",""trial"",""time""
""fullscreenenter"",""1"",""3876""
","
","true","false","[]","[]","[]","","","","","","","","","","","","","","","","","","",""
"learning-instructions","76","1690259","0.0-9.0-1.0-0.0","1734","2","2","""event"",""trial"",""time""
""fullscreenenter"",""1"",""3876""
","
","
","""event"",""trial"",""time""
""fullscreenenter"",""1"",""3876""
","
","","","","","","919.3999999985099","<p> Your goal in this round is to buy different types of fruits. </p><p> You will try to purchase many fruits from different stores. </p></div>","","0","instructions","","","","","","","","","","","","","",""
"learning-instructions","77","1699405","0.0-9.0-1.0-0.1","1734","2","2","""event"",""trial"",""time""
""fullscreenenter"",""1"",""3876""
","
","
","""event"",""trial"",""time""
""fullscreenenter"",""1"",""3876""
","
","","","","","","649.8000000044703","<p> On each turn, you will see a picture of a fruit and three different stores.  </p><p> You need to select the store where you can buy that fruit.  </p>","","0","instructions","","","","","","","","","","","","","",""
"learning-instructions","78","1707822","0.0-9.0-1.0-0.2","1734","2","2","""event"",""trial"",""time""
""fullscreenenter"",""1"",""3876""
","
","
","""event"",""trial"",""time""
""fullscreenenter"",""1"",""3876""
","
","","","","","","1044.6999999955297","<p> You can select the store on the left by pressing 1, the store in the middle by pressing 2, and the store on the right by pressing 3. </p><br><div class=""choice-instructions-grid""> <div class=""choice-option""><img src=""images/fruit_choice1.png"" class=""choice-option-img"" stage=""instructions"" position=""0"" ><div class=""choice-option-text""> Press ""1."" </div></div><div class=""choice-option""><img src=""images/fruit_choice2.png"" class=""choice-option-img"" stage=""instructions"" position=""1"" ><div class=""choice-option-text""> Press ""2."" </div></div><div class=""choice-option""><img src=""images/fruit_choice3.png"" class=""choice-option-img"" stage=""instructions"" position=""2"" ><div class=""choice-option-text""> Press ""3."" </div></div></div>","","0","instructions","","","","","","","","","","","","","",""
"learning-instructions","79","1713838","0.0-9.0-1.0-0.3","1734","2","2","""event"",""trial"",""time""
""fullscreenenter"",""1"",""3876""
","
","
","""event"",""trial"",""time""
""fullscreenenter"",""1"",""3876""
","
","","","","","","1075.7999999970198","<p> If you find the fruit in the store you chose, you will get to buy and eat it! </p><div style='float: center;'><img src='images/check.png' width = '200' height = '200'></img>","","0","instructions","","","","","","","","","","","","","",""
"learning-instructions","80","1746075","0.0-9.0-1.0-0.4","1734","2","2","""event"",""trial"",""time""
""fullscreenenter"",""1"",""3876""
","
","
","""event"",""trial"",""time""
""fullscreenenter"",""1"",""3876""
","
","","","","","","27770.19999999553","<p> But, if the fruit is not in that store, you will be hungry. </p><div style='float: center;'><img src='images/x.png' width = '200' height = '200'></img>","","0","instructions","","","","","","","","","","","","","",""
"learning-instructions","81","1768636","0.0-9.0-1.0-0.5","1734","2","2","""event"",""trial"",""time""
""fullscreenenter"",""1"",""3876""
","
","
","""event"",""trial"",""time""
""fullscreenenter"",""1"",""3876""
","
","","","","","","12791.39999999851","<p> Importantly, each fruit is more likely to be found in one of the stores. </p><p> If you choose the correct store, you will be more likely to be able to buy the fruit! </p>","","0","instructions","","","","","","","","","","","","","",""
"learning-instructions","82","1780248","0.0-9.0-1.0-0.6","1734","2","2","""event"",""trial"",""time""
""fullscreenenter"",""1"",""3876""
","
","
","""event"",""trial"",""time""
""fullscreenenter"",""1"",""3876""
","
","","","","","","1160.6000000014901","<p> However, even if you choose the best store for the fruit, the store might not have it sometimes. </p><p> Similarly, even if you choose the <i>wrong</i> store, it might still have the fruit.","","0","instructions","","","","","","","","","","","","","",""
"learning-instructions","83","1809720","0.0-9.0-1.0-0.7","1734","2","2","""event"",""trial"",""time""
""fullscreenenter"",""1"",""3876""
","
","
","""event"",""trial"",""time""
""fullscreenenter"",""1"",""3876""
","
","","","","","","17293.5","<p> Try to choose the best store for each fruit, because you will <b> WIN </b> 1 point for each fruit you eat and <b>LOSE</b> 1 point each time you are hungry. </p><p> Your bonus payment will depend on your total number of points.","","0","instructions","","","","","","","","","","","","","",""
"learning-instructions","84","1952564","0.0-9.0-1.0-0.8","1734","2","2","""event"",""trial"",""time""
""fullscreenenter"",""1"",""3876""
","
","
","""event"",""trial"",""time""
""fullscreenenter"",""1"",""3876""
","
","","","","","","134646.40000000596","<p> The position of each store will change throughout the round. </p><p> The store's position <i> does not </i> influence how likely you are to find the fruit. </p>","","0","instructions","","","","","","","","","","","","","",""
"learning-instructions","85","2065644","0.0-9.0-1.0-0.9","1734","2","2","""event"",""trial"",""time""
""fullscreenenter"",""1"",""3876""
","
","
","""event"",""trial"",""time""
""fullscreenenter"",""1"",""3876""
","
","","","","","","103686.79999999702","<p> You will have 4 seconds to make each choice. Try to respond before time runs out! </p><p> You will lose 1 point each time you do not make a response. </p>","","0","instructions","","","","","","","","","","","","","",""
"html-keyboard-response","86","2066249","0.0-9.0-2.0-0.0","1734","2","2","""event"",""trial"",""time""
""fullscreenenter"",""1"",""3876""
","
","
","""event"",""trial"",""time""
""fullscreenenter"",""1"",""3876""
","
","","","","","","null","<div style=""font-size:60px;"">+</div>","null","","fixation","","","","","","","","","","","","","",""
"learning-trial","87","2070251","0.0-9.0-2.0-1.0","1734","2","2","""event"",""trial"",""time""
""fullscreenenter"",""1"",""3876""
","
","
","""event"",""trial"",""time""
""fullscreenenter"",""1"",""3876""
","
","","","","","","1047.5","images/orange5.png","","","learning","images/fruit_choice1.png","images/fruit_choice3.png","images/fruit_choice2.png","[0,2,1]","1","2","2","images/fruit_choice3.png","-1","fruit","","orange","2","0"
"html-keyboard-response","88","2070754","0.0-9.0-2.0-0.1","1734","2","2","""event"",""trial"",""time""
""fullscreenenter"",""1"",""3876""
","
","
","""event"",""trial"",""time""
""fullscreenenter"",""1"",""3876""
","
","","","","","","null","<div style=""font-size:60px;"">+</div>","null","","fixation","","","","","","","","","","","","","",""
"learning-trial","89","2074760","0.0-9.0-2.0-1.1","1734","2","2","""event"",""trial"",""time""
""fullscreenenter"",""1"",""3876""
","
","
","""event"",""trial"",""time""
""fullscreenenter"",""1"",""3876""
","
","","","","","","438.19999999552965","images/banana2.png","","","learning","images/fruit_choice1.png","images/fruit_choice2.png","images/fruit_choice3.png","[0,1,2]","2","2","1","images/fruit_choice1.png","-1","fruit","","banana","2","0"
"html-keyboard-response","90","2075265","0.0-9.0-2.0-0.2","1734","2","2","""event"",""trial"",""time""
""fullscreenenter"",""1"",""3876""
","
","
","""event"",""trial"",""time""
""fullscreenenter"",""1"",""3876""
","
","","","","","","null","<div style=""font-size:60px;"">+</div>","null","","fixation","","","","","","","","","","","","","",""
"learning-trial","91","2079270","0.0-9.0-2.0-1.2","1734","2","2","""event"",""trial"",""time""
""fullscreenenter"",""1"",""3876""
","
","
","""event"",""trial"",""time""
""fullscreenenter"",""1"",""3876""
","
","","","","","","1063.1000000014901","images/orange5.png","","","learning","images/fruit_choice1.png","images/fruit_choice3.png","images/fruit_choice2.png","[0,2,1]","1","2","3","images/fruit_choice2.png","1","fruit","","orange","2","0"
"html-keyboard-response","92","2079775","0.0-9.0-2.0-0.3","1734","2","2","""event"",""trial"",""time""
""fullscreenenter"",""1"",""3876""
","
","
","""event"",""trial"",""time""
""fullscreenenter"",""1"",""3876""
","
","","","","","","null","<div style=""font-size:60px;"">+</div>","null","","fixation","","","","","","","","","","","","","",""
"learning-trial","93","2083781","0.0-9.0-2.0-1.3","1734","2","2","""event"",""trial"",""time""
""fullscreenenter"",""1"",""3876""
","
","
","""event"",""trial"",""time""
""fullscreenenter"",""1"",""3876""
","
","","","","","","905.1999999955297","images/banana4.png","","","learning","images/fruit_choice1.png","images/fruit_choice3.png","images/fruit_choice2.png","[0,2,1]","1","2","2","images/fruit_choice3.png","-1","fruit","","banana","2","0"
"html-keyboard-response","94","2084285","0.0-9.0-2.0-0.4","1734","2","2","""event"",""trial"",""time""
""fullscreenenter"",""1"",""3876""
","
","
","""event"",""trial"",""time""
""fullscreenenter"",""1"",""3876""
","
","","","","","","null","<div style=""font-size:60px;"">+</div>","null","","fixation","","","","","","","","","","","","","",""
"learning-trial","95","2088290","0.0-9.0-2.0-1.4","1734","2","2","""event"",""trial"",""time""
""fullscreenenter"",""1"",""3876""
","
","
","""event"",""trial"",""time""
""fullscreenenter"",""1"",""3876""
","
","","","","","","1059","images/orange1.png","","","learning","images/fruit_choice3.png","images/fruit_choice2.png","images/fruit_choice1.png","[2,1,0]","0","2","3","images/fruit_choice1.png","1","fruit","","orange","2","0"
"html-keyboard-response","96","2088796","0.0-9.0-2.0-0.5","1734","2","2","""event"",""trial"",""time""
""fullscreenenter"",""1"",""3876""
","
","
","""event"",""trial"",""time""
""fullscreenenter"",""1"",""3876""
","
","","","","","","null","<div style=""font-size:60px;"">+</div>","null","","fixation","","","","","","","","","","","","","",""
"learning-trial","97","2092801","0.0-9.0-2.0-1.5","1734","2","2","""event"",""trial"",""time""
""fullscreenenter"",""1"",""3876""
","
","
","""event"",""trial"",""time""
""fullscreenenter"",""1"",""3876""
","
","","","","","","652.3999999985099","images/apple4.png","","","learning","images/fruit_choice2.png","images/fruit_choice1.png","images/fruit_choice3.png","[1,0,2]","0","1","1","images/fruit_choice2.png","-1","fruit","","apple","2","0"
"html-keyboard-response","98","2093306","0.0-9.0-2.0-0.6","1734","2","2","""event"",""trial"",""time""
""fullscreenenter"",""1"",""3876""
","
","
","""event"",""trial"",""time""
""fullscreenenter"",""1"",""3876""
","
","","","","","","null","<div style=""font-size:60px;"">+</div>","null","","fixation","","","","","","","","","","","","","",""
"learning-trial","99","2097311","0.0-9.0-2.0-1.6","1734","2","2","""event"",""trial"",""time""
""fullscreenenter"",""1"",""3876""
","
","
","""event"",""trial"",""time""
""fullscreenenter"",""1"",""3876""
","
","","","","","","405.5","images/orange1.png","","","learning","images/fruit_choice1.png","images/fruit_choice3.png","images/fruit_choice2.png","[0,2,1]","0","0","2","images/fruit_choice3.png","-1","fruit","","orange","2","0"
"html-keyboard-response","100","2097816","0.0-9.0-2.0-0.7","1734","2","2","""event"",""trial"",""time""
""fullscreenenter"",""1"",""3876""
","
","
","""event"",""trial"",""time""
""fullscreenenter"",""1"",""3876""
","
","","","","","","null","<div style=""font-size:60px;"">+</div>","null","","fixation","","","","","","","","","","","","","",""
"learning-trial","101","2101821","0.0-9.0-2.0-1.7","1734","2","2","""event"",""trial"",""time""
""fullscreenenter"",""1"",""3876""
","
","
","""event"",""trial"",""time""
""fullscreenenter"",""1"",""3876""
","
","","","","","","550.9000000059605","images/orange1.png","","","learning","images/fruit_choice2.png","images/fruit_choice1.png","images/fruit_choice3.png","[1,0,2]","0","1","2","images/fruit_choice1.png","1","fruit","","orange","2","0"
"html-keyboard-response","102","2102327","0.0-9.0-2.0-0.8","1734","2","2","""event"",""trial"",""time""
""fullscreenenter"",""1"",""3876""
","
","
","""event"",""trial"",""time""
""fullscreenenter"",""1"",""3876""
","
","","","","","","null","<div style=""font-size:60px;"">+</div>","null","","fixation","","","","","","","","","","","","","",""
"learning-trial","103","2106331","0.0-9.0-2.0-1.8","1734","2","2","""event"",""trial"",""time""
""fullscreenenter"",""1"",""3876""
","
","
","""event"",""trial"",""time""
""fullscreenenter"",""1"",""3876""
","
","","","","","","392.5","images/banana4.png","","","learning","images/fruit_choice2.png","images/fruit_choice3.png","images/fruit_choice1.png","[1,2,0]","1","0","2","images/fruit_choice3.png","-1","fruit","","banana","2","0"
"html-keyboard-response","104","2106832","0.0-9.0-2.0-0.9","1734","2","2","""event"",""trial"",""time""
""fullscreenenter"",""1"",""3876""
","
","
","""event"",""trial"",""time""
""fullscreenenter"",""1"",""3876""
","
","","","","","","null","<div style=""font-size:60px;"">+</div>","null","","fixation","","","","","","","","","","","","","",""
"learning-trial","105","2110835","0.0-9.0-2.0-1.9","1734","2","2","""event"",""trial"",""time""
""fullscreenenter"",""1"",""3876""
","
","
","""event"",""trial"",""time""
""fullscreenenter"",""1"",""3876""
","
","","","","","","318.5","images/orange3.png","","","learning","images/fruit_choice2.png","images/fruit_choice1.png","images/fruit_choice3.png","[1,0,2]","2","2","2","images/fruit_choice1.png","-1","fruit","","orange","2","0"
"html-keyboard-response","106","2111338","0.0-9.0-2.0-0.10","1734","2","2","""event"",""trial"",""time""
""fullscreenenter"",""1"",""3876""
","
","
","""event"",""trial"",""time""
""fullscreenenter"",""1"",""3876""
","
","","","","","","null","<div style=""font-size:60px;"">+</div>","null","","fixation","","","","","","","","","","","","","",""
"learning-trial","107","2115341","0.0-9.0-2.0-1.10","1734","2","2","""event"",""trial"",""time""
""fullscreenenter"",""1"",""3876""
","
","
","""event"",""trial"",""time""
""fullscreenenter"",""1"",""3876""
","
","","","","","","293","images/banana3.png","","","learning","images/fruit_choice2.png","images/fruit_choice3.png","images/fruit_choice1.png","[1,2,0]","0","2","2","images/fruit_choice3.png","-1","fruit","","banana","2","0"
"html-keyboard-response","108","2115842","0.0-9.0-2.0-0.11","1734","2","2","""event"",""trial"",""time""
""fullscreenenter"",""1"",""3876""
","
","
","""event"",""trial"",""time""
""fullscreenenter"",""1"",""3876""
","
","","","","","","null","<div style=""font-size:60px;"">+</div>","null","","fixation","","","","","","","","","","","","","",""
"learning-trial","109","2119846","0.0-9.0-2.0-1.11","1734","2","2","""event"",""trial"",""time""
""fullscreenenter"",""1"",""3876""
","
","
","""event"",""trial"",""time""
""fullscreenenter"",""1"",""3876""
","
","","","","","","253.10000000149012","images/banana3.png","","","learning","images/fruit_choice2.png","images/fruit_choice1.png","images/fruit_choice3.png","[1,0,2]","0","1","1","images/fruit_choice2.png","-1","fruit","","banana","2","0"
"html-keyboard-response","110","2120350","0.0-9.0-2.0-0.12","1734","2","2","""event"",""trial"",""time""
""fullscreenenter"",""1"",""3876""
","
","
","""event"",""trial"",""time""
""fullscreenenter"",""1"",""3876""
","
","","","","","","null","<div style=""font-size:60px;"">+</div>","null","","fixation","","","","","","","","","","","","","",""
"learning-trial","111","2124356","0.0-9.0-2.0-1.12","1734","2","2","""event"",""trial"",""time""
""fullscreenenter"",""1"",""3876""
","
","
","""event"",""trial"",""time""
""fullscreenenter"",""1"",""3876""
","
","","","","","","256.5","images/banana3.png","","","learning","images/fruit_choice2.png","images/fruit_choice1.png","images/fruit_choice3.png","[1,0,2]","0","1","2","images/fruit_choice1.png","1","fruit","","banana","2","0"
"html-keyboard-response","112","2124861","0.0-9.0-2.0-0.13","1734","2","2","""event"",""trial"",""time""
""fullscreenenter"",""1"",""3876""
","
","
","""event"",""trial"",""time""
""fullscreenenter"",""1"",""3876""
","
","","","","","","null","<div style=""font-size:60px;"">+</div>","null","","fixation","","","","","","","","","","","","","",""
"learning-trial","113","2128866","0.0-9.0-2.0-1.13","1734","2","2","""event"",""trial"",""time""
""fullscreenenter"",""1"",""3876""
","
","
","""event"",""trial"",""time""
""fullscreenenter"",""1"",""3876""
","
","","","","","","305.59999999403954","images/orange3.png","","","learning","images/fruit_choice3.png","images/fruit_choice1.png","images/fruit_choice2.png","[2,0,1]","2","0","2","images/fruit_choice1.png","-1","fruit","","orange","2","0"
"html-keyboard-response","114","2129371","0.0-9.0-2.0-0.14","1734","2","2","""event"",""trial"",""time""
""fullscreenenter"",""1"",""3876""
","
","
","""event"",""trial"",""time""
""fullscreenenter"",""1"",""3876""
","
","","","","","","null","<div style=""font-size:60px;"">+</div>","null","","fixation","","","","","","","","","","","","","",""
"learning-trial","115","2133377","0.0-9.0-2.0-1.14","1734","2","2","""event"",""trial"",""time""
""fullscreenenter"",""1"",""3876""
","
","
","""event"",""trial"",""time""
""fullscreenenter"",""1"",""3876""
","
","","","","","","323.69999999552965","images/banana2.png","","","learning","images/fruit_choice3.png","images/fruit_choice1.png","images/fruit_choice2.png","[2,0,1]","2","0","1","images/fruit_choice3.png","1","fruit","","banana","2","0"
"html-keyboard-response","116","2133882","0.0-9.0-2.0-0.15","1734","2","2","""event"",""trial"",""time""
""fullscreenenter"",""1"",""3876""
","
","
","""event"",""trial"",""time""
""fullscreenenter"",""1"",""3876""
","
","","","","","","null","<div style=""font-size:60px;"">+</div>","null","","fixation","","","","","","","","","","","","","",""
"learning-trial","117","2137887","0.0-9.0-2.0-1.15","1734","2","2","""event"",""trial"",""time""
""fullscreenenter"",""1"",""3876""
","
","
","""event"",""trial"",""time""
""fullscreenenter"",""1"",""3876""
","
","","","","","","268.40000000596046","images/apple3.png","","","learning","images/fruit_choice1.png","images/fruit_choice2.png","images/fruit_choice3.png","[0,1,2]","1","1","1","images/fruit_choice1.png","1","fruit","","apple","2","0"
"html-keyboard-response","118","2138392","0.0-9.0-2.0-0.16","1734","2","2","""event"",""trial"",""time""
""fullscreenenter"",""1"",""3876""
","
","
","""event"",""trial"",""time""
""fullscreenenter"",""1"",""3876""
","
","","","","","","null","<div style=""font-size:60px;"">+</div>","null","","fixation","","","","","","","","","","","","","",""
"learning-trial","119","2142397","0.0-9.0-2.0-1.16","1734","2","2","""event"",""trial"",""time""
""fullscreenenter"",""1"",""3876""
","
","
","""event"",""trial"",""time""
""fullscreenenter"",""1"",""3876""
","
","","","","","","318.29999999701977","images/banana2.png","","","learning","images/fruit_choice3.png","images/fruit_choice1.png","images/fruit_choice2.png","[2,0,1]","2","0","1","images/fruit_choice3.png","1","fruit","","banana","2","0"
"html-keyboard-response","120","2142902","0.0-9.0-2.0-0.17","1734","2","2","""event"",""trial"",""time""
""fullscreenenter"",""1"",""3876""
","
","
","""event"",""trial"",""time""
""fullscreenenter"",""1"",""3876""
","
","","","","","","null","<div style=""font-size:60px;"">+</div>","null","","fixation","","","","","","","","","","","","","",""
"learning-trial","121","2146908","0.0-9.0-2.0-1.17","1734","2","2","""event"",""trial"",""time""
""fullscreenenter"",""1"",""3876""
","
","
","""event"",""trial"",""time""
""fullscreenenter"",""1"",""3876""
","
","","","","","","464.3999999985099","images/orange5.png","","","learning","images/fruit_choice1.png","images/fruit_choice3.png","images/fruit_choice2.png","[0,2,1]","1","2","2","images/fruit_choice3.png","-1","fruit","","orange","2","0"
"html-keyboard-response","122","2147412","0.0-9.0-2.0-0.18","1734","2","2","""event"",""trial"",""time""
""fullscreenenter"",""1"",""3876""
","
","
","""event"",""trial"",""time""
""fullscreenenter"",""1"",""3876""
","
","","","","","","null","<div style=""font-size:60px;"">+</div>","null","","fixation","","","","","","","","","","","","","",""
"learning-trial","123","2151418","0.0-9.0-2.0-1.18","1734","2","2","""event"",""trial"",""time""
""fullscreenenter"",""1"",""3876""
","
","
","""event"",""trial"",""time""
""fullscreenenter"",""1"",""3876""
","
","","","","","","385.3999999985099","images/orange5.png","","","learning","images/fruit_choice1.png","images/fruit_choice3.png","images/fruit_choice2.png","[0,2,1]","1","2","3","images/fruit_choice2.png","-1","fruit","","orange","2","0"
"html-keyboard-response","124","2151923","0.0-9.0-2.0-0.19","1734","2","2","""event"",""trial"",""time""
""fullscreenenter"",""1"",""3876""
","
","
","""event"",""trial"",""time""
""fullscreenenter"",""1"",""3876""
","
","","","","","","null","<div style=""font-size:60px;"">+</div>","null","","fixation","","","","","","","","","","","","","",""
"learning-trial","125","2155929","0.0-9.0-2.0-1.19","1734","2","2","""event"",""trial"",""time""
""fullscreenenter"",""1"",""3876""
","
","
","""event"",""trial"",""time""
""fullscreenenter"",""1"",""3876""
","
","","","","","","338.29999999701977","images/banana4.png","","","learning","images/fruit_choice2.png","images/fruit_choice1.png","images/fruit_choice3.png","[1,0,2]","1","0","1","images/fruit_choice2.png","1","fruit","","banana","2","0"
"html-keyboard-response","126","2156430","0.0-9.0-2.0-0.20","1734","2","2","""event"",""trial"",""time""
""fullscreenenter"",""1"",""3876""
","
","
","""event"",""trial"",""time""
""fullscreenenter"",""1"",""3876""
","
","","","","","","null","<div style=""font-size:60px;"">+</div>","null","","fixation","","","","","","","","","","","","","",""
"learning-trial","127","2160433","0.0-9.0-2.0-1.20","1734","2","2","""event"",""trial"",""time""
""fullscreenenter"",""1"",""3876""
","
","
","""event"",""trial"",""time""
""fullscreenenter"",""1"",""3876""
","
","","","","","","279.8999999985099","images/orange1.png","","","learning","images/fruit_choice1.png","images/fruit_choice2.png","images/fruit_choice3.png","[0,1,2]","0","0","3","images/fruit_choice3.png","-1","fruit","","orange","2","0"
"html-keyboard-response","128","2160936","0.0-9.0-2.0-0.21","1734","2","2","""event"",""trial"",""time""
""fullscreenenter"",""1"",""3876""
","
","
","""event"",""trial"",""time""
""fullscreenenter"",""1"",""3876""
","
","","","","","","null","<div style=""font-size:60px;"">+</div>","null","","fixation","","","","","","","","","","","","","",""
"learning-trial","129","2164938","0.0-9.0-2.0-1.21","1734","2","2","""event"",""trial"",""time""
""fullscreenenter"",""1"",""3876""
","
","
","""event"",""trial"",""time""
""fullscreenenter"",""1"",""3876""
","
","","","","","","125.40000000596046","images/orange3.png","","","learning","images/fruit_choice3.png","images/fruit_choice1.png","images/fruit_choice2.png","[2,0,1]","2","0","2","images/fruit_choice1.png","-1","fruit","","orange","2","0"
"html-keyboard-response","130","2165442","0.0-9.0-2.0-0.22","1734","2","2","""event"",""trial"",""time""
""fullscreenenter"",""1"",""3876""
","
","
","""event"",""trial"",""time""
""fullscreenenter"",""1"",""3876""
","
","","","","","","null","<div style=""font-size:60px;"">+</div>","null","","fixation","","","","","","","","","","","","","",""
"learning-trial","131","2169448","0.0-9.0-2.0-1.22","1734","2","2","""event"",""trial"",""time""
""fullscreenenter"",""1"",""3876""
","
","
","""event"",""trial"",""time""
""fullscreenenter"",""1"",""3876""
","
","","","","","","306.5","images/orange3.png","","","learning","images/fruit_choice1.png","images/fruit_choice2.png","images/fruit_choice3.png","[0,1,2]","2","2","1","images/fruit_choice1.png","-1","fruit","","orange","2","0"
"html-keyboard-response","132","2169953","0.0-9.0-2.0-0.23","1734","2","2","""event"",""trial"",""time""
""fullscreenenter"",""1"",""3876""
","
","
","""event"",""trial"",""time""
""fullscreenenter"",""1"",""3876""
","
","","","","","","null","<div style=""font-size:60px;"">+</div>","null","","fixation","","","","","","","","","","","","","",""
"learning-trial","133","2173958","0.0-9.0-2.0-1.23","1734","2","2","""event"",""trial"",""time""
""fullscreenenter"",""1"",""3876""
","
","
","""event"",""trial"",""time""
""fullscreenenter"",""1"",""3876""
","
","","","","","","268.70000000298023","images/banana2.png","","","learning","images/fruit_choice1.png","images/fruit_choice2.png","images/fruit_choice3.png","[0,1,2]","2","2","1","images/fruit_choice1.png","-1","fruit","","banana","2","0"
"html-keyboard-response","134","2174463","0.0-9.0-2.0-0.24","1734","2","2","""event"",""trial"",""time""
""fullscreenenter"",""1"",""3876""
","
","
","""event"",""trial"",""time""
""fullscreenenter"",""1"",""3876""
","
","","","","","","null","<div style=""font-size:60px;"">+</div>","null","","fixation","","","","","","","","","","","","","",""
"learning-trial","135","2178469","0.0-9.0-2.0-1.24","1734","2","2","""event"",""trial"",""time""
""fullscreenenter"",""1"",""3876""
","
","
","""event"",""trial"",""time""
""fullscreenenter"",""1"",""3876""
","
","","","","","","357.6000000014901","images/apple4.png","","","learning","images/fruit_choice1.png","images/fruit_choice2.png","images/fruit_choice3.png","[0,1,2]","0","0","2","images/fruit_choice2.png","-1","fruit","","apple","2","0"
"html-keyboard-response","136","2178973","0.0-9.0-2.0-0.25","1734","2","2","""event"",""trial"",""time""
""fullscreenenter"",""1"",""3876""
","
","
","""event"",""trial"",""time""
""fullscreenenter"",""1"",""3876""
","
","","","","","","null","<div style=""font-size:60px;"">+</div>","null","","fixation","","","","","","","","","","","","","",""
"learning-trial","137","2182979","0.0-9.0-2.0-1.25","1734","2","2","""event"",""trial"",""time""
""fullscreenenter"",""1"",""3876""
","
","
","""event"",""trial"",""time""
""fullscreenenter"",""1"",""3876""
","
","","","","","","487.5","images/apple3.png","","","learning","images/fruit_choice1.png","images/fruit_choice2.png","images/fruit_choice3.png","[0,1,2]","1","1","3","images/fruit_choice3.png","-1","fruit","","apple","2","0"
"html-keyboard-response","138","2183484","0.0-9.0-2.0-0.26","1734","2","2","""event"",""trial"",""time""
""fullscreenenter"",""1"",""3876""
","
","
","""event"",""trial"",""time""
""fullscreenenter"",""1"",""3876""
","
","","","","","","null","<div style=""font-size:60px;"">+</div>","null","","fixation","","","","","","","","","","","","","",""
"learning-trial","139","2187489","0.0-9.0-2.0-1.26","1734","2","2","""event"",""trial"",""time""
""fullscreenenter"",""1"",""3876""
","
","
","""event"",""trial"",""time""
""fullscreenenter"",""1"",""3876""
","
","","","","","","2753.39999999851","images/apple4.png","","","learning","images/fruit_choice3.png","images/fruit_choice2.png","images/fruit_choice1.png","[2,1,0]","0","2","3","images/fruit_choice1.png","1","fruit","","apple","2","0"
"html-keyboard-response","140","2187994","0.0-9.0-2.0-0.27","1734","2","2","""event"",""trial"",""time""
""fullscreenenter"",""1"",""3876""
","
","
","""event"",""trial"",""time""
""fullscreenenter"",""1"",""3876""
","
","","","","","","null","<div style=""font-size:60px;"">+</div>","null","","fixation","","","","","","","","","","","","","",""
"learning-trial","141","2191999","0.0-9.0-2.0-1.27","1734","2","2","""event"",""trial"",""time""
""fullscreenenter"",""1"",""3876""
","
","
","""event"",""trial"",""time""
""fullscreenenter"",""1"",""3876""
","
","","","","","","1970.2999999970198","images/apple2.png","","","learning","images/fruit_choice2.png","images/fruit_choice1.png","images/fruit_choice3.png","[1,0,2]","2","2","1","images/fruit_choice2.png","-1","fruit","","apple","2","0"
"html-keyboard-response","142","2192504","0.0-9.0-2.0-0.28","1734","2","2","""event"",""trial"",""time""
""fullscreenenter"",""1"",""3876""
","
","
","""event"",""trial"",""time""
""fullscreenenter"",""1"",""3876""
","
","","","","","","null","<div style=""font-size:60px;"">+</div>","null","","fixation","","","","","","","","","","","","","",""
"learning-trial","143","2196510","0.0-9.0-2.0-1.28","1734","2","2","""event"",""trial"",""time""
""fullscreenenter"",""1"",""3876""
","
","
","""event"",""trial"",""time""
""fullscreenenter"",""1"",""3876""
","
","","","","","","699.7999999970198","images/banana3.png","","","learning","images/fruit_choice2.png","images/fruit_choice3.png","images/fruit_choice1.png","[1,2,0]","0","2","3","images/fruit_choice1.png","1","fruit","","banana","2","0"
"html-keyboard-response","144","2197015","0.0-9.0-2.0-0.29","1734","2","2","""event"",""trial"",""time""
""fullscreenenter"",""1"",""3876""
","
","
","""event"",""trial"",""time""
""fullscreenenter"",""1"",""3876""
","
","","","","","","null","<div style=""font-size:60px;"">+</div>","null","","fixation","","","","","","","","","","","","","",""
"learning-trial","145","2201020","0.0-9.0-2.0-1.29","1734","2","2","""event"",""trial"",""time""
""fullscreenenter"",""1"",""3876""
","
","
","""event"",""trial"",""time""
""fullscreenenter"",""1"",""3876""
","
","","","","","","373.6000000014901","images/apple4.png","","","learning","images/fruit_choice2.png","images/fruit_choice3.png","images/fruit_choice1.png","[1,2,0]","0","2","2","images/fruit_choice3.png","-1","fruit","","apple","2","0"
"html-keyboard-response","146","2201524","0.0-9.0-2.0-0.30","1734","2","2","""event"",""trial"",""time""
""fullscreenenter"",""1"",""3876""
","
","
","""event"",""trial"",""time""
""fullscreenenter"",""1"",""3876""
","
","","","","","","null","<div style=""font-size:60px;"">+</div>","null","","fixation","","","","","","","","","","","","","",""
"learning-trial","147","2205527","0.0-9.0-2.0-1.30","1734","2","2","""event"",""trial"",""time""
""fullscreenenter"",""1"",""3876""
","
","
","""event"",""trial"",""time""
""fullscreenenter"",""1"",""3876""
","
","","","","","","247.19999999552965","images/banana4.png","","","learning","images/fruit_choice1.png","images/fruit_choice2.png","images/fruit_choice3.png","[0,1,2]","1","1","1","images/fruit_choice1.png","-1","fruit","","banana","2","0"
"html-keyboard-response","148","2206029","0.0-9.0-2.0-0.31","1734","2","2","""event"",""trial"",""time""
""fullscreenenter"",""1"",""3876""
","
","
","""event"",""trial"",""time""
""fullscreenenter"",""1"",""3876""
","
","","","","","","null","<div style=""font-size:60px;"">+</div>","null","","fixation","","","","","","","","","","","","","",""
"learning-trial","149","2210033","0.0-9.0-2.0-1.31","1734","2","2","""event"",""trial"",""time""
""fullscreenenter"",""1"",""3876""
","
","
","""event"",""trial"",""time""
""fullscreenenter"",""1"",""3876""
","
","","","","","","326.8999999985099","images/apple2.png","","","learning","images/fruit_choice2.png","images/fruit_choice1.png","images/fruit_choice3.png","[1,0,2]","2","2","2","images/fruit_choice1.png","-1","fruit","","apple","2","0"
"html-keyboard-response","150","2210535","0.0-9.0-2.0-0.32","1734","2","2","""event"",""trial"",""time""
""fullscreenenter"",""1"",""3876""
","
","
","""event"",""trial"",""time""
""fullscreenenter"",""1"",""3876""
","
","","","","","","null","<div style=""font-size:60px;"">+</div>","null","","fixation","","","","","","","","","","","","","",""
"learning-trial","151","2214538","0.0-9.0-2.0-1.32","1734","2","2","""event"",""trial"",""time""
""fullscreenenter"",""1"",""3876""
","
","
","""event"",""trial"",""time""
""fullscreenenter"",""1"",""3876""
","
","","","","","","389.1000000014901","images/banana3.png","","","learning","images/fruit_choice2.png","images/fruit_choice1.png","images/fruit_choice3.png","[1,0,2]","0","1","3","images/fruit_choice3.png","-1","fruit","","banana","2","0"
"html-keyboard-response","152","2215038","0.0-9.0-2.0-0.33","1734","2","2","""event"",""trial"",""time""
""fullscreenenter"",""1"",""3876""
","
","
","""event"",""trial"",""time""
""fullscreenenter"",""1"",""3876""
","
","","","","","","null","<div style=""font-size:60px;"">+</div>","null","","fixation","","","","","","","","","","","","","",""
"learning-trial","153","2219044","0.0-9.0-2.0-1.33","1734","2","2","""event"",""trial"",""time""
""fullscreenenter"",""1"",""3876""
","
","
","""event"",""trial"",""time""
""fullscreenenter"",""1"",""3876""
","
","","","","","","1141.2000000029802","images/apple4.png","","","learning","images/fruit_choice2.png","images/fruit_choice3.png","images/fruit_choice1.png","[1,2,0]","0","2","2","images/fruit_choice3.png","-1","fruit","","apple","2","0"
"html-keyboard-response","154","2219549","0.0-9.0-2.0-0.34","1734","2","2","""event"",""trial"",""time""
""fullscreenenter"",""1"",""3876""
","
","
","""event"",""trial"",""time""
""fullscreenenter"",""1"",""3876""
","
","","","","","","null","<div style=""font-size:60px;"">+</div>","null","","fixation","","","","","","","","","","","","","",""
"learning-trial","155","2223554","0.0-9.0-2.0-1.34","1734","2","2","""event"",""trial"",""time""
""fullscreenenter"",""1"",""3876""
","
","
","""event"",""trial"",""time""
""fullscreenenter"",""1"",""3876""
","
","","","","","","646.3999999985099","images/banana4.png","","","learning","images/fruit_choice3.png","images/fruit_choice2.png","images/fruit_choice1.png","[2,1,0]","1","1","1","images/fruit_choice3.png","-1","fruit","","banana","2","0"
"html-keyboard-response","156","2224059","0.0-9.0-2.0-0.35","1734","2","2","""event"",""trial"",""time""
""fullscreenenter"",""1"",""3876""
","
","
","""event"",""trial"",""time""
""fullscreenenter"",""1"",""3876""
","
","","","","","","null","<div style=""font-size:60px;"">+</div>","null","","fixation","","","","","","","","","","","","","",""
"learning-trial","157","2228064","0.0-9.0-2.0-1.35","1734","2","2","""event"",""trial"",""time""
""fullscreenenter"",""1"",""3876""
","
","
","""event"",""trial"",""time""
""fullscreenenter"",""1"",""3876""
","
","","","","","","440.70000000298023","images/orange5.png","","","learning","images/fruit_choice2.png","images/fruit_choice1.png","images/fruit_choice3.png","[1,0,2]","1","0","2","images/fruit_choice1.png","-1","fruit","","orange","2","0"
"html-keyboard-response","158","2228569","0.0-9.0-2.0-0.36","1734","2","2","""event"",""trial"",""time""
""fullscreenenter"",""1"",""3876""
","
","
","""event"",""trial"",""time""
""fullscreenenter"",""1"",""3876""
","
","","","","","","null","<div style=""font-size:60px;"">+</div>","null","","fixation","","","","","","","","","","","","","",""
"learning-trial","159","2232575","0.0-9.0-2.0-1.36","1734","2","2","""event"",""trial"",""time""
""fullscreenenter"",""1"",""3876""
","
","
","""event"",""trial"",""time""
""fullscreenenter"",""1"",""3876""
","
","","","","","","1729.7000000029802","images/apple2.png","","","learning","images/fruit_choice1.png","images/fruit_choice3.png","images/fruit_choice2.png","[0,2,1]","2","1","3","images/fruit_choice2.png","-1","fruit","","apple","2","0"
"html-keyboard-response","160","2233080","0.0-9.0-2.0-0.37","1734","2","2","""event"",""trial"",""time""
""fullscreenenter"",""1"",""3876""
","
","
","""event"",""trial"",""time""
""fullscreenenter"",""1"",""3876""
","
","","","","","","null","<div style=""font-size:60px;"">+</div>","null","","fixation","","","","","","","","","","","","","",""
"learning-trial","161","2237085","0.0-9.0-2.0-1.37","1734","2","2","""event"",""trial"",""time""
""fullscreenenter"",""1"",""3876""
","
","
","""event"",""trial"",""time""
""fullscreenenter"",""1"",""3876""
","
","","","","","","2427.7999999970198","images/orange5.png","","","learning","images/fruit_choice1.png","images/fruit_choice3.png","images/fruit_choice2.png","[0,2,1]","1","2","2","images/fruit_choice3.png","-1","fruit","","orange","2","0"
"html-keyboard-response","162","2237590","0.0-9.0-2.0-0.38","1734","2","2","""event"",""trial"",""time""
""fullscreenenter"",""1"",""3876""
","
","
","""event"",""trial"",""time""
""fullscreenenter"",""1"",""3876""
","
","","","","","","null","<div style=""font-size:60px;"">+</div>","null","","fixation","","","","","","","","","","","","","",""
"learning-trial","163","2241595","0.0-9.0-2.0-1.38","1734","2","2","""event"",""trial"",""time""
""fullscreenenter"",""1"",""3876""
","
","
","""event"",""trial"",""time""
""fullscreenenter"",""1"",""3876""
","
","","","","","","485","images/banana3.png","","","learning","images/fruit_choice1.png","images/fruit_choice2.png","images/fruit_choice3.png","[0,1,2]","0","0","2","images/fruit_choice2.png","-1","fruit","","banana","2","0"
"html-keyboard-response","164","2242100","0.0-9.0-2.0-0.39","1734","2","2","""event"",""trial"",""time""
""fullscreenenter"",""1"",""3876""
","
","
","""event"",""trial"",""time""
""fullscreenenter"",""1"",""3876""
","
","","","","","","null","<div style=""font-size:60px;"">+</div>","null","","fixation","","","","","","","","","","","","","",""
"learning-trial","165","2246106","0.0-9.0-2.0-1.39","1734","2","2","""event"",""trial"",""time""
""fullscreenenter"",""1"",""3876""
","
","
","""event"",""trial"",""time""
""fullscreenenter"",""1"",""3876""
","
","","","","","","1646.5999999940395","images/banana3.png","","","learning","images/fruit_choice3.png","images/fruit_choice2.png","images/fruit_choice1.png","[2,1,0]","0","2","3","images/fruit_choice1.png","1","fruit","","banana","2","0"
"html-keyboard-response","166","2246611","0.0-9.0-2.0-0.40","1734","2","2","""event"",""trial"",""time""
""fullscreenenter"",""1"",""3876""
","
","
","""event"",""trial"",""time""
""fullscreenenter"",""1"",""3876""
","
","","","","","","null","<div style=""font-size:60px;"">+</div>","null","","fixation","","","","","","","","","","","","","",""
"learning-trial","167","2250616","0.0-9.0-2.0-1.40","1734","2","2","""event"",""trial"",""time""
""fullscreenenter"",""1"",""3876""
","
","
","""event"",""trial"",""time""
""fullscreenenter"",""1"",""3876""
","
","","","","","","808","images/banana3.png","","","learning","images/fruit_choice3.png","images/fruit_choice2.png","images/fruit_choice1.png","[2,1,0]","0","2","2","images/fruit_choice2.png","-1","fruit","","banana","2","0"
"html-keyboard-response","168","2251121","0.0-9.0-2.0-0.41","1734","2","2","""event"",""trial"",""time""
""fullscreenenter"",""1"",""3876""
","
","
","""event"",""trial"",""time""
""fullscreenenter"",""1"",""3876""
","
","","","","","","null","<div style=""font-size:60px;"">+</div>","null","","fixation","","","","","","","","","","","","","",""
"learning-trial","169","2255123","0.0-9.0-2.0-1.41","1734","2","2","""event"",""trial"",""time""
""fullscreenenter"",""1"",""3876""
","
","
","""event"",""trial"",""time""
""fullscreenenter"",""1"",""3876""
","
","","","","","","281.40000000596046","images/apple4.png","","","learning","images/fruit_choice1.png","images/fruit_choice3.png","images/fruit_choice2.png","[0,2,1]","0","0","2","images/fruit_choice3.png","1","fruit","","apple","2","0"
"html-keyboard-response","170","2255626","0.0-9.0-2.0-0.42","1734","2","2","""event"",""trial"",""time""
""fullscreenenter"",""1"",""3876""
","
","
","""event"",""trial"",""time""
""fullscreenenter"",""1"",""3876""
","
","","","","","","null","<div style=""font-size:60px;"">+</div>","null","","fixation","","","","","","","","","","","","","",""
"learning-trial","171","2259629","0.0-9.0-2.0-1.42","1734","2","2","""event"",""trial"",""time""
""fullscreenenter"",""1"",""3876""
","
","
","""event"",""trial"",""time""
""fullscreenenter"",""1"",""3876""
","
","","","","","","2832.8000000044703","images/apple2.png","","","learning","images/fruit_choice2.png","images/fruit_choice3.png","images/fruit_choice1.png","[1,2,0]","2","1","2","images/fruit_choice3.png","1","fruit","","apple","2","0"
"html-keyboard-response","172","2260131","0.0-9.0-2.0-0.43","1734","2","2","""event"",""trial"",""time""
""fullscreenenter"",""1"",""3876""
","
","
","""event"",""trial"",""time""
""fullscreenenter"",""1"",""3876""
","
","","","","","","null","<div style=""font-size:60px;"">+</div>","null","","fixation","","","","","","","","","","","","","",""
"learning-trial","173","2264136","0.0-9.0-2.0-1.43","1734","2","2","""event"",""trial"",""time""
""fullscreenenter"",""1"",""3876""
","
","
","""event"",""trial"",""time""
""fullscreenenter"",""1"",""3876""
","
","","","","","","766.7999999970198","images/orange1.png","","","learning","images/fruit_choice1.png","images/fruit_choice2.png","images/fruit_choice3.png","[0,1,2]","0","0","2","images/fruit_choice2.png","1","fruit","","orange","2","0"
"html-keyboard-response","174","2264637","0.0-9.0-2.0-0.44","1734","2","2","""event"",""trial"",""time""
""fullscreenenter"",""1"",""3876""
","
","
","""event"",""trial"",""time""
""fullscreenenter"",""1"",""3876""
","
","","","","","","null","<div style=""font-size:60px;"">+</div>","null","","fixation","","","","","","","","","","","","","",""
"learning-trial","175","2268640","0.0-9.0-2.0-1.44","1734","2","2","""event"",""trial"",""time""
""fullscreenenter"",""1"",""3876""
","
","
","""event"",""trial"",""time""
""fullscreenenter"",""1"",""3876""
","
","","","","","","468.6000000014901","images/apple3.png","","","learning","images/fruit_choice1.png","images/fruit_choice2.png","images/fruit_choice3.png","[0,1,2]","1","1","3","images/fruit_choice3.png","-1","fruit","","apple","2","0"
"html-keyboard-response","176","2269145","0.0-9.0-2.0-0.45","1734","2","2","""event"",""trial"",""time""
""fullscreenenter"",""1"",""3876""
","
","
","""event"",""trial"",""time""
""fullscreenenter"",""1"",""3876""
","
","","","","","","null","<div style=""font-size:60px;"">+</div>","null","","fixation","","","","","","","","","","","","","",""
"learning-trial","177","2273150","0.0-9.0-2.0-1.45","1734","2","2","""event"",""trial"",""time""
""fullscreenenter"",""1"",""3876""
","
","
","""event"",""trial"",""time""
""fullscreenenter"",""1"",""3876""
","
","","","","","","1345.5","images/apple3.png","","","learning","images/fruit_choice3.png","images/fruit_choice2.png","images/fruit_choice1.png","[2,1,0]","1","1","1","images/fruit_choice3.png","-1","fruit","","apple","2","0"
"html-keyboard-response","178","2273655","0.0-9.0-2.0-0.46","1734","2","2","""event"",""trial"",""time""
""fullscreenenter"",""1"",""3876""
","
","
","""event"",""trial"",""time""
""fullscreenenter"",""1"",""3876""
","
","","","","","","null","<div style=""font-size:60px;"">+</div>","null","","fixation","","","","","","","","","","","","","",""
"learning-trial","179","2277660","0.0-9.0-2.0-1.46","1734","2","2","""event"",""trial"",""time""
""fullscreenenter"",""1"",""3876""
","
","
","""event"",""trial"",""time""
""fullscreenenter"",""1"",""3876""
","
","","","","","","522.1000000014901","images/orange3.png","","","learning","images/fruit_choice1.png","images/fruit_choice3.png","images/fruit_choice2.png","[0,2,1]","2","1","1","images/fruit_choice1.png","-1","fruit","","orange","2","0"
"html-keyboard-response","180","2278166","0.0-9.0-2.0-0.47","1734","2","2","""event"",""trial"",""time""
""fullscreenenter"",""1"",""3876""
","
","
","""event"",""trial"",""time""
""fullscreenenter"",""1"",""3876""
","
","","","","","","null","<div style=""font-size:60px;"">+</div>","null","","fixation","","","","","","","","","","","","","",""
"learning-trial","181","2282168","0.0-9.0-2.0-1.47","1734","2","2","""event"",""trial"",""time""
""fullscreenenter"",""1"",""3876""
","
","
","""event"",""trial"",""time""
""fullscreenenter"",""1"",""3876""
","
","","","","","","1971.8999999985099","images/apple2.png","","","learning","images/fruit_choice3.png","images/fruit_choice1.png","images/fruit_choice2.png","[2,0,1]","2","0","1","images/fruit_choice3.png","1","fruit","","apple","2","0"
"html-keyboard-response","182","2282670","0.0-9.0-2.0-0.48","1734","2","2","""event"",""trial"",""time""
""fullscreenenter"",""1"",""3876""
","
","
","""event"",""trial"",""time""
""fullscreenenter"",""1"",""3876""
","
","","","","","","null","<div style=""font-size:60px;"">+</div>","null","","fixation","","","","","","","","","","","","","",""
"learning-trial","183","2286675","0.0-9.0-2.0-1.48","1734","2","2","""event"",""trial"",""time""
""fullscreenenter"",""1"",""3876""
","
","
","""event"",""trial"",""time""
""fullscreenenter"",""1"",""3876""
","
","","","","","","1411.1000000014901","images/orange1.png","","","learning","images/fruit_choice1.png","images/fruit_choice3.png","images/fruit_choice2.png","[0,2,1]","0","0","2","images/fruit_choice3.png","-1","fruit","","orange","2","0"
"html-keyboard-response","184","2287180","0.0-9.0-2.0-0.49","1734","2","2","""event"",""trial"",""time""
""fullscreenenter"",""1"",""3876""
","
","
","""event"",""trial"",""time""
""fullscreenenter"",""1"",""3876""
","
","","","","","","null","<div style=""font-size:60px;"">+</div>","null","","fixation","","","","","","","","","","","","","",""
"learning-trial","185","2291182","0.0-9.0-2.0-1.49","1734","2","2","""event"",""trial"",""time""
""fullscreenenter"",""1"",""3876""
","
","
","""event"",""trial"",""time""
""fullscreenenter"",""1"",""3876""
","
","","","","","","2076.8000000044703","images/orange3.png","","","learning","images/fruit_choice1.png","images/fruit_choice2.png","images/fruit_choice3.png","[0,1,2]","2","2","1","images/fruit_choice1.png","-1","fruit","","orange","2","0"
"html-keyboard-response","186","2291685","0.0-9.0-2.0-0.50","1734","2","2","""event"",""trial"",""time""
""fullscreenenter"",""1"",""3876""
","
","
","""event"",""trial"",""time""
""fullscreenenter"",""1"",""3876""
","
","","","","","","null","<div style=""font-size:60px;"">+</div>","null","","fixation","","","","","","","","","","","","","",""
"learning-trial","187","2295690","0.0-9.0-2.0-1.50","1734","2","2","""event"",""trial"",""time""
""fullscreenenter"",""1"",""3876""
","
","
","""event"",""trial"",""time""
""fullscreenenter"",""1"",""3876""
","
","","","","","","1180.3999999985099","images/orange5.png","","","learning","images/fruit_choice3.png","images/fruit_choice2.png","images/fruit_choice1.png","[2,1,0]","1","1","2","images/fruit_choice2.png","1","fruit","","orange","2","0"
"html-keyboard-response","188","2296195","0.0-9.0-2.0-0.51","1734","2","2","""event"",""trial"",""time""
""fullscreenenter"",""1"",""3876""
","
","
","""event"",""trial"",""time""
""fullscreenenter"",""1"",""3876""
","
","","","","","","null","<div style=""font-size:60px;"">+</div>","null","","fixation","","","","","","","","","","","","","",""
"learning-trial","189","2300200","0.0-9.0-2.0-1.51","1734","2","2","""event"",""trial"",""time""
""fullscreenenter"",""1"",""3876""
","
","
","""event"",""trial"",""time""
""fullscreenenter"",""1"",""3876""
","
","","","","","","285.30000000447035","images/orange5.png","","","learning","images/fruit_choice1.png","images/fruit_choice2.png","images/fruit_choice3.png","[0,1,2]","1","1","2","images/fruit_choice2.png","1","fruit","","orange","2","0"
"html-keyboard-response","190","2300706","0.0-9.0-2.0-0.52","1734","2","2","""event"",""trial"",""time""
""fullscreenenter"",""1"",""3876""
","
","
","""event"",""trial"",""time""
""fullscreenenter"",""1"",""3876""
","
","","","","","","null","<div style=""font-size:60px;"">+</div>","null","","fixation","","","","","","","","","","","","","",""
"learning-trial","191","2304711","0.0-9.0-2.0-1.52","1734","2","2","""event"",""trial"",""time""
""fullscreenenter"",""1"",""3876""
","
","
","""event"",""trial"",""time""
""fullscreenenter"",""1"",""3876""
","
","","","","","","542.2999999970198","images/banana2.png","","","learning","images/fruit_choice3.png","images/fruit_choice2.png","images/fruit_choice1.png","[2,1,0]","2","0","2","images/fruit_choice2.png","-1","fruit","","banana","2","0"
"html-keyboard-response","192","2305216","0.0-9.0-2.0-0.53","1734","2","2","""event"",""trial"",""time""
""fullscreenenter"",""1"",""3876""
","
","
","""event"",""trial"",""time""
""fullscreenenter"",""1"",""3876""
","
","","","","","","null","<div style=""font-size:60px;"">+</div>","null","","fixation","","","","","","","","","","","","","",""
"learning-trial","193","2309221","0.0-9.0-2.0-1.53","1734","2","2","""event"",""trial"",""time""
""fullscreenenter"",""1"",""3876""
","
","
","""event"",""trial"",""time""
""fullscreenenter"",""1"",""3876""
","
","","","","","","344.8999999985099","images/orange1.png","","","learning","images/fruit_choice1.png","images/fruit_choice2.png","images/fruit_choice3.png","[0,1,2]","0","0","2","images/fruit_choice2.png","-1","fruit","","orange","2","0"
"html-keyboard-response","194","2309722","0.0-9.0-2.0-0.54","1734","2","2","""event"",""trial"",""time""
""fullscreenenter"",""1"",""3876""
","
","
","""event"",""trial"",""time""
""fullscreenenter"",""1"",""3876""
","
","","","","","","null","<div style=""font-size:60px;"">+</div>","null","","fixation","","","","","","","","","","","","","",""
"learning-trial","195","2313725","0.0-9.0-2.0-1.54","1734","2","2","""event"",""trial"",""time""
""fullscreenenter"",""1"",""3876""
","
","
","""event"",""trial"",""time""
""fullscreenenter"",""1"",""3876""
","
","","","","","","382.3999999985099","images/orange3.png","","","learning","images/fruit_choice2.png","images/fruit_choice1.png","images/fruit_choice3.png","[1,0,2]","2","2","2","images/fruit_choice1.png","-1","fruit","","orange","2","0"
"html-keyboard-response","196","2314227","0.0-9.0-2.0-0.55","1734","2","2","""event"",""trial"",""time""
""fullscreenenter"",""1"",""3876""
","
","
","""event"",""trial"",""time""
""fullscreenenter"",""1"",""3876""
","
","","","","","","null","<div style=""font-size:60px;"">+</div>","null","","fixation","","","","","","","","","","","","","",""
"learning-trial","197","2318230","0.0-9.0-2.0-1.55","1734","2","2","""event"",""trial"",""time""
""fullscreenenter"",""1"",""3876""
","
","
","""event"",""trial"",""time""
""fullscreenenter"",""1"",""3876""
","
","","","","","","212.89999999850988","images/banana4.png","","","learning","images/fruit_choice2.png","images/fruit_choice3.png","images/fruit_choice1.png","[1,2,0]","1","0","2","images/fruit_choice3.png","-1","fruit","","banana","2","0"
"html-keyboard-response","198","2318732","0.0-9.0-2.0-0.56","1734","2","2","""event"",""trial"",""time""
""fullscreenenter"",""1"",""3876""
","
","
","""event"",""trial"",""time""
""fullscreenenter"",""1"",""3876""
","
","","","","","","null","<div style=""font-size:60px;"">+</div>","null","","fixation","","","","","","","","","","","","","",""
"learning-trial","199","2322735","0.0-9.0-2.0-1.56","1734","2","2","""event"",""trial"",""time""
""fullscreenenter"",""1"",""3876""
","
","
","""event"",""trial"",""time""
""fullscreenenter"",""1"",""3876""
","
","","","","","","499.8999999985099","images/apple2.png","","","learning","images/fruit_choice2.png","images/fruit_choice1.png","images/fruit_choice3.png","[1,0,2]","2","2","2","images/fruit_choice1.png","-1","fruit","","apple","2","0"
"html-keyboard-response","200","2323236","0.0-9.0-2.0-0.57","1734","2","2","""event"",""trial"",""time""
""fullscreenenter"",""1"",""3876""
","
","
","""event"",""trial"",""time""
""fullscreenenter"",""1"",""3876""
","
","","","","","","null","<div style=""font-size:60px;"">+</div>","null","","fixation","","","","","","","","","","","","","",""
"learning-trial","201","2327244","0.0-9.0-2.0-1.57","1734","2","2","""event"",""trial"",""time""
""fullscreenenter"",""1"",""3876""
","
","
","""event"",""trial"",""time""
""fullscreenenter"",""1"",""3876""
","
","","","","","","426.3999999985099","images/orange1.png","","","learning","images/fruit_choice1.png","images/fruit_choice2.png","images/fruit_choice3.png","[0,1,2]","0","0","2","images/fruit_choice2.png","-1","fruit","","orange","2","0"
"html-keyboard-response","202","2327750","0.0-9.0-2.0-0.58","1734","2","2","""event"",""trial"",""time""
""fullscreenenter"",""1"",""3876""
","
","
","""event"",""trial"",""time""
""fullscreenenter"",""1"",""3876""
","
","","","","","","null","<div style=""font-size:60px;"">+</div>","null","","fixation","","","","","","","","","","","","","",""
"learning-trial","203","2331756","0.0-9.0-2.0-1.58","1734","2","2","""event"",""trial"",""time""
""fullscreenenter"",""1"",""3876""
","
","
","""event"",""trial"",""time""
""fullscreenenter"",""1"",""3876""
","
","","","","","","897.7999999970198","images/apple3.png","","","learning","images/fruit_choice3.png","images/fruit_choice1.png","images/fruit_choice2.png","[2,0,1]","1","2","2","images/fruit_choice1.png","-1","fruit","","apple","2","0"
"html-keyboard-response","204","2332258","0.0-9.0-2.0-0.59","1734","2","2","""event"",""trial"",""time""
""fullscreenenter"",""1"",""3876""
","
","
","""event"",""trial"",""time""
""fullscreenenter"",""1"",""3876""
","
","","","","","","null","<div style=""font-size:60px;"">+</div>","null","","fixation","","","","","","","","","","","","","",""
"learning-trial","205","2336266","0.0-9.0-2.0-1.59","1734","2","2","""event"",""trial"",""time""
""fullscreenenter"",""1"",""3876""
","
","
","""event"",""trial"",""time""
""fullscreenenter"",""1"",""3876""
","
","","","","","","1565.2000000029802","images/apple3.png","","","learning","images/fruit_choice1.png","images/fruit_choice2.png","images/fruit_choice3.png","[0,1,2]","1","1","2","images/fruit_choice2.png","1","fruit","","apple","2","0"
"html-keyboard-response","206","2336770","0.0-9.0-2.0-0.60","1734","2","2","""event"",""trial"",""time""
""fullscreenenter"",""1"",""3876""
","
","
","""event"",""trial"",""time""
""fullscreenenter"",""1"",""3876""
","
","","","","","","null","<div style=""font-size:60px;"">+</div>","null","","fixation","","","","","","","","","","","","","",""
"learning-trial","207","2340776","0.0-9.0-2.0-1.60","1734","2","2","""event"",""trial"",""time""
""fullscreenenter"",""1"",""3876""
","
","
","""event"",""trial"",""time""
""fullscreenenter"",""1"",""3876""
","
","","","","","","373","images/apple4.png","","","learning","images/fruit_choice1.png","images/fruit_choice3.png","images/fruit_choice2.png","[0,2,1]","0","0","2","images/fruit_choice3.png","-1","fruit","","apple","2","0"
"html-keyboard-response","208","2341281","0.0-9.0-2.0-0.61","1734","2","2","""event"",""trial"",""time""
""fullscreenenter"",""1"",""3876""
","
","
","""event"",""trial"",""time""
""fullscreenenter"",""1"",""3876""
","
","","","","","","null","<div style=""font-size:60px;"">+</div>","null","","fixation","","","","","","","","","","","","","",""
"learning-trial","209","2345287","0.0-9.0-2.0-1.61","1734","2","2","""event"",""trial"",""time""
""fullscreenenter"",""1"",""3876""
","
","
","""event"",""trial"",""time""
""fullscreenenter"",""1"",""3876""
","
","","","","","","550.1999999955297","images/banana2.png","","","learning","images/fruit_choice1.png","images/fruit_choice3.png","images/fruit_choice2.png","[0,2,1]","2","1","2","images/fruit_choice3.png","1","fruit","","banana","2","0"
"html-keyboard-response","210","2345792","0.0-9.0-2.0-0.62","1734","2","2","""event"",""trial"",""time""
""fullscreenenter"",""1"",""3876""
","
","
","""event"",""trial"",""time""
""fullscreenenter"",""1"",""3876""
","
","","","","","","null","<div style=""font-size:60px;"">+</div>","null","","fixation","","","","","","","","","","","","","",""
"learning-trial","211","2349796","0.0-9.0-2.0-1.62","1734","2","2","""event"",""trial"",""time""
""fullscreenenter"",""1"",""3876""
","
","
","""event"",""trial"",""time""
""fullscreenenter"",""1"",""3876""
","
","","","","","","447.6000000014901","images/apple3.png","","","learning","images/fruit_choice2.png","images/fruit_choice1.png","images/fruit_choice3.png","[1,0,2]","1","0","2","images/fruit_choice1.png","-1","fruit","","apple","2","0"
"html-keyboard-response","212","2350302","0.0-9.0-2.0-0.63","1734","2","2","""event"",""trial"",""time""
""fullscreenenter"",""1"",""3876""
","
","
","""event"",""trial"",""time""
""fullscreenenter"",""1"",""3876""
","
","","","","","","null","<div style=""font-size:60px;"">+</div>","null","","fixation","","","","","","","","","","","","","",""
"learning-trial","213","2354307","0.0-9.0-2.0-1.63","1734","2","2","""event"",""trial"",""time""
""fullscreenenter"",""1"",""3876""
","
","
","""event"",""trial"",""time""
""fullscreenenter"",""1"",""3876""
","
","","","","","","113.70000000298023","images/apple4.png","","","learning","images/fruit_choice3.png","images/fruit_choice1.png","images/fruit_choice2.png","[2,0,1]","0","1","2","images/fruit_choice1.png","1","fruit","","apple","2","0"
"html-keyboard-response","214","2354812","0.0-9.0-2.0-0.64","1734","2","2","""event"",""trial"",""time""
""fullscreenenter"",""1"",""3876""
","
","
","""event"",""trial"",""time""
""fullscreenenter"",""1"",""3876""
","
","","","","","","null","<div style=""font-size:60px;"">+</div>","null","","fixation","","","","","","","","","","","","","",""
"learning-trial","215","2358818","0.0-9.0-2.0-1.64","1734","2","2","""event"",""trial"",""time""
""fullscreenenter"",""1"",""3876""
","
","
","""event"",""trial"",""time""
""fullscreenenter"",""1"",""3876""
","
","","","","","","58.400000005960464","images/apple3.png","","","learning","images/fruit_choice2.png","images/fruit_choice1.png","images/fruit_choice3.png","[1,0,2]","1","0","2","images/fruit_choice1.png","-1","fruit","","apple","2","0"
"html-keyboard-response","216","2359323","0.0-9.0-2.0-0.65","1734","2","2","""event"",""trial"",""time""
""fullscreenenter"",""1"",""3876""
","
","
","""event"",""trial"",""time""
""fullscreenenter"",""1"",""3876""
","
","","","","","","null","<div style=""font-size:60px;"">+</div>","null","","fixation","","","","","","","","","","","","","",""
"learning-trial","217","2363325","0.0-9.0-2.0-1.65","1734","2","2","""event"",""trial"",""time""
""fullscreenenter"",""1"",""3876""
","
","
","""event"",""trial"",""time""
""fullscreenenter"",""1"",""3876""
","
","","","","","","null","images/apple2.png","","","learning","images/fruit_choice3.png","images/fruit_choice1.png","images/fruit_choice2.png","[2,0,1]","2","0","null","null","-1","fruit","","apple","2","0"
"html-keyboard-response","218","2363827","0.0-9.0-2.0-0.66","1734","2","2","""event"",""trial"",""time""
""fullscreenenter"",""1"",""3876""
","
","
","""event"",""trial"",""time""
""fullscreenenter"",""1"",""3876""
","
","","","","","","null","<div style=""font-size:60px;"">+</div>","null","","fixation","","","","","","","","","","","","","",""
"learning-trial","219","2367831","0.0-9.0-2.0-1.66","1734","2","2","""event"",""trial"",""time""
""fullscreenenter"",""1"",""3876""
","
","
","""event"",""trial"",""time""
""fullscreenenter"",""1"",""3876""
","
","","","","","","315.5","images/banana2.png","","","learning","images/fruit_choice1.png","images/fruit_choice3.png","images/fruit_choice2.png","[0,2,1]","2","1","2","images/fruit_choice3.png","-1","fruit","","banana","2","0"
"html-keyboard-response","220","2368335","0.0-9.0-2.0-0.67","1734","2","2","""event"",""trial"",""time""
""fullscreenenter"",""1"",""3876""
","
","
","""event"",""trial"",""time""
""fullscreenenter"",""1"",""3876""
","
","","","","","","null","<div style=""font-size:60px;"">+</div>","null","","fixation","","","","","","","","","","","","","",""
"learning-trial","221","2372342","0.0-9.0-2.0-1.67","1734","2","2","""event"",""trial"",""time""
""fullscreenenter"",""1"",""3876""
","
","
","""event"",""trial"",""time""
""fullscreenenter"",""1"",""3876""
","
","","","","","","606.8000000044703","images/orange3.png","","","learning","images/fruit_choice3.png","images/fruit_choice1.png","images/fruit_choice2.png","[2,0,1]","2","0","2","images/fruit_choice1.png","1","fruit","","orange","2","0"
"html-keyboard-response","222","2372848","0.0-9.0-2.0-0.68","1734","2","2","""event"",""trial"",""time""
""fullscreenenter"",""1"",""3876""
","
","
","""event"",""trial"",""time""
""fullscreenenter"",""1"",""3876""
","
","","","","","","null","<div style=""font-size:60px;"">+</div>","null","","fixation","","","","","","","","","","","","","",""
"learning-trial","223","2376853","0.0-9.0-2.0-1.68","1734","2","2","""event"",""trial"",""time""
""fullscreenenter"",""1"",""3876""
","
","
","""event"",""trial"",""time""
""fullscreenenter"",""1"",""3876""
","
","","","","","","839","images/banana4.png","","","learning","images/fruit_choice2.png","images/fruit_choice1.png","images/fruit_choice3.png","[1,0,2]","1","0","2","images/fruit_choice1.png","-1","fruit","","banana","2","0"
"html-keyboard-response","224","2377358","0.0-9.0-2.0-0.69","1734","2","2","""event"",""trial"",""time""
""fullscreenenter"",""1"",""3876""
","
","
","""event"",""trial"",""time""
""fullscreenenter"",""1"",""3876""
","
","","","","","","null","<div style=""font-size:60px;"">+</div>","null","","fixation","","","","","","","","","","","","","",""
"learning-trial","225","2381364","0.0-9.0-2.0-1.69","1734","2","2","""event"",""trial"",""time""
""fullscreenenter"",""1"",""3876""
","
","
","""event"",""trial"",""time""
""fullscreenenter"",""1"",""3876""
","
","","","","","","2335.7000000029802","images/banana4.png","","","learning","images/fruit_choice1.png","images/fruit_choice3.png","images/fruit_choice2.png","[0,2,1]","1","2","2","images/fruit_choice3.png","-1","fruit","","banana","2","0"
"html-keyboard-response","226","2381868","0.0-9.0-2.0-0.70","1734","2","2","""event"",""trial"",""time""
""fullscreenenter"",""1"",""3876""
","
","
","""event"",""trial"",""time""
""fullscreenenter"",""1"",""3876""
","
","","","","","","null","<div style=""font-size:60px;"">+</div>","null","","fixation","","","","","","","","","","","","","",""
"learning-trial","227","2385874","0.0-9.0-2.0-1.70","1734","2","2","""event"",""trial"",""time""
""fullscreenenter"",""1"",""3876""
","
","
","""event"",""trial"",""time""
""fullscreenenter"",""1"",""3876""
","
","","","","","","81.60000000149012","images/apple2.png","","","learning","images/fruit_choice3.png","images/fruit_choice1.png","images/fruit_choice2.png","[2,0,1]","2","0","1","images/fruit_choice3.png","1","fruit","","apple","2","0"
"html-keyboard-response","228","2386378","0.0-9.0-2.0-0.71","1734","2","2","""event"",""trial"",""time""
""fullscreenenter"",""1"",""3876""
","
","
","""event"",""trial"",""time""
""fullscreenenter"",""1"",""3876""
","
","","","","","","null","<div style=""font-size:60px;"">+</div>","null","","fixation","","","","","","","","","","","","","",""
"learning-trial","229","2390384","0.0-9.0-2.0-1.71","1734","2","2","""event"",""trial"",""time""
""fullscreenenter"",""1"",""3876""
","
","
","""event"",""trial"",""time""
""fullscreenenter"",""1"",""3876""
","
","","","","","","627.6000000014901","images/banana2.png","","","learning","images/fruit_choice2.png","images/fruit_choice3.png","images/fruit_choice1.png","[1,2,0]","2","1","1","images/fruit_choice2.png","-1","fruit","","banana","2","0"
"html-button-response","230","2398841","0.0-9.0-3.0","1734","2","2","""event"",""trial"",""time""
""fullscreenenter"",""1"",""3876""
","
","
","""event"",""trial"",""time""
""fullscreenenter"",""1"",""3876""
","
","","","","","","8456.09999999404","<p> You have completed the round! <p> In this round, you earned -28 points! </p>","0","","break","","","","","","","","","","","","","",""
"html-button-response","231","2399763","0.0-10.0","1734","2","2","""event"",""trial"",""time""
""fullscreenenter"",""1"",""3876""
","
","
","""event"",""trial"",""time""
""fullscreenenter"",""1"",""3876""
","
","","","","","","920.7000000029802","<p> Now it's time to play another round. </p>","0","","transition_screen","","","","","","","","","","","","","",""
"preload","232","2402219","0.0-11.0-0.0","1734","2","2","""event"",""trial"",""time""
""fullscreenenter"",""1"",""3876""
","
","
","""event"",""trial"",""time""
""fullscreenenter"",""1"",""3876""
","
","true","false","[]","[]","[]","","","","","","","","","","","","","","","","","","",""
"learning-instructions","233","2413116","0.0-11.0-1.0-0.0","1734","2","2","""event"",""trial"",""time""
""fullscreenenter"",""1"",""3876""
","
","
","""event"",""trial"",""time""
""fullscreenenter"",""1"",""3876""
","
","","","","","","3002.2000000029802","<p> Your goal in this round is to deliver furniture to three different buildings. </p><p> You will need to deliver many pieces of furniture. </p></div>","","0","instructions","","","","","","","","","","","","","",""
"learning-instructions","234","2421421","0.0-11.0-1.0-0.1","1734","2","2","""event"",""trial"",""time""
""fullscreenenter"",""1"",""3876""
","
","
","""event"",""trial"",""time""
""fullscreenenter"",""1"",""3876""
","
","","","","","","875.2999999970198","<p> On each turn, you will see a picture of a furniture item and three different buildings.  </p><p> You need to select the building that you want to deliver the furniture to.  </p>","","0","instructions","","","","","","","","","","","","","",""
"learning-instructions","235","2501906","0.0-11.0-1.0-0.2","1734","2","2","""event"",""trial"",""time""
""fullscreenenter"",""1"",""3876""
","
","
","""event"",""trial"",""time""
""fullscreenenter"",""1"",""3876""
","
","","","","","","72202.69999999553","<p> You can select the building on the left by pressing 1, the building in the middle by pressing 2, and the building on the right by pressing 3.  </p><br><div class=""choice-instructions-grid""> <div class=""choice-option""><img src=""images/furniture_choice1.png"" class=""choice-option-img"" stage=""instructions"" position=""0"" ><div class=""choice-option-text""> Press ""1."" </div></div><div class=""choice-option""><img src=""images/furniture_choice2.png"" class=""choice-option-img"" stage=""instructions"" position=""1"" ><div class=""choice-option-text""> Press ""2."" </div></div><div class=""choice-option""><img src=""images/furniture_choice3.png"" class=""choice-option-img"" stage=""instructions"" position=""2"" ><div class=""choice-option-text""> Press ""3."" </div></div></div>","","0","instructions","","","","","","","","","","","","","",""
"learning-instructions","236","2509004","0.0-11.0-1.0-0.3","1734","2","2","""event"",""trial"",""time""
""fullscreenenter"",""1"",""3876""
","
","
","""event"",""trial"",""time""
""fullscreenenter"",""1"",""3876""
","
