"trial_type","trial_index","time_elapsed","internal_node_id","subject_id","condition","task_version","interactions","blur_events","focus_events","fullscreenenter_events","fullscreenexit_events","success","timeout","failed_images","failed_audio","failed_video","rt","stimulus","response","button_pressed","task_part","left_choice","middle_choice","right_choice","choice_positions","correct_response","correct_position","key_press","option_selected","points","task_block","correct","stim_cat","block_condition","block_number"
"pavlovia","0","6","0.0-0.0","1717","1","2","""event"",""trial"",""time""
""fullscreenenter"",""1"",""2781""
","
","
","""event"",""trial"",""time""
""fullscreenenter"",""1"",""2781""
","
","","","","","","","","","","","","","","","","","","","","","","","",""
"fullscreen","1","3713","0.0-1.0","1717","1","2","""event"",""trial"",""time""
""fullscreenenter"",""1"",""2781""
","
","
","""event"",""trial"",""time""
""fullscreenenter"",""1"",""2781""
","
","true","","","","","","","","","","","","","","","","","","","","","","",""
"preload","2","9998","0.0-2.0","1717","1","2","""event"",""trial"",""time""
""fullscreenenter"",""1"",""2781""
","
","
","""event"",""trial"",""time""
""fullscreenenter"",""1"",""2781""
","
","true","false","[]","[]","[]","","","","","","","","","","","","","","","","","","",""
"audio-keyboard-response","3","12165","0.0-3.0","1717","1","2","""event"",""trial"",""time""
""fullscreenenter"",""1"",""2781""
","
","
","""event"",""trial"",""time""
""fullscreenenter"",""1"",""2781""
","
","","","","","","2165.333333333334","audio/beep_loop.wav","audiovolumedown","","","","","","","","","","","","","","","",""
"audio-button-response","4","14737","0.0-4.0","1717","1","2","""event"",""trial"",""time""
""fullscreenenter"",""1"",""2781""
","
","
","""event"",""trial"",""time""
""fullscreenenter"",""1"",""2781""
","
","","","","","","2560","audio/shark.wav","4","","","","","","","","","","","","","","","",""
"audio-button-response","5","17466","0.0-5.0","1717","1","2","""event"",""trial"",""time""
""fullscreenenter"",""1"",""2781""
","
","
","""event"",""trial"",""time""
""fullscreenenter"",""1"",""2781""
","
","","","","","","1717","audio/turtle.wav","1","","","","","","","","","","","","","","","",""
"preload","6","23056","0.0-6.0","1717","1","2","""event"",""trial"",""time""
""fullscreenenter"",""1"",""2781""
","
","
","""event"",""trial"",""time""
""fullscreenenter"",""1"",""2781""
","
","true","false","[]","[]","[]","","","","","","","","","","","","","","","","","","",""
"html-keyboard-response","7","24866","0.0-7.0","1717","1","2","""event"",""trial"",""time""
""fullscreenenter"",""1"",""2781""
","
","
","""event"",""trial"",""time""
""fullscreenenter"",""1"",""2781""
","
","","","","","","1804.9000000953674","Welcome to the experiment. Press any key to begin and to advance the instructions."," ","","","","","","","","","","","","","","","",""
"learning-instructions","8","33975","0.0-8.0-0.0-0.0","1717","1","2","""event"",""trial"",""time""
""fullscreenenter"",""1"",""2781""
","
","
","""event"",""trial"",""time""
""fullscreenenter"",""1"",""2781""
","
","","","","","","1348.9000000953674","<p> Welcome! Today you are going to play 6 different rounds of a decision-making game. </p><p> Use the mouse to click next to continue. </p>","","0","instructions","","","","","","","","","","","","","",""
"learning-instructions","9","38013","0.0-8.0-0.0-0.1","1717","1","2","""event"",""trial"",""time""
""fullscreenenter"",""1"",""2781""
","
","
","""event"",""trial"",""time""
""fullscreenenter"",""1"",""2781""
","
","","","","","","1036.3000001907349","<p> You will start with a practice round to learn the rules. </p>","","0","instructions","","","","","","","","","","","","","",""
"learning-instructions","10","46699","0.0-8.0-0.0-0.2","1717","1","2","""event"",""trial"",""time""
""fullscreenenter"",""1"",""2781""
","
","
","""event"",""trial"",""time""
""fullscreenenter"",""1"",""2781""
","
","","","","","","942.7999997138977","<p> Your goal in this round is to deliver sports equipment to three different parks. </p><p> You will need to deliver many types of equipment. </p></div>","","0","instructions","","","","","","","","","","","","","",""
"learning-instructions","11","57578","0.0-8.0-0.0-0.3","1717","1","2","""event"",""trial"",""time""
""fullscreenenter"",""1"",""2781""
","
","
","""event"",""trial"",""time""
""fullscreenenter"",""1"",""2781""
","
","","","","","","2381.4000000953674","<p> On each turn, you will see one piece of sports equipment and three different parks.  </p><p> You need to select which park to deliver the equipment to.  </p>","","0","instructions","","","","","","","","","","","","","",""
"learning-instructions","12","74064","0.0-8.0-0.0-0.4","1717","1","2","""event"",""trial"",""time""
""fullscreenenter"",""1"",""2781""
","
","
","""event"",""trial"",""time""
""fullscreenenter"",""1"",""2781""
","
","","","","","","3196","<p> You can select the park on the left by pressing the '1' key on your keyboard. <br>You can select the park in the middle by pressing the '2' key on your keyboard. <br>You can select the park on the right by pressing the '3' key on your keyboard.  </p><br><div class=""choice-instructions-grid""> <div class=""choice-option""><img src=""images/park1.png"" class=""choice-option-img"" stage=""instructions"" position=""0"" ><div class=""choice-option-text""> Press ""1."" </div></div><div class=""choice-option""><img src=""images/park2.png"" class=""choice-option-img"" stage=""instructions"" position=""1"" ><div class=""choice-option-text""> Press ""2."" </div></div><div class=""choice-option""><img src=""images/park3.png"" class=""choice-option-img"" stage=""instructions"" position=""2"" ><div class=""choice-option-text""> Press ""3."" </div></div></div>","","0","instructions","","","","","","","","","","","","","",""
"learning-instructions","13","80891","0.0-8.0-0.0-0.5","1717","1","2","""event"",""trial"",""time""
""fullscreenenter"",""1"",""2781""
","
","
","""event"",""trial"",""time""
""fullscreenenter"",""1"",""2781""
","
","","","","","","1437.8999996185303","<p> If the kids in the park you chose like the equipment, they will be very happy! </p><div style='float: center;'><img src='images/check.png' width = '200' height = '200'></img>","","0","instructions","","","","","","","","","","","","","",""
"learning-instructions","14","87763","0.0-8.0-0.0-0.6","1717","1","2","""event"",""trial"",""time""
""fullscreenenter"",""1"",""2781""
","
","
","""event"",""trial"",""time""
""fullscreenenter"",""1"",""2781""
","
","","","","","","1270.1999998092651","<p> But, if the kids in the park you chose do not like the equipment, they will be sad. </p><div style='float: center;'><img src='images/x.png' width = '200' height = '200'></img>","","0","instructions","","","","","","","","","","","","","",""
"learning-instructions","15","96530","0.0-8.0-0.0-0.7","1717","1","2","""event"",""trial"",""time""
""fullscreenenter"",""1"",""2781""
","
","
","""event"",""trial"",""time""
""fullscreenenter"",""1"",""2781""
","
","","","","","","2327.300000190735","<p> Importantly, the kids in each park like some pieces of sports equipment more than others. </p>","","0","instructions","","","","","","","","","","","","","",""
"learning-instructions","16","106430","0.0-8.0-0.0-0.8","1717","1","2","""event"",""trial"",""time""
""fullscreenenter"",""1"",""2781""
","
","
","""event"",""trial"",""time""
""fullscreenenter"",""1"",""2781""
","
","","","","","","3831.2999997138977","<p> If you choose the best park for each piece of equipment, the kids there will usually be happy. </p>","","0","instructions","","","","","","","","","","","","","",""
"learning-instructions","17","113896","0.0-8.0-0.0-0.9","1717","1","2","""event"",""trial"",""time""
""fullscreenenter"",""1"",""2781""
","
","
","""event"",""trial"",""time""
""fullscreenenter"",""1"",""2781""
","
","","","","","","812.9000000953674","<p> However, even if you choose the best park for the equipment, the kids may sometimes be sad. </p>","","0","instructions","","","","","","","","","","","","","",""
"learning-instructions","18","121693","0.0-8.0-0.0-0.10","1717","1","2","""event"",""trial"",""time""
""fullscreenenter"",""1"",""2781""
","
","
","""event"",""trial"",""time""
""fullscreenenter"",""1"",""2781""
","
","","","","","","567.1999998092651","<p> Similarly, even if you choose the <i>wrong</i> park for the equipment, the kids may still be happy sometimes.","","0","instructions","","","","","","","","","","","","","",""
"learning-instructions","19","127402","0.0-8.0-0.0-0.11","1717","1","2","""event"",""trial"",""time""
""fullscreenenter"",""1"",""2781""
","
","
","""event"",""trial"",""time""
""fullscreenenter"",""1"",""2781""
","
","","","","","","641.8999996185303","<p> For example, the best park for this soccer ball is this one.<div style='float: center;'><img src='images/i1.png' width = '500' height = '268'></img>","","0","instructions","","","","","","","","","","","","","",""
"learning-instructions","20","133618","0.0-8.0-0.0-0.12","1717","1","2","""event"",""trial"",""time""
""fullscreenenter"",""1"",""2781""
","
","
","""event"",""trial"",""time""
""fullscreenenter"",""1"",""2781""
","
","","","","","","919.7000002861023","<p> Let's see what happens if you choose this park for the soccer ball five times.","","0","instructions","","","","","","","","","","","","","",""
"learning-instructions","21","136660","0.0-8.0-0.0-0.13","1717","1","2","""event"",""trial"",""time""
""fullscreenenter"",""1"",""2781""
","
","
","""event"",""trial"",""time""
""fullscreenenter"",""1"",""2781""
","
","","","","","","857.1999998092651","<p> The kids are happy.<div style='float: left;'><img src='images/i2.png' width = '640' height = '360'></img>","","0","instructions","","","","","","","","","","","","","",""
"learning-instructions","22","139848","0.0-8.0-0.0-0.14","1717","1","2","""event"",""trial"",""time""
""fullscreenenter"",""1"",""2781""
","
","
","""event"",""trial"",""time""
""fullscreenenter"",""1"",""2781""
","
","","","","","","1015.5","<p> The kids are happy.<div style='float: left;'><img src='images/i3.png' width = '640' height = '360'></img>","","0","instructions","","","","","","","","","","","","","",""
"learning-instructions","23","142826","0.0-8.0-0.0-0.15","1717","1","2","""event"",""trial"",""time""
""fullscreenenter"",""1"",""2781""
","
","
","""event"",""trial"",""time""
""fullscreenenter"",""1"",""2781""
","
","","","","","","802.5999999046326","<p> The kids are happy.<div style='float: left;'><img src='images/i4.png' width = '640' height = '360'></img>","","0","instructions","","","","","","","","","","","","","",""
"learning-instructions","24","145896","0.0-8.0-0.0-0.16","1717","1","2","""event"",""trial"",""time""
""fullscreenenter"",""1"",""2781""
","
","
","""event"",""trial"",""time""
""fullscreenenter"",""1"",""2781""
","
","","","","","","854.8000001907349","<p> The kids are sad.<div style='float: left;'><img src='images/i5.png' width = '640' height = '360'></img>","","0","instructions","","","","","","","","","","","","","",""
"learning-instructions","25","149153","0.0-8.0-0.0-0.17","1717","1","2","""event"",""trial"",""time""
""fullscreenenter"",""1"",""2781""
","
","
","""event"",""trial"",""time""
""fullscreenenter"",""1"",""2781""
","
","","","","","","1069.5","<p> The kids are happy.<div style='float: left;'><img src='images/i6.png' width = '640' height = '360'></img>","","0","instructions","","","","","","","","","","","","","",""
"learning-instructions","26","157213","0.0-8.0-0.0-0.18","1717","1","2","""event"",""trial"",""time""
""fullscreenenter"",""1"",""2781""
","
","
","""event"",""trial"",""time""
""fullscreenenter"",""1"",""2781""
","
","","","","","","769.7000002861023","<p> As you can see, selecting that park for the soccer ball made the kids happy most of the time, but not all the time.","","0","instructions","","","","","","","","","","","","","",""
"learning-instructions","27","164024","0.0-8.0-0.0-0.19","1717","1","2","""event"",""trial"",""time""
""fullscreenenter"",""1"",""2781""
","
","
","""event"",""trial"",""time""
""fullscreenenter"",""1"",""2781""
","
","","","","","","796.8000001907349","<p> Now let's see what happens if you choose a DIFFERENT park for the soccer ball 5 times.","","0","instructions","","","","","","","","","","","","","",""
"learning-instructions","28","166952","0.0-8.0-0.0-0.20","1717","1","2","""event"",""trial"",""time""
""fullscreenenter"",""1"",""2781""
","
","
","""event"",""trial"",""time""
""fullscreenenter"",""1"",""2781""
","
","","","","","","715.9000000953674","<p> The kids are sad.<div style='float: left;'><img src='images/i7.png' width = '640' height = '360'></img>","","0","instructions","","","","","","","","","","","","","",""
"learning-instructions","29","169736","0.0-8.0-0.0-0.21","1717","1","2","""event"",""trial"",""time""
""fullscreenenter"",""1"",""2781""
","
","
","""event"",""trial"",""time""
""fullscreenenter"",""1"",""2781""
","
","","","","","","567.2000002861023","<p> The kids are sad.<div style='float: left;'><img src='images/i8.png' width = '640' height = '360'></img>","","0","instructions","","","","","","","","","","","","","",""
"learning-instructions","30","172500","0.0-8.0-0.0-0.22","1717","1","2","""event"",""trial"",""time""
""fullscreenenter"",""1"",""2781""
","
","
","""event"",""trial"",""time""
""fullscreenenter"",""1"",""2781""
","
","","","","","","588.2999997138977","<p> The kids are happy.<div style='float: left;'><img src='images/i9.png' width = '640' height = '360'></img>","","0","instructions","","","","","","","","","","","","","",""
"learning-instructions","31","175262","0.0-8.0-0.0-0.23","1717","1","2","""event"",""trial"",""time""
""fullscreenenter"",""1"",""2781""
","
","
","""event"",""trial"",""time""
""fullscreenenter"",""1"",""2781""
","
","","","","","","546.7000002861023","<p> The kids are sad.<div style='float: left;'><img src='images/i10.png' width = '640' height = '360'></img>","","0","instructions","","","","","","","","","","","","","",""
"learning-instructions","32","178046","0.0-8.0-0.0-0.24","1717","1","2","""event"",""trial"",""time""
""fullscreenenter"",""1"",""2781""
","
","
","""event"",""trial"",""time""
""fullscreenenter"",""1"",""2781""
","
","","","","","","568.5999999046326","<p> The kids are sad.<div style='float: left;'><img src='images/i11.png' width = '640' height = '360'></img>","","0","instructions","","","","","","","","","","","","","",""
"learning-instructions","33","186921","0.0-8.0-0.0-0.25","1717","1","2","""event"",""trial"",""time""
""fullscreenenter"",""1"",""2781""
","
","
","""event"",""trial"",""time""
""fullscreenenter"",""1"",""2781""
","
","","","","","","749.9000000953674","<p> As you can see, selecting the wrong park for the soccer ball made the kids sad most of the time, but not all the time.","","0","instructions","","","","","","","","","","","","","",""
"learning-instructions","34","196862","0.0-8.0-0.0-0.26","1717","1","2","""event"",""trial"",""time""
""fullscreenenter"",""1"",""2781""
","
","
","""event"",""trial"",""time""
""fullscreenenter"",""1"",""2781""
","
","","","","","","812.1000003814697","<p> The different pieces of equipment belong in different parks. You need to try to learn which is the best park for each piece of equipment.","","0","instructions","","","","","","","","","","","","","",""
"learning-instructions","35","214205","0.0-8.0-0.0-0.27","1717","1","2","""event"",""trial"",""time""
""fullscreenenter"",""1"",""2781""
","
","
","""event"",""trial"",""time""
""fullscreenenter"",""1"",""2781""
","
","","","","","","941","<p> Try to choose the best park for each piece of equipment, because you will <b> WIN </b> 1 point for each time you make the kids happy and <b>LOSE</b> 1 point for each time you make them sad. </p><p> Remember, if you make the best choice, you will win 1 point most of the time, but not all the time. </p>","","0","instructions","","","","","","","","","","","","","",""
"learning-instructions","36","220540","0.0-8.0-0.0-0.28","1717","1","2","""event"",""trial"",""time""
""fullscreenenter"",""1"",""2781""
","
","
","""event"",""trial"",""time""
""fullscreenenter"",""1"",""2781""
","
","","","","","","844.5999999046326","<p> This is just a practice round, but in the real game, your bonus payment will depend on your total number of points.","","0","instructions","","","","","","","","","","","","","",""
"learning-instructions","37","231219","0.0-8.0-0.0-0.29","1717","1","2","""event"",""trial"",""time""
""fullscreenenter"",""1"",""2781""
","
","
","""event"",""trial"",""time""
""fullscreenenter"",""1"",""2781""
","
","","","","","","343.7999997138977","<p> The position where each park appears will change throughout the game. </p><p> The position where the park appears <i> does not </i> influence how likely the kids are to be happy or sad. </p>","","0","instructions","","","","","","","","","","","","","",""
"learning-instructions","38","243171","0.0-8.0-0.0-0.30","1717","1","2","""event"",""trial"",""time""
""fullscreenenter"",""1"",""2781""
","
","
","""event"",""trial"",""time""
""fullscreenenter"",""1"",""2781""
","
","","","","","","668.2999997138977","<p> You will have 4 seconds to make each choice. Try to respond before time runs out! </p><p> You will lose 1 point each time you do not make a response. </p>","","0","instructions","","","","","","","","","","","","","",""
"learning-instructions","39","251034","0.0-8.0-0.0-0.31","1717","1","2","""event"",""trial"",""time""
""fullscreenenter"",""1"",""2781""
","
","
","""event"",""trial"",""time""
""fullscreenenter"",""1"",""2781""
","
","","","","","","1056.5","<p> Remember, you should use the 1, 2, and 3 keys to select the park for each piece of equipment. </p><br><div class=""choice-instructions-grid""> <div class=""choice-option""><img src=""images/park1.png"" class=""choice-option-img"" stage=""instructions"" position=""0"" ><div class=""choice-option-text""> Press ""1."" </div></div><div class=""choice-option""><img src=""images/park2.png"" class=""choice-option-img"" stage=""instructions"" position=""1"" ><div class=""choice-option-text""> Press ""2."" </div></div><div class=""choice-option""><img src=""images/park3.png"" class=""choice-option-img"" stage=""instructions"" position=""2"" ><div class=""choice-option-text""> Press ""3."" </div></div></div>","","0","instructions","","","","","","","","","","","","","",""
"html-button-response","40","253531","0.0-8.0-1.0","1717","1","2","""event"",""trial"",""time""
""fullscreenenter"",""1"",""2781""
","
","
","""event"",""trial"",""time""
""fullscreenenter"",""1"",""2781""
","
","","","","","","2388.7999997138977","<p> Ready to practice? </p>","0","","","","","","","","","","","","","","","",""
"html-keyboard-response","41","254156","0.0-8.0-2.0-0.0","1717","1","2","""event"",""trial"",""time""
""fullscreenenter"",""1"",""2781""
","
","
","""event"",""trial"",""time""
""fullscreenenter"",""1"",""2781""
","
","","","","","","null","<div style=""font-size:60px;"">+</div>","null","","fixation","","","","","","","","","","","","","",""
"learning-trial","42","258178","0.0-8.0-2.0-1.0","1717","1","2","""event"",""trial"",""time""
""fullscreenenter"",""1"",""2781""
","
","
","""event"",""trial"",""time""
""fullscreenenter"",""1"",""2781""
","
","","","","","","2143.3999996185303","images/ball1.png","","","practice","images/park3.png","images/park2.png","images/park1.png","[2,1,0]","1","1","3","images/park1.png","-1","practice","","","",""
"html-keyboard-response","43","258701","0.0-8.0-2.0-0.1","1717","1","2","""event"",""trial"",""time""
""fullscreenenter"",""1"",""2781""
","
","
","""event"",""trial"",""time""
""fullscreenenter"",""1"",""2781""
","
","","","","","","null","<div style=""font-size:60px;"">+</div>","null","","fixation","","","","","","","","","","","","","",""
"learning-trial","44","262723","0.0-8.0-2.0-1.1","1717","1","2","""event"",""trial"",""time""
""fullscreenenter"",""1"",""2781""
","
","
","""event"",""trial"",""time""
""fullscreenenter"",""1"",""2781""
","
","","","","","","2229.4000000953674","images/racket3.png","","","practice","images/park2.png","images/park3.png","images/park1.png","[1,2,0]","2","1","1","images/park2.png","-1","practice","","","",""
"html-keyboard-response","45","263234","0.0-8.0-2.0-0.2","1717","1","2","""event"",""trial"",""time""
""fullscreenenter"",""1"",""2781""
","
","
","""event"",""trial"",""time""
""fullscreenenter"",""1"",""2781""
","
","","","","","","null","<div style=""font-size:60px;"">+</div>","null","","fixation","","","","","","","","","","","","","",""
"learning-trial","46","267244","0.0-8.0-2.0-1.2","1717","1","2","""event"",""trial"",""time""
""fullscreenenter"",""1"",""2781""
","
","
","""event"",""trial"",""time""
""fullscreenenter"",""1"",""2781""
","
","","","","","","2406.0999999046326","images/ball3.png","","","practice","images/park3.png","images/park1.png","images/park2.png","[2,0,1]","0","1","1","images/park3.png","-1","practice","","","",""
"html-keyboard-response","47","267757","0.0-8.0-2.0-0.3","1717","1","2","""event"",""trial"",""time""
""fullscreenenter"",""1"",""2781""
","
","
","""event"",""trial"",""time""
""fullscreenenter"",""1"",""2781""
","
","","","","","","null","<div style=""font-size:60px;"">+</div>","null","","fixation","","","","","","","","","","","","","",""
"learning-trial","48","271766","0.0-8.0-2.0-1.3","1717","1","2","""event"",""trial"",""time""
""fullscreenenter"",""1"",""2781""
","
","
","""event"",""trial"",""time""
""fullscreenenter"",""1"",""2781""
","
","","","","","","1226.0999999046326","images/ball2.png","","","practice","images/park2.png","images/park3.png","images/park1.png","[1,2,0]","2","1","3","images/park1.png","-1","practice","","","",""
"html-keyboard-response","49","272279","0.0-8.0-2.0-0.4","1717","1","2","""event"",""trial"",""time""
""fullscreenenter"",""1"",""2781""
","
","
","""event"",""trial"",""time""
""fullscreenenter"",""1"",""2781""
","
","","","","","","null","<div style=""font-size:60px;"">+</div>","null","","fixation","","","","","","","","","","","","","",""
"learning-trial","50","276302","0.0-8.0-2.0-1.4","1717","1","2","""event"",""trial"",""time""
""fullscreenenter"",""1"",""2781""
","
","
","""event"",""trial"",""time""
""fullscreenenter"",""1"",""2781""
","
","","","","","","1721.5999999046326","images/ball4.png","","","practice","images/park1.png","images/park3.png","images/park2.png","[0,2,1]","1","2","1","images/park1.png","-1","practice","","","",""
"html-keyboard-response","51","276813","0.0-8.0-2.0-0.5","1717","1","2","""event"",""trial"",""time""
""fullscreenenter"",""1"",""2781""
","
","
","""event"",""trial"",""time""
""fullscreenenter"",""1"",""2781""
","
","","","","","","null","<div style=""font-size:60px;"">+</div>","null","","fixation","","","","","","","","","","","","","",""
"learning-trial","52","280827","0.0-8.0-2.0-1.5","1717","1","2","""event"",""trial"",""time""
""fullscreenenter"",""1"",""2781""
","
","
","""event"",""trial"",""time""
""fullscreenenter"",""1"",""2781""
","
","","","","","","1892","images/ball3.png","","","practice","images/park2.png","images/park1.png","images/park3.png","[1,0,2]","0","1","3","images/park3.png","-1","practice","","","",""
"html-keyboard-response","53","281338","0.0-8.0-2.0-0.6","1717","1","2","""event"",""trial"",""time""
""fullscreenenter"",""1"",""2781""
","
","
","""event"",""trial"",""time""
""fullscreenenter"",""1"",""2781""
","
","","","","","","null","<div style=""font-size:60px;"">+</div>","null","","fixation","","","","","","","","","","","","","",""
"learning-trial","54","285352","0.0-8.0-2.0-1.6","1717","1","2","""event"",""trial"",""time""
""fullscreenenter"",""1"",""2781""
","
","
","""event"",""trial"",""time""
""fullscreenenter"",""1"",""2781""
","
","","","","","","1851","images/ball2.png","","","practice","images/park3.png","images/park2.png","images/park1.png","[2,1,0]","2","0","2","images/park2.png","-1","practice","","","",""
"html-keyboard-response","55","285863","0.0-8.0-2.0-0.7","1717","1","2","""event"",""trial"",""time""
""fullscreenenter"",""1"",""2781""
","
","
","""event"",""trial"",""time""
""fullscreenenter"",""1"",""2781""
","
","","","","","","null","<div style=""font-size:60px;"">+</div>","null","","fixation","","","","","","","","","","","","","",""
"learning-trial","56","289873","0.0-8.0-2.0-1.7","1717","1","2","""event"",""trial"",""time""
""fullscreenenter"",""1"",""2781""
","
","
","""event"",""trial"",""time""
""fullscreenenter"",""1"",""2781""
","
","","","","","","1677.2999997138977","images/racket1.png","","","practice","images/park3.png","images/park1.png","images/park2.png","[2,0,1]","0","1","1","images/park3.png","-1","practice","","","",""
"html-keyboard-response","57","290380","0.0-8.0-2.0-0.8","1717","1","2","""event"",""trial"",""time""
""fullscreenenter"",""1"",""2781""
","
","
","""event"",""trial"",""time""
""fullscreenenter"",""1"",""2781""
","
","","","","","","null","<div style=""font-size:60px;"">+</div>","null","","fixation","","","","","","","","","","","","","",""
"learning-trial","58","294391","0.0-8.0-2.0-1.8","1717","1","2","""event"",""trial"",""time""
""fullscreenenter"",""1"",""2781""
","
","
","""event"",""trial"",""time""
""fullscreenenter"",""1"",""2781""
","
","","","","","","1718.5999999046326","images/racket3.png","","","practice","images/park2.png","images/park1.png","images/park3.png","[1,0,2]","2","2","2","images/park1.png","-1","practice","","","",""
"html-keyboard-response","59","294896","0.0-8.0-2.0-0.9","1717","1","2","""event"",""trial"",""time""
""fullscreenenter"",""1"",""2781""
","
","
","""event"",""trial"",""time""
""fullscreenenter"",""1"",""2781""
","
","","","","","","null","<div style=""font-size:60px;"">+</div>","null","","fixation","","","","","","","","","","","","","",""
"learning-trial","60","298910","0.0-8.0-2.0-1.9","1717","1","2","""event"",""trial"",""time""
""fullscreenenter"",""1"",""2781""
","
","
","""event"",""trial"",""time""
""fullscreenenter"",""1"",""2781""
","
","","","","","","739.4000000953674","images/ball4.png","","","practice","images/park2.png","images/park1.png","images/park3.png","[1,0,2]","1","0","2","images/park1.png","-1","practice","","","",""
"html-keyboard-response","61","299421","0.0-8.0-2.0-0.10","1717","1","2","""event"",""trial"",""time""
""fullscreenenter"",""1"",""2781""
","
","
","""event"",""trial"",""time""
""fullscreenenter"",""1"",""2781""
","
","","","","","","null","<div style=""font-size:60px;"">+</div>","null","","fixation","","","","","","","","","","","","","",""
"learning-trial","62","303432","0.0-8.0-2.0-1.10","1717","1","2","""event"",""trial"",""time""
""fullscreenenter"",""1"",""2781""
","
","
","""event"",""trial"",""time""
""fullscreenenter"",""1"",""2781""
","
","","","","","","1665.6999998092651","images/racket1.png","","","practice","images/park3.png","images/park1.png","images/park2.png","[2,0,1]","0","1","2","images/park1.png","-1","practice","","","",""
"html-keyboard-response","63","303939","0.0-8.0-2.0-0.11","1717","1","2","""event"",""trial"",""time""
""fullscreenenter"",""1"",""2781""
","
","
","""event"",""trial"",""time""
""fullscreenenter"",""1"",""2781""
","
","","","","","","null","<div style=""font-size:60px;"">+</div>","null","","fixation","","","","","","","","","","","","","",""
"learning-trial","64","307953","0.0-8.0-2.0-1.11","1717","1","2","""event"",""trial"",""time""
""fullscreenenter"",""1"",""2781""
","
","
","""event"",""trial"",""time""
""fullscreenenter"",""1"",""2781""
","
","","","","","","1283.6999998092651","images/ball1.png","","","practice","images/park3.png","images/park2.png","images/park1.png","[2,1,0]","1","1","3","images/park1.png","1","practice","","","",""
"html-button-response","65","310599","0.0-8.0-3.0","1717","1","2","""event"",""trial"",""time""
""fullscreenenter"",""1"",""2781""
","
","
","""event"",""trial"",""time""
""fullscreenenter"",""1"",""2781""
","
","","","","","","2639.8999996185303","<p> You earned -10 points in the practice round! </p>","0","","break","","","","","","","","","","","","","",""
"learning-instructions","66","321918","0.0-8.0-4.0-0.0","1717","1","2","""event"",""trial"",""time""
""fullscreenenter"",""1"",""2781""
","
","
","""event"",""trial"",""time""
""fullscreenenter"",""1"",""2781""
","
","","","","","","3050.5","<p> It's almost time to start the real game. </p><p> Before you start, we're going to ask you a few questions about how the game works. </p>","","0","instructions","","","","","","","","","","","","","",""
"preload","67","324922","0.0-8.0-5.0","1717","1","2","""event"",""trial"",""time""
""fullscreenenter"",""1"",""2781""
","
","
","""event"",""trial"",""time""
""fullscreenenter"",""1"",""2781""
","
","true","false","[]","[]","[]","","","","","","","","","","","","","","","","","","",""
"comp-q","68","331910","0.0-8.0-6.0-0.0","1717","1","2","""event"",""trial"",""time""
""fullscreenenter"",""1"",""2781""
","
","
","""event"",""trial"",""time""
""fullscreenenter"",""1"",""2781""
","
","","","","","","1527.3999996185303","<p> <b> True or False? </b> </p><p> If you choose the best option, you will always earn 1 point. </p>","","0","comp_question","","","","","","","","","","","false","","",""
"comp-q","69","339205","0.0-8.0-6.0-1.0","1717","1","2","""event"",""trial"",""time""
""fullscreenenter"",""1"",""2781""
","
","
","""event"",""trial"",""time""
""fullscreenenter"",""1"",""2781""
","
","","","","","","1719","<p><b> Incorrect. </b> Sometimes you will lose 1 point, even if you choose the best option. </p>","","0","comp_answer","","","","","","","","","","","","","",""
"comp-q","70","345284","0.0-8.0-6.0-0.1","1717","1","2","""event"",""trial"",""time""
""fullscreenenter"",""1"",""2781""
","
","
","""event"",""trial"",""time""
""fullscreenenter"",""1"",""2781""
","
","","","","","","1441","<p> <b> True or False? </b> </p><p> You will have as much time as you want to make each choice. </p>","","1","comp_question","","","","","","","","","","","true","","",""
"comp-q","71","351848","0.0-8.0-6.0-1.1","1717","1","2","""event"",""trial"",""time""
""fullscreenenter"",""1"",""2781""
","
","
","""event"",""trial"",""time""
""fullscreenenter"",""1"",""2781""
","
","","","","","","1743.9000000953674","<p> <b> That's right! </b> You will only have 4 seconds to make each choice. </p>","","0","comp_answer","","","","","","","","","","","","","",""
"comp-q","72","359045","0.0-8.0-6.0-0.2","1717","1","2","""event"",""trial"",""time""
""fullscreenenter"",""1"",""2781""
","
","
","""event"",""trial"",""time""
""fullscreenenter"",""1"",""2781""
","
","","","","","","1034.7999997138977","<p> <b> True or False? </b> </p><p> You should use the '1', '2', and '3' keys to make your choices. </p>","","0","comp_question","","","","","","","","","","","true","","",""
"comp-q","73","365647","0.0-8.0-6.0-1.2","1717","1","2","""event"",""trial"",""time""
""fullscreenenter"",""1"",""2781""
","
","
","""event"",""trial"",""time""
""fullscreenenter"",""1"",""2781""
","
","","","","","","1740.5999999046326","<p> <b> That's right! </b> You should use the '1', '2', and '3' keys to make each choice. </p>","","0","comp_answer","","","","","","","","","","","","","",""
"learning-instructions","74","376001","0.0-8.0-7.0-0.0","1717","1","2","""event"",""trial"",""time""
""fullscreenenter"",""1"",""2781""
","
","
","""event"",""trial"",""time""
""fullscreenenter"",""1"",""2781""
","
","","","","","","1849.0999999046326","<p> It's now time to start the real game. </p>Do your best, because the points you earn in the next rounds will influence your bonus payment. </p>","","0","instructions","","","","","","","","","","","","","",""
"preload","75","380465","0.0-9.0-0.0","1717","1","2","""event"",""trial"",""time""
""fullscreenenter"",""1"",""2781""
","
","
","""event"",""trial"",""time""
""fullscreenenter"",""1"",""2781""
","
","true","false","[]","[]","[]","","","","","","","","","","","","","","","","","","",""
"learning-instructions","76","390296","0.0-9.0-1.0-0.0","1717","1","2","""event"",""trial"",""time""
""fullscreenenter"",""1"",""2781""
","
","
","""event"",""trial"",""time""
""fullscreenenter"",""1"",""2781""
","
","","","","","","2992.0999999046326","<p> Your goal in this round is to grow a beautiful garden by watering plants. </p><p> You will need to water many different plants. </p></div>","","0","instructions","","","","","","","","","","","","","",""
"learning-instructions","77","404587","0.0-9.0-1.0-0.1","1717","1","2","""event"",""trial"",""time""
""fullscreenenter"",""1"",""2781""
","
","
","""event"",""trial"",""time""
""fullscreenenter"",""1"",""2781""
","
","","","","","","1005.6999998092651","<p> On each turn, you will see a picture of one of your plants and three different watering cans.  </p><p> Each watering can has a different mixture of water and fertilizer.  </p><p> You need to select which watering can to use for each plant. </p>","","0","instructions","","","","","","","","","","","","","",""
"learning-instructions","78","412971","0.0-9.0-1.0-0.2","1717","1","2","""event"",""trial"",""time""
""fullscreenenter"",""1"",""2781""
","
","
","""event"",""trial"",""time""
""fullscreenenter"",""1"",""2781""
","
","","","","","","630.8000001907349","<p> You can select the watering can on the left by pressing 1, the watering can in the middle by pressing 2, and the watering can on the right by pressing 3. </p><br><div class=""choice-instructions-grid""> <div class=""choice-option""><img src=""images/plants_choice1.png"" class=""choice-option-img"" stage=""instructions"" position=""0"" ><div class=""choice-option-text""> Press ""1."" </div></div><div class=""choice-option""><img src=""images/plants_choice2.png"" class=""choice-option-img"" stage=""instructions"" position=""1"" ><div class=""choice-option-text""> Press ""2."" </div></div><div class=""choice-option""><img src=""images/plants_choice3.png"" class=""choice-option-img"" stage=""instructions"" position=""2"" ><div class=""choice-option-text""> Press ""3."" </div></div></div>","","0","instructions","","","","","","","","","","","","","",""
"learning-instructions","79","417846","0.0-9.0-1.0-0.3","1717","1","2","""event"",""trial"",""time""
""fullscreenenter"",""1"",""2781""
","
","
","""event"",""trial"",""time""
""fullscreenenter"",""1"",""2781""
","
","","","","","","695.7000002861023","<p> If the watering can you chose works for the plant, it will grow! </p><div style='float: center;'><img src='images/check.png' width = '200' height = '200'></img>","","0","instructions","","","","","","","","","","","","","",""
"learning-instructions","80","423755","0.0-9.0-1.0-0.4","1717","1","2","""event"",""trial"",""time""
""fullscreenenter"",""1"",""2781""
","
","
","""event"",""trial"",""time""
""fullscreenenter"",""1"",""2781""
","
","","","","","","1091","<p> But, if the watering can you chose does not work, your plant will droop. </p><div style='float: center;'><img src='images/x.png' width = '200' height = '200'></img>","","0","instructions","","","","","","","","","","","","","",""
"learning-instructions","81","434441","0.0-9.0-1.0-0.5","1717","1","2","""event"",""trial"",""time""
""fullscreenenter"",""1"",""2781""
","
","
","""event"",""trial"",""time""
""fullscreenenter"",""1"",""2781""
","
","","","","","","609.5999999046326","<p> Importantly, each plant has one fertilizer mixture that works best for it. </p><p> If you choose the watering can with the right fertilizer, the plant will be more likely to grow. </p>","","0","instructions","","","","","","","","","","","","","",""
"learning-instructions","82","445663","0.0-9.0-1.0-0.6","1717","1","2","""event"",""trial"",""time""
""fullscreenenter"",""1"",""2781""
","
","
","""event"",""trial"",""time""
""fullscreenenter"",""1"",""2781""
","
","","","","","","876.5","<p> However, even if you choose the best watering can for the plant, the plant may still droop. </p><p> Similarly, even if you choose the <i>wrong</i> watering can, the plant may still grow.","","0","instructions","","","","","","","","","","","","","",""
"learning-instructions","83","459701","0.0-9.0-1.0-0.7","1717","1","2","""event"",""trial"",""time""
""fullscreenenter"",""1"",""2781""
","
","
","""event"",""trial"",""time""
""fullscreenenter"",""1"",""2781""
","
","","","","","","2168","<p> Try to choose the best watering can for each plant, because you will <b> WIN </b> 1 point each time a plant grows and <b>LOSE</b>  1 point each time a plant droops. </p><p> Your bonus payment will depend on your total number of points.","","0","instructions","","","","","","","","","","","","","",""
"learning-instructions","84","468375","0.0-9.0-1.0-0.8","1717","1","2","""event"",""trial"",""time""
""fullscreenenter"",""1"",""2781""
","
","
","""event"",""trial"",""time""
""fullscreenenter"",""1"",""2781""
","
","","","","","","654","<p> The position of each watering can will change throughout the round. </p><p> The watering can's position <i> does not </i> influence how likely each plant is to droop or grow. </p>","","0","instructions","","","","","","","","","","","","","",""
"learning-instructions","85","478420","0.0-9.0-1.0-0.9","1717","1","2","""event"",""trial"",""time""
""fullscreenenter"",""1"",""2781""
","
","
","""event"",""trial"",""time""
""fullscreenenter"",""1"",""2781""
","
","","","","","","737.7999997138977","<p> You will have 4 seconds to make each choice. Try to respond before time runs out! </p><p> You will lose 1 point each time you do not make a response. </p>","","0","instructions","","","","","","","","","","","","","",""
"html-keyboard-response","86","479059","0.0-9.0-2.0-0.0","1717","1","2","""event"",""trial"",""time""
""fullscreenenter"",""1"",""2781""
","
","
","""event"",""trial"",""time""
""fullscreenenter"",""1"",""2781""
","
","","","","","","null","<div style=""font-size:60px;"">+</div>","null","","fixation","","","","","","","","","","","","","",""
"learning-trial","87","483081","0.0-9.0-2.0-1.0","1717","1","2","""event"",""trial"",""time""
""fullscreenenter"",""1"",""2781""
","
","
","""event"",""trial"",""time""
""fullscreenenter"",""1"",""2781""
","
","","","","","","2382.699999809265","images/flower4.png","","","learning","images/plants_choice3.png","images/plants_choice1.png","images/plants_choice2.png","[2,0,1]","2","0","3","images/plants_choice2.png","-1","plants","","flower","1","0"
"html-keyboard-response","88","483584","0.0-9.0-2.0-0.1","1717","1","2","""event"",""trial"",""time""
""fullscreenenter"",""1"",""2781""
","
","
","""event"",""trial"",""time""
""fullscreenenter"",""1"",""2781""
","
","","","","","","null","<div style=""font-size:60px;"">+</div>","null","","fixation","","","","","","","","","","","","","",""
"learning-trial","89","487612","0.0-9.0-2.0-1.1","1717","1","2","""event"",""trial"",""time""
""fullscreenenter"",""1"",""2781""
","
","
","""event"",""trial"",""time""
""fullscreenenter"",""1"",""2781""
","
","","","","","","1794.7999997138977","images/bush4.png","","","learning","images/plants_choice1.png","images/plants_choice3.png","images/plants_choice2.png","[0,2,1]","1","2","1","images/plants_choice1.png","-1","plants","","bush","1","0"
"html-keyboard-response","90","488124","0.0-9.0-2.0-0.2","1717","1","2","""event"",""trial"",""time""
""fullscreenenter"",""1"",""2781""
","
","
","""event"",""trial"",""time""
""fullscreenenter"",""1"",""2781""
","
","","","","","","null","<div style=""font-size:60px;"">+</div>","null","","fixation","","","","","","","","","","","","","",""
"learning-trial","91","492146","0.0-9.0-2.0-1.2","1717","1","2","""event"",""trial"",""time""
""fullscreenenter"",""1"",""2781""
","
","
","""event"",""trial"",""time""
""fullscreenenter"",""1"",""2781""
","
","","","","","","888","images/bush1.png","","","learning","images/plants_choice2.png","images/plants_choice3.png","images/plants_choice1.png","[1,2,0]","1","0","2","images/plants_choice3.png","-1","plants","","bush","1","0"
"html-keyboard-response","92","492669","0.0-9.0-2.0-0.3","1717","1","2","""event"",""trial"",""time""
""fullscreenenter"",""1"",""2781""
","
","
","""event"",""trial"",""time""
""fullscreenenter"",""1"",""2781""
","
","","","","","","null","<div style=""font-size:60px;"">+</div>","null","","fixation","","","","","","","","","","","","","",""
"learning-trial","93","496679","0.0-9.0-2.0-1.3","1717","1","2","""event"",""trial"",""time""
""fullscreenenter"",""1"",""2781""
","
","
","""event"",""trial"",""time""
""fullscreenenter"",""1"",""2781""
","
","","","","","","1468.9000000953674","images/cactus1.png","","","learning","images/plants_choice1.png","images/plants_choice3.png","images/plants_choice2.png","[0,2,1]","0","0","3","images/plants_choice2.png","1","plants","","cactus","1","0"
"html-keyboard-response","94","497201","0.0-9.0-2.0-0.4","1717","1","2","""event"",""trial"",""time""
""fullscreenenter"",""1"",""2781""
","
","
","""event"",""trial"",""time""
""fullscreenenter"",""1"",""2781""
","
","","","","","","null","<div style=""font-size:60px;"">+</div>","null","","fixation","","","","","","","","","","","","","",""
"learning-trial","95","501213","0.0-9.0-2.0-1.4","1717","1","2","""event"",""trial"",""time""
""fullscreenenter"",""1"",""2781""
","
","
","""event"",""trial"",""time""
""fullscreenenter"",""1"",""2781""
","
","","","","","","1265.0999999046326","images/cactus5.png","","","learning","images/plants_choice2.png","images/plants_choice1.png","images/plants_choice3.png","[1,0,2]","0","1","1","images/plants_choice2.png","-1","plants","","cactus","1","0"
"html-keyboard-response","96","501724","0.0-9.0-2.0-0.5","1717","1","2","""event"",""trial"",""time""
""fullscreenenter"",""1"",""2781""
","
","
","""event"",""trial"",""time""
""fullscreenenter"",""1"",""2781""
","
","","","","","","null","<div style=""font-size:60px;"">+</div>","null","","fixation","","","","","","","","","","","","","",""
"learning-trial","97","505747","0.0-9.0-2.0-1.5","1717","1","2","""event"",""trial"",""time""
""fullscreenenter"",""1"",""2781""
","
","
","""event"",""trial"",""time""
""fullscreenenter"",""1"",""2781""
","
","","","","","","1871.9000000953674","images/bush1.png","","","learning","images/plants_choice2.png","images/plants_choice1.png","images/plants_choice3.png","[1,0,2]","1","0","2","images/plants_choice1.png","-1","plants","","bush","1","0"
"html-keyboard-response","98","506257","0.0-9.0-2.0-0.6","1717","1","2","""event"",""trial"",""time""
""fullscreenenter"",""1"",""2781""
","
","
","""event"",""trial"",""time""
""fullscreenenter"",""1"",""2781""
","
","","","","","","null","<div style=""font-size:60px;"">+</div>","null","","fixation","","","","","","","","","","","","","",""
"learning-trial","99","510269","0.0-9.0-2.0-1.6","1717","1","2","""event"",""trial"",""time""
""fullscreenenter"",""1"",""2781""
","
","
","""event"",""trial"",""time""
""fullscreenenter"",""1"",""2781""
","
","","","","","","1980.2000002861023","images/cactus5.png","","","learning","images/plants_choice1.png","images/plants_choice2.png","images/plants_choice3.png","[0,1,2]","0","0","3","images/plants_choice3.png","-1","plants","","cactus","1","0"
"html-keyboard-response","100","510772","0.0-9.0-2.0-0.7","1717","1","2","""event"",""trial"",""time""
""fullscreenenter"",""1"",""2781""
","
","
","""event"",""trial"",""time""
""fullscreenenter"",""1"",""2781""
","
","","","","","","null","<div style=""font-size:60px;"">+</div>","null","","fixation","","","","","","","","","","","","","",""
"learning-trial","101","514787","0.0-9.0-2.0-1.7","1717","1","2","""event"",""trial"",""time""
""fullscreenenter"",""1"",""2781""
","
","
","""event"",""trial"",""time""
""fullscreenenter"",""1"",""2781""
","
","","","","","","1530.2000002861023","images/flower4.png","","","learning","images/plants_choice3.png","images/plants_choice1.png","images/plants_choice2.png","[2,0,1]","2","0","1","images/plants_choice3.png","1","plants","","flower","1","0"
"html-keyboard-response","102","515292","0.0-9.0-2.0-0.8","1717","1","2","""event"",""trial"",""time""
""fullscreenenter"",""1"",""2781""
","
","
","""event"",""trial"",""time""
""fullscreenenter"",""1"",""2781""
","
","","","","","","null","<div style=""font-size:60px;"">+</div>","null","","fixation","","","","","","","","","","","","","",""
"learning-trial","103","519314","0.0-9.0-2.0-1.8","1717","1","2","""event"",""trial"",""time""
""fullscreenenter"",""1"",""2781""
","
","
","""event"",""trial"",""time""
""fullscreenenter"",""1"",""2781""
","
","","","","","","1006","images/bush4.png","","","learning","images/plants_choice2.png","images/plants_choice1.png","images/plants_choice3.png","[1,0,2]","1","0","2","images/plants_choice1.png","-1","plants","","bush","1","0"
"html-keyboard-response","104","519819","0.0-9.0-2.0-0.9","1717","1","2","""event"",""trial"",""time""
""fullscreenenter"",""1"",""2781""
","
","
","""event"",""trial"",""time""
""fullscreenenter"",""1"",""2781""
","
","","","","","","null","<div style=""font-size:60px;"">+</div>","null","","fixation","","","","","","","","","","","","","",""
"learning-trial","105","523827","0.0-9.0-2.0-1.9","1717","1","2","""event"",""trial"",""time""
""fullscreenenter"",""1"",""2781""
","
","
","""event"",""trial"",""time""
""fullscreenenter"",""1"",""2781""
","
","","","","","","1229.0999999046326","images/flower4.png","","","learning","images/plants_choice3.png","images/plants_choice2.png","images/plants_choice1.png","[2,1,0]","2","0","1","images/plants_choice3.png","1","plants","","flower","1","0"
"html-keyboard-response","106","524339","0.0-9.0-2.0-0.10","1717","1","2","""event"",""trial"",""time""
""fullscreenenter"",""1"",""2781""
","
","
","""event"",""trial"",""time""
""fullscreenenter"",""1"",""2781""
","
","","","","","","null","<div style=""font-size:60px;"">+</div>","null","","fixation","","","","","","","","","","","","","",""
"learning-trial","107","528346","0.0-9.0-2.0-1.10","1717","1","2","""event"",""trial"",""time""
""fullscreenenter"",""1"",""2781""
","
","
","""event"",""trial"",""time""
""fullscreenenter"",""1"",""2781""
","
","","","","","","1298.2000002861023","images/bush4.png","","","learning","images/plants_choice3.png","images/plants_choice1.png","images/plants_choice2.png","[2,0,1]","1","2","2","images/plants_choice1.png","-1","plants","","bush","1","0"
"html-keyboard-response","108","528860","0.0-9.0-2.0-0.11","1717","1","2","""event"",""trial"",""time""
""fullscreenenter"",""1"",""2781""
","
","
","""event"",""trial"",""time""
""fullscreenenter"",""1"",""2781""
","
","","","","","","null","<div style=""font-size:60px;"">+</div>","null","","fixation","","","","","","","","","","","","","",""
"learning-trial","109","532867","0.0-9.0-2.0-1.11","1717","1","2","""event"",""trial"",""time""
""fullscreenenter"",""1"",""2781""
","
","
","""event"",""trial"",""time""
""fullscreenenter"",""1"",""2781""
","
","","","","","","1453.3000001907349","images/bush3.png","","","learning","images/plants_choice3.png","images/plants_choice1.png","images/plants_choice2.png","[2,0,1]","1","2","2","images/plants_choice1.png","-1","plants","","bush","1","0"
"html-keyboard-response","110","533372","0.0-9.0-2.0-0.12","1717","1","2","""event"",""trial"",""time""
""fullscreenenter"",""1"",""2781""
","
","
","""event"",""trial"",""time""
""fullscreenenter"",""1"",""2781""
","
","","","","","","null","<div style=""font-size:60px;"">+</div>","null","","fixation","","","","","","","","","","","","","",""
"learning-trial","111","537384","0.0-9.0-2.0-1.12","1717","1","2","""event"",""trial"",""time""
""fullscreenenter"",""1"",""2781""
","
","
","""event"",""trial"",""time""
""fullscreenenter"",""1"",""2781""
","
","","","","","","1602.2000002861023","images/cactus1.png","","","learning","images/plants_choice3.png","images/plants_choice2.png","images/plants_choice1.png","[2,1,0]","0","2","2","images/plants_choice2.png","-1","plants","","cactus","1","0"
"html-keyboard-response","112","537887","0.0-9.0-2.0-0.13","1717","1","2","""event"",""trial"",""time""
""fullscreenenter"",""1"",""2781""
","
","
","""event"",""trial"",""time""
""fullscreenenter"",""1"",""2781""
","
","","","","","","null","<div style=""font-size:60px;"">+</div>","null","","fixation","","","","","","","","","","","","","",""
"learning-trial","113","541895","0.0-9.0-2.0-1.13","1717","1","2","""event"",""trial"",""time""
""fullscreenenter"",""1"",""2781""
","
","
","""event"",""trial"",""time""
""fullscreenenter"",""1"",""2781""
","
","","","","","","3031.800000190735","images/flower3.png","","","learning","images/plants_choice2.png","images/plants_choice3.png","images/plants_choice1.png","[1,2,0]","2","1","2","images/plants_choice3.png","1","plants","","flower","1","0"
"html-keyboard-response","114","542404","0.0-9.0-2.0-0.14","1717","1","2","""event"",""trial"",""time""
""fullscreenenter"",""1"",""2781""
","
","
","""event"",""trial"",""time""
""fullscreenenter"",""1"",""2781""
","
","","","","","","null","<div style=""font-size:60px;"">+</div>","null","","fixation","","","","","","","","","","","","","",""
"learning-trial","115","546418","0.0-9.0-2.0-1.14","1717","1","2","""event"",""trial"",""time""
""fullscreenenter"",""1"",""2781""
","
","
","""event"",""trial"",""time""
""fullscreenenter"",""1"",""2781""
","
","","","","","","1797.6999998092651","images/cactus3.png","","","learning","images/plants_choice2.png","images/plants_choice3.png","images/plants_choice1.png","[1,2,0]","0","2","3","images/plants_choice1.png","1","plants","","cactus","1","0"
"html-keyboard-response","116","546924","0.0-9.0-2.0-0.15","1717","1","2","""event"",""trial"",""time""
""fullscreenenter"",""1"",""2781""
","
","
","""event"",""trial"",""time""
""fullscreenenter"",""1"",""2781""
","
","","","","","","null","<div style=""font-size:60px;"">+</div>","null","","fixation","","","","","","","","","","","","","",""
"learning-trial","117","550931","0.0-9.0-2.0-1.15","1717","1","2","""event"",""trial"",""time""
""fullscreenenter"",""1"",""2781""
","
","
","""event"",""trial"",""time""
""fullscreenenter"",""1"",""2781""
","
","","","","","","1488.1999998092651","images/flower4.png","","","learning","images/plants_choice1.png","images/plants_choice3.png","images/plants_choice2.png","[0,2,1]","2","1","2","images/plants_choice3.png","1","plants","","flower","1","0"
"html-keyboard-response","118","551438","0.0-9.0-2.0-0.16","1717","1","2","""event"",""trial"",""time""
""fullscreenenter"",""1"",""2781""
","
","
","""event"",""trial"",""time""
""fullscreenenter"",""1"",""2781""
","
","","","","","","null","<div style=""font-size:60px;"">+</div>","null","","fixation","","","","","","","","","","","","","",""
"learning-trial","119","555451","0.0-9.0-2.0-1.16","1717","1","2","""event"",""trial"",""time""
""fullscreenenter"",""1"",""2781""
","
","
","""event"",""trial"",""time""
""fullscreenenter"",""1"",""2781""
","
","","","","","","996.5999999046326","images/flower4.png","","","learning","images/plants_choice2.png","images/plants_choice3.png","images/plants_choice1.png","[1,2,0]","2","1","2","images/plants_choice3.png","1","plants","","flower","1","0"
"html-keyboard-response","120","555956","0.0-9.0-2.0-0.17","1717","1","2","""event"",""trial"",""time""
""fullscreenenter"",""1"",""2781""
","
","
","""event"",""trial"",""time""
""fullscreenenter"",""1"",""2781""
","
","","","","","","null","<div style=""font-size:60px;"">+</div>","null","","fixation","","","","","","","","","","","","","",""
"learning-trial","121","559965","0.0-9.0-2.0-1.17","1717","1","2","""event"",""trial"",""time""
""fullscreenenter"",""1"",""2781""
","
","
","""event"",""trial"",""time""
""fullscreenenter"",""1"",""2781""
","
","","","","","","1146.7999997138977","images/cactus3.png","","","learning","images/plants_choice1.png","images/plants_choice3.png","images/plants_choice2.png","[0,2,1]","0","0","1","images/plants_choice1.png","1","plants","","cactus","1","0"
"html-keyboard-response","122","560473","0.0-9.0-2.0-0.18","1717","1","2","""event"",""trial"",""time""
""fullscreenenter"",""1"",""2781""
","
","
","""event"",""trial"",""time""
""fullscreenenter"",""1"",""2781""
","
","","","","","","null","<div style=""font-size:60px;"">+</div>","null","","fixation","","","","","","","","","","","","","",""
"learning-trial","123","564486","0.0-9.0-2.0-1.18","1717","1","2","""event"",""trial"",""time""
""fullscreenenter"",""1"",""2781""
","
","
","""event"",""trial"",""time""
""fullscreenenter"",""1"",""2781""
","
","","","","","","1371.9000000953674","images/cactus1.png","","","learning","images/plants_choice2.png","images/plants_choice1.png","images/plants_choice3.png","[1,0,2]","0","1","2","images/plants_choice1.png","1","plants","","cactus","1","0"
"html-keyboard-response","124","564993","0.0-9.0-2.0-0.19","1717","1","2","""event"",""trial"",""time""
""fullscreenenter"",""1"",""2781""
","
","
","""event"",""trial"",""time""
""fullscreenenter"",""1"",""2781""
","
","","","","","","null","<div style=""font-size:60px;"">+</div>","null","","fixation","","","","","","","","","","","","","",""
"learning-trial","125","569001","0.0-9.0-2.0-1.19","1717","1","2","""event"",""trial"",""time""
""fullscreenenter"",""1"",""2781""
","
","
","""event"",""trial"",""time""
""fullscreenenter"",""1"",""2781""
","
","","","","","","2346.9000000953674","images/bush3.png","","","learning","images/plants_choice1.png","images/plants_choice2.png","images/plants_choice3.png","[0,1,2]","1","1","2","images/plants_choice2.png","1","plants","","bush","1","0"
"html-keyboard-response","126","569511","0.0-9.0-2.0-0.20","1717","1","2","""event"",""trial"",""time""
""fullscreenenter"",""1"",""2781""
","
","
","""event"",""trial"",""time""
""fullscreenenter"",""1"",""2781""
","
","","","","","","null","<div style=""font-size:60px;"">+</div>","null","","fixation","","","","","","","","","","","","","",""
"learning-trial","127","573528","0.0-9.0-2.0-1.20","1717","1","2","""event"",""trial"",""time""
""fullscreenenter"",""1"",""2781""
","
","
","""event"",""trial"",""time""
""fullscreenenter"",""1"",""2781""
","
","","","","","","1081.5999999046326","images/bush1.png","","","learning","images/plants_choice2.png","images/plants_choice3.png","images/plants_choice1.png","[1,2,0]","1","0","1","images/plants_choice2.png","1","plants","","bush","1","0"
"html-keyboard-response","128","574031","0.0-9.0-2.0-0.21","1717","1","2","""event"",""trial"",""time""
""fullscreenenter"",""1"",""2781""
","
","
","""event"",""trial"",""time""
""fullscreenenter"",""1"",""2781""
","
","","","","","","null","<div style=""font-size:60px;"">+</div>","null","","fixation","","","","","","","","","","","","","",""
"learning-trial","129","578041","0.0-9.0-2.0-1.21","1717","1","2","""event"",""trial"",""time""
""fullscreenenter"",""1"",""2781""
","
","
","""event"",""trial"",""time""
""fullscreenenter"",""1"",""2781""
","
","","","","","","1210","images/cactus5.png","","","learning","images/plants_choice1.png","images/plants_choice3.png","images/plants_choice2.png","[0,2,1]","0","0","1","images/plants_choice1.png","1","plants","","cactus","1","0"
"html-keyboard-response","130","578551","0.0-9.0-2.0-0.22","1717","1","2","""event"",""trial"",""time""
""fullscreenenter"",""1"",""2781""
","
","
","""event"",""trial"",""time""
""fullscreenenter"",""1"",""2781""
","
","","","","","","null","<div style=""font-size:60px;"">+</div>","null","","fixation","","","","","","","","","","","","","",""
"learning-trial","131","582560","0.0-9.0-2.0-1.22","1717","1","2","""event"",""trial"",""time""
""fullscreenenter"",""1"",""2781""
","
","
","""event"",""trial"",""time""
""fullscreenenter"",""1"",""2781""
","
","","","","","","919.2999997138977","images/flower3.png","","","learning","images/plants_choice3.png","images/plants_choice2.png","images/plants_choice1.png","[2,1,0]","2","0","1","images/plants_choice3.png","1","plants","","flower","1","0"
"html-keyboard-response","132","583072","0.0-9.0-2.0-0.23","1717","1","2","""event"",""trial"",""time""
""fullscreenenter"",""1"",""2781""
","
","
","""event"",""trial"",""time""
""fullscreenenter"",""1"",""2781""
","
","","","","","","null","<div style=""font-size:60px;"">+</div>","null","","fixation","","","","","","","","","","","","","",""
"learning-trial","133","587081","0.0-9.0-2.0-1.23","1717","1","2","""event"",""trial"",""time""
""fullscreenenter"",""1"",""2781""
","
","
","""event"",""trial"",""time""
""fullscreenenter"",""1"",""2781""
","
","","","","","","1084.7999997138977","images/cactus5.png","","","learning","images/plants_choice2.png","images/plants_choice3.png","images/plants_choice1.png","[1,2,0]","0","2","3","images/plants_choice1.png","1","plants","","cactus","1","0"
"html-keyboard-response","134","587585","0.0-9.0-2.0-0.24","1717","1","2","""event"",""trial"",""time""
""fullscreenenter"",""1"",""2781""
","
","
","""event"",""trial"",""time""
""fullscreenenter"",""1"",""2781""
","
","","","","","","null","<div style=""font-size:60px;"">+</div>","null","","fixation","","","","","","","","","","","","","",""
"learning-trial","135","591597","0.0-9.0-2.0-1.24","1717","1","2","""event"",""trial"",""time""
""fullscreenenter"",""1"",""2781""
","
","
","""event"",""trial"",""time""
""fullscreenenter"",""1"",""2781""
","
","","","","","","1885.5","images/cactus1.png","","","learning","images/plants_choice3.png","images/plants_choice2.png","images/plants_choice1.png","[2,1,0]","0","2","2","images/plants_choice2.png","-1","plants","","cactus","1","0"
"html-keyboard-response","136","592100","0.0-9.0-2.0-0.25","1717","1","2","""event"",""trial"",""time""
""fullscreenenter"",""1"",""2781""
","
","
","""event"",""trial"",""time""
""fullscreenenter"",""1"",""2781""
","
","","","","","","null","<div style=""font-size:60px;"">+</div>","null","","fixation","","","","","","","","","","","","","",""
"learning-trial","137","596113","0.0-9.0-2.0-1.25","1717","1","2","""event"",""trial"",""time""
""fullscreenenter"",""1"",""2781""
","
","
","""event"",""trial"",""time""
""fullscreenenter"",""1"",""2781""
","
","","","","","","3533","images/bush3.png","","","learning","images/plants_choice2.png","images/plants_choice1.png","images/plants_choice3.png","[1,0,2]","1","0","3","images/plants_choice3.png","-1","plants","","bush","1","0"
"html-keyboard-response","138","596621","0.0-9.0-2.0-0.26","1717","1","2","""event"",""trial"",""time""
""fullscreenenter"",""1"",""2781""
","
","
","""event"",""trial"",""time""
""fullscreenenter"",""1"",""2781""
","
","","","","","","null","<div style=""font-size:60px;"">+</div>","null","","fixation","","","","","","","","","","","","","",""
"learning-trial","139","600635","0.0-9.0-2.0-1.26","1717","1","2","""event"",""trial"",""time""
""fullscreenenter"",""1"",""2781""
","
","
","""event"",""trial"",""time""
""fullscreenenter"",""1"",""2781""
","
","","","","","","2340.4000000953674","images/cactus3.png","","","learning","images/plants_choice3.png","images/plants_choice1.png","images/plants_choice2.png","[2,0,1]","0","1","2","images/plants_choice1.png","1","plants","","cactus","1","0"
"html-keyboard-response","140","601141","0.0-9.0-2.0-0.27","1717","1","2","""event"",""trial"",""time""
""fullscreenenter"",""1"",""2781""
","
","
","""event"",""trial"",""time""
""fullscreenenter"",""1"",""2781""
","
","","","","","","null","<div style=""font-size:60px;"">+</div>","null","","fixation","","","","","","","","","","","","","",""
"learning-trial","141","605147","0.0-9.0-2.0-1.27","1717","1","2","""event"",""trial"",""time""
""fullscreenenter"",""1"",""2781""
","
","
","""event"",""trial"",""time""
""fullscreenenter"",""1"",""2781""
","
","","","","","","2672.5999999046326","images/bush4.png","","","learning","images/plants_choice3.png","images/plants_choice2.png","images/plants_choice1.png","[2,1,0]","1","1","2","images/plants_choice2.png","1","plants","","bush","1","0"
"html-keyboard-response","142","605652","0.0-9.0-2.0-0.28","1717","1","2","""event"",""trial"",""time""
""fullscreenenter"",""1"",""2781""
","
","
","""event"",""trial"",""time""
""fullscreenenter"",""1"",""2781""
","
","","","","","","null","<div style=""font-size:60px;"">+</div>","null","","fixation","","","","","","","","","","","","","",""
"learning-trial","143","609664","0.0-9.0-2.0-1.28","1717","1","2","""event"",""trial"",""time""
""fullscreenenter"",""1"",""2781""
","
","
","""event"",""trial"",""time""
""fullscreenenter"",""1"",""2781""
","
","","","","","","1027.7000002861023","images/cactus3.png","","","learning","images/plants_choice2.png","images/plants_choice3.png","images/plants_choice1.png","[1,2,0]","0","2","3","images/plants_choice1.png","1","plants","","cactus","1","0"
"html-keyboard-response","144","610176","0.0-9.0-2.0-0.29","1717","1","2","""event"",""trial"",""time""
""fullscreenenter"",""1"",""2781""
","
","
","""event"",""trial"",""time""
""fullscreenenter"",""1"",""2781""
","
","","","","","","null","<div style=""font-size:60px;"">+</div>","null","","fixation","","","","","","","","","","","","","",""
"learning-trial","145","614190","0.0-9.0-2.0-1.29","1717","1","2","""event"",""trial"",""time""
""fullscreenenter"",""1"",""2781""
","
","
","""event"",""trial"",""time""
""fullscreenenter"",""1"",""2781""
","
","","","","","","866.0999999046326","images/flower1.png","","","learning","images/plants_choice1.png","images/plants_choice3.png","images/plants_choice2.png","[0,2,1]","2","1","2","images/plants_choice3.png","1","plants","","flower","1","0"
"html-keyboard-response","146","614698","0.0-9.0-2.0-0.30","1717","1","2","""event"",""trial"",""time""
""fullscreenenter"",""1"",""2781""
","
","
","""event"",""trial"",""time""
""fullscreenenter"",""1"",""2781""
","
","","","","","","null","<div style=""font-size:60px;"">+</div>","null","","fixation","","","","","","","","","","","","","",""
"learning-trial","147","618705","0.0-9.0-2.0-1.30","1717","1","2","""event"",""trial"",""time""
""fullscreenenter"",""1"",""2781""
","
","
","""event"",""trial"",""time""
""fullscreenenter"",""1"",""2781""
","
","","","","","","2582.0999999046326","images/bush3.png","","","learning","images/plants_choice2.png","images/plants_choice3.png","images/plants_choice1.png","[1,2,0]","1","0","2","images/plants_choice3.png","-1","plants","","bush","1","0"
"html-keyboard-response","148","619213","0.0-9.0-2.0-0.31","1717","1","2","""event"",""trial"",""time""
""fullscreenenter"",""1"",""2781""
","
","
","""event"",""trial"",""time""
""fullscreenenter"",""1"",""2781""
","
","","","","","","null","<div style=""font-size:60px;"">+</div>","null","","fixation","","","","","","","","","","","","","",""
"learning-trial","149","623220","0.0-9.0-2.0-1.31","1717","1","2","""event"",""trial"",""time""
""fullscreenenter"",""1"",""2781""
","
","
","""event"",""trial"",""time""
""fullscreenenter"",""1"",""2781""
","
","","","","","","3769.300000190735","images/flower4.png","","","learning","images/plants_choice3.png","images/plants_choice2.png","images/plants_choice1.png","[2,1,0]","2","0","1","images/plants_choice3.png","1","plants","","flower","1","0"
"html-keyboard-response","150","623728","0.0-9.0-2.0-0.32","1717","1","2","""event"",""trial"",""time""
""fullscreenenter"",""1"",""2781""
","
","
","""event"",""trial"",""time""
""fullscreenenter"",""1"",""2781""
","
","","","","","","null","<div style=""font-size:60px;"">+</div>","null","","fixation","","","","","","","","","","","","","",""
"learning-trial","151","627744","0.0-9.0-2.0-1.32","1717","1","2","""event"",""trial"",""time""
""fullscreenenter"",""1"",""2781""
","
","
","""event"",""trial"",""time""
""fullscreenenter"",""1"",""2781""
","
","","","","","","3127.8999996185303","images/cactus1.png","","","learning","images/plants_choice2.png","images/plants_choice1.png","images/plants_choice3.png","[1,0,2]","0","1","2","images/plants_choice1.png","1","plants","","cactus","1","0"
"html-keyboard-response","152","628249","0.0-9.0-2.0-0.33","1717","1","2","""event"",""trial"",""time""
""fullscreenenter"",""1"",""2781""
","
","
","""event"",""trial"",""time""
""fullscreenenter"",""1"",""2781""
","
","","","","","","null","<div style=""font-size:60px;"">+</div>","null","","fixation","","","","","","","","","","","","","",""
"learning-trial","153","632260","0.0-9.0-2.0-1.33","1717","1","2","""event"",""trial"",""time""
""fullscreenenter"",""1"",""2781""
","
","
","""event"",""trial"",""time""
""fullscreenenter"",""1"",""2781""
","
","","","","","","2066.800000190735","images/cactus1.png","","","learning","images/plants_choice2.png","images/plants_choice3.png","images/plants_choice1.png","[1,2,0]","0","2","3","images/plants_choice1.png","1","plants","","cactus","1","0"
"html-keyboard-response","154","632764","0.0-9.0-2.0-0.34","1717","1","2","""event"",""trial"",""time""
""fullscreenenter"",""1"",""2781""
","
","
","""event"",""trial"",""time""
""fullscreenenter"",""1"",""2781""
","
","","","","","","null","<div style=""font-size:60px;"">+</div>","null","","fixation","","","","","","","","","","","","","",""
"learning-trial","155","636776","0.0-9.0-2.0-1.34","1717","1","2","""event"",""trial"",""time""
""fullscreenenter"",""1"",""2781""
","
","
","""event"",""trial"",""time""
""fullscreenenter"",""1"",""2781""
","
","","","","","","1343.5","images/cactus5.png","","","learning","images/plants_choice1.png","images/plants_choice2.png","images/plants_choice3.png","[0,1,2]","0","0","1","images/plants_choice1.png","1","plants","","cactus","1","0"
"html-keyboard-response","156","637294","0.0-9.0-2.0-0.35","1717","1","2","""event"",""trial"",""time""
""fullscreenenter"",""1"",""2781""
","
","
","""event"",""trial"",""time""
""fullscreenenter"",""1"",""2781""
","
","","","","","","null","<div style=""font-size:60px;"">+</div>","null","","fixation","","","","","","","","","","","","","",""
"learning-trial","157","641305","0.0-9.0-2.0-1.35","1717","1","2","""event"",""trial"",""time""
""fullscreenenter"",""1"",""2781""
","
","
","""event"",""trial"",""time""
""fullscreenenter"",""1"",""2781""
","
","","","","","","1244.7999997138977","images/flower3.png","","","learning","images/plants_choice2.png","images/plants_choice3.png","images/plants_choice1.png","[1,2,0]","2","1","2","images/plants_choice3.png","1","plants","","flower","1","0"
"html-keyboard-response","158","641812","0.0-9.0-2.0-0.36","1717","1","2","""event"",""trial"",""time""
""fullscreenenter"",""1"",""2781""
","
","
","""event"",""trial"",""time""
""fullscreenenter"",""1"",""2781""
","
","","","","","","null","<div style=""font-size:60px;"">+</div>","null","","fixation","","","","","","","","","","","","","",""
"learning-trial","159","645821","0.0-9.0-2.0-1.36","1717","1","2","""event"",""trial"",""time""
""fullscreenenter"",""1"",""2781""
","
","
","""event"",""trial"",""time""
""fullscreenenter"",""1"",""2781""
","
","","","","","","3933.2999997138977","images/flower1.png","","","learning","images/plants_choice2.png","images/plants_choice1.png","images/plants_choice3.png","[1,0,2]","2","2","3","images/plants_choice3.png","1","plants","","flower","1","0"
"html-keyboard-response","160","646325","0.0-9.0-2.0-0.37","1717","1","2","""event"",""trial"",""time""
""fullscreenenter"",""1"",""2781""
","
","
","""event"",""trial"",""time""
""fullscreenenter"",""1"",""2781""
","
","","","","","","null","<div style=""font-size:60px;"">+</div>","null","","fixation","","","","","","","","","","","","","",""
"learning-trial","161","650333","0.0-9.0-2.0-1.37","1717","1","2","""event"",""trial"",""time""
""fullscreenenter"",""1"",""2781""
","
","
","""event"",""trial"",""time""
""fullscreenenter"",""1"",""2781""
","
","","","","","","898","images/flower3.png","","","learning","images/plants_choice1.png","images/plants_choice2.png","images/plants_choice3.png","[0,1,2]","2","2","3","images/plants_choice3.png","1","plants","","flower","1","0"
"html-keyboard-response","162","650848","0.0-9.0-2.0-0.38","1717","1","2","""event"",""trial"",""time""
""fullscreenenter"",""1"",""2781""
","
","
","""event"",""trial"",""time""
""fullscreenenter"",""1"",""2781""
","
","","","","","","null","<div style=""font-size:60px;"">+</div>","null","","fixation","","","","","","","","","","","","","",""
"learning-trial","163","654857","0.0-9.0-2.0-1.38","1717","1","2","""event"",""trial"",""time""
""fullscreenenter"",""1"",""2781""
","
","
","""event"",""trial"",""time""
""fullscreenenter"",""1"",""2781""
","
","","","","","","1098.4000000953674","images/cactus5.png","","","learning","images/plants_choice3.png","images/plants_choice2.png","images/plants_choice1.png","[2,1,0]","0","2","3","images/plants_choice1.png","1","plants","","cactus","1","0"
"html-keyboard-response","164","655365","0.0-9.0-2.0-0.39","1717","1","2","""event"",""trial"",""time""
""fullscreenenter"",""1"",""2781""
","
","
","""event"",""trial"",""time""
""fullscreenenter"",""1"",""2781""
","
","","","","","","null","<div style=""font-size:60px;"">+</div>","null","","fixation","","","","","","","","","","","","","",""
"learning-trial","165","659378","0.0-9.0-2.0-1.39","1717","1","2","""event"",""trial"",""time""
""fullscreenenter"",""1"",""2781""
","
","
","""event"",""trial"",""time""
""fullscreenenter"",""1"",""2781""
","
","","","","","","1944","images/flower4.png","","","learning","images/plants_choice3.png","images/plants_choice1.png","images/plants_choice2.png","[2,0,1]","2","0","1","images/plants_choice3.png","1","plants","","flower","1","0"
"html-keyboard-response","166","659887","0.0-9.0-2.0-0.40","1717","1","2","""event"",""trial"",""time""
""fullscreenenter"",""1"",""2781""
","
","
","""event"",""trial"",""time""
""fullscreenenter"",""1"",""2781""
","
","","","","","","null","<div style=""font-size:60px;"">+</div>","null","","fixation","","","","","","","","","","","","","",""
"learning-trial","167","663894","0.0-9.0-2.0-1.40","1717","1","2","""event"",""trial"",""time""
""fullscreenenter"",""1"",""2781""
","
","
","""event"",""trial"",""time""
""fullscreenenter"",""1"",""2781""
","
","","","","","","1649.1000003814697","images/bush3.png","","","learning","images/plants_choice3.png","images/plants_choice2.png","images/plants_choice1.png","[2,1,0]","1","1","2","images/plants_choice2.png","1","plants","","bush","1","0"
"html-keyboard-response","168","664401","0.0-9.0-2.0-0.41","1717","1","2","""event"",""trial"",""time""
""fullscreenenter"",""1"",""2781""
","
","
","""event"",""trial"",""time""
""fullscreenenter"",""1"",""2781""
","
","","","","","","null","<div style=""font-size:60px;"">+</div>","null","","fixation","","","","","","","","","","","","","",""
"learning-trial","169","668413","0.0-9.0-2.0-1.41","1717","1","2","""event"",""trial"",""time""
""fullscreenenter"",""1"",""2781""
","
","
","""event"",""trial"",""time""
""fullscreenenter"",""1"",""2781""
","
","","","","","","1473.2000002861023","images/flower1.png","","","learning","images/plants_choice3.png","images/plants_choice1.png","images/plants_choice2.png","[2,0,1]","2","0","1","images/plants_choice3.png","1","plants","","flower","1","0"
"html-keyboard-response","170","668923","0.0-9.0-2.0-0.42","1717","1","2","""event"",""trial"",""time""
""fullscreenenter"",""1"",""2781""
","
","
","""event"",""trial"",""time""
""fullscreenenter"",""1"",""2781""
","
","","","","","","null","<div style=""font-size:60px;"">+</div>","null","","fixation","","","","","","","","","","","","","",""
"learning-trial","171","672932","0.0-9.0-2.0-1.42","1717","1","2","""event"",""trial"",""time""
""fullscreenenter"",""1"",""2781""
","
","
","""event"",""trial"",""time""
""fullscreenenter"",""1"",""2781""
","
","","","","","","1425.5","images/bush4.png","","","learning","images/plants_choice3.png","images/plants_choice2.png","images/plants_choice1.png","[2,1,0]","1","1","2","images/plants_choice2.png","1","plants","","bush","1","0"
"html-keyboard-response","172","673444","0.0-9.0-2.0-0.43","1717","1","2","""event"",""trial"",""time""
""fullscreenenter"",""1"",""2781""
","
","
","""event"",""trial"",""time""
""fullscreenenter"",""1"",""2781""
","
","","","","","","null","<div style=""font-size:60px;"">+</div>","null","","fixation","","","","","","","","","","","","","",""
"learning-trial","173","677455","0.0-9.0-2.0-1.43","1717","1","2","""event"",""trial"",""time""
""fullscreenenter"",""1"",""2781""
","
","
","""event"",""trial"",""time""
""fullscreenenter"",""1"",""2781""
","
","","","","","","1574.5","images/cactus5.png","","","learning","images/plants_choice3.png","images/plants_choice1.png","images/plants_choice2.png","[2,0,1]","0","1","2","images/plants_choice1.png","1","plants","","cactus","1","0"
"html-keyboard-response","174","677958","0.0-9.0-2.0-0.44","1717","1","2","""event"",""trial"",""time""
""fullscreenenter"",""1"",""2781""
","
","
","""event"",""trial"",""time""
""fullscreenenter"",""1"",""2781""
","
","","","","","","null","<div style=""font-size:60px;"">+</div>","null","","fixation","","","","","","","","","","","","","",""
"learning-trial","175","681973","0.0-9.0-2.0-1.44","1717","1","2","""event"",""trial"",""time""
""fullscreenenter"",""1"",""2781""
","
","
","""event"",""trial"",""time""
""fullscreenenter"",""1"",""2781""
","
","","","","","","1066.8999996185303","images/cactus3.png","","","learning","images/plants_choice2.png","images/plants_choice1.png","images/plants_choice3.png","[1,0,2]","0","1","2","images/plants_choice1.png","1","plants","","cactus","1","0"
"html-keyboard-response","176","682482","0.0-9.0-2.0-0.45","1717","1","2","""event"",""trial"",""time""
""fullscreenenter"",""1"",""2781""
","
","
","""event"",""trial"",""time""
""fullscreenenter"",""1"",""2781""
","
","","","","","","null","<div style=""font-size:60px;"">+</div>","null","","fixation","","","","","","","","","","","","","",""
"learning-trial","177","686493","0.0-9.0-2.0-1.45","1717","1","2","""event"",""trial"",""time""
""fullscreenenter"",""1"",""2781""
","
","
","""event"",""trial"",""time""
""fullscreenenter"",""1"",""2781""
","
","","","","","","1289.5999999046326","images/cactus1.png","","","learning","images/plants_choice2.png","images/plants_choice1.png","images/plants_choice3.png","[1,0,2]","0","1","2","images/plants_choice1.png","1","plants","","cactus","1","0"
"html-keyboard-response","178","687000","0.0-9.0-2.0-0.46","1717","1","2","""event"",""trial"",""time""
""fullscreenenter"",""1"",""2781""
","
","
","""event"",""trial"",""time""
""fullscreenenter"",""1"",""2781""
","
","","","","","","null","<div style=""font-size:60px;"">+</div>","null","","fixation","","","","","","","","","","","","","",""
"learning-trial","179","691011","0.0-9.0-2.0-1.46","1717","1","2","""event"",""trial"",""time""
""fullscreenenter"",""1"",""2781""
","
","
","""event"",""trial"",""time""
""fullscreenenter"",""1"",""2781""
","
","","","","","","811.1999998092651","images/cactus3.png","","","learning","images/plants_choice3.png","images/plants_choice1.png","images/plants_choice2.png","[2,0,1]","0","1","2","images/plants_choice1.png","1","plants","","cactus","1","0"
"html-keyboard-response","180","691524","0.0-9.0-2.0-0.47","1717","1","2","""event"",""trial"",""time""
""fullscreenenter"",""1"",""2781""
","
","
","""event"",""trial"",""time""
""fullscreenenter"",""1"",""2781""
","
","","","","","","null","<div style=""font-size:60px;"">+</div>","null","","fixation","","","","","","","","","","","","","",""
"learning-trial","181","695539","0.0-9.0-2.0-1.47","1717","1","2","""event"",""trial"",""time""
""fullscreenenter"",""1"",""2781""
","
","
","""event"",""trial"",""time""
""fullscreenenter"",""1"",""2781""
","
","","","","","","1218.9000000953674","images/bush4.png","","","learning","images/plants_choice3.png","images/plants_choice1.png","images/plants_choice2.png","[2,0,1]","1","2","3","images/plants_choice2.png","1","plants","","bush","1","0"
"html-keyboard-response","182","696049","0.0-9.0-2.0-0.48","1717","1","2","""event"",""trial"",""time""
""fullscreenenter"",""1"",""2781""
","
","
","""event"",""trial"",""time""
""fullscreenenter"",""1"",""2781""
","
","","","","","","null","<div style=""font-size:60px;"">+</div>","null","","fixation","","","","","","","","","","","","","",""
"learning-trial","183","700062","0.0-9.0-2.0-1.48","1717","1","2","""event"",""trial"",""time""
""fullscreenenter"",""1"",""2781""
","
","
","""event"",""trial"",""time""
""fullscreenenter"",""1"",""2781""
","
","","","","","","1567.2999997138977","images/flower3.png","","","learning","images/plants_choice1.png","images/plants_choice2.png","images/plants_choice3.png","[0,1,2]","2","2","3","images/plants_choice3.png","1","plants","","flower","1","0"
"html-keyboard-response","184","700580","0.0-9.0-2.0-0.49","1717","1","2","""event"",""trial"",""time""
""fullscreenenter"",""1"",""2781""
","
","
","""event"",""trial"",""time""
""fullscreenenter"",""1"",""2781""
","
","","","","","","null","<div style=""font-size:60px;"">+</div>","null","","fixation","","","","","","","","","","","","","",""
"learning-trial","185","704587","0.0-9.0-2.0-1.49","1717","1","2","""event"",""trial"",""time""
""fullscreenenter"",""1"",""2781""
","
","
","""event"",""trial"",""time""
""fullscreenenter"",""1"",""2781""
","
","","","","","","974.8999996185303","images/bush3.png","","","learning","images/plants_choice2.png","images/plants_choice3.png","images/plants_choice1.png","[1,2,0]","1","0","1","images/plants_choice2.png","1","plants","","bush","1","0"
"html-keyboard-response","186","705094","0.0-9.0-2.0-0.50","1717","1","2","""event"",""trial"",""time""
""fullscreenenter"",""1"",""2781""
","
","
","""event"",""trial"",""time""
""fullscreenenter"",""1"",""2781""
","
","","","","","","null","<div style=""font-size:60px;"">+</div>","null","","fixation","","","","","","","","","","","","","",""
"learning-trial","187","709106","0.0-9.0-2.0-1.50","1717","1","2","""event"",""trial"",""time""
""fullscreenenter"",""1"",""2781""
","
","
","""event"",""trial"",""time""
""fullscreenenter"",""1"",""2781""
","
","","","","","","2078","images/cactus3.png","","","learning","images/plants_choice1.png","images/plants_choice2.png","images/plants_choice3.png","[0,1,2]","0","0","1","images/plants_choice1.png","1","plants","","cactus","1","0"
"html-keyboard-response","188","709613","0.0-9.0-2.0-0.51","1717","1","2","""event"",""trial"",""time""
""fullscreenenter"",""1"",""2781""
","
","
","""event"",""trial"",""time""
""fullscreenenter"",""1"",""2781""
","
","","","","","","null","<div style=""font-size:60px;"">+</div>","null","","fixation","","","","","","","","","","","","","",""
"learning-trial","189","713623","0.0-9.0-2.0-1.51","1717","1","2","""event"",""trial"",""time""
""fullscreenenter"",""1"",""2781""
","
","
","""event"",""trial"",""time""
""fullscreenenter"",""1"",""2781""
","
","","","","","","1145.3999996185303","images/cactus5.png","","","learning","images/plants_choice2.png","images/plants_choice3.png","images/plants_choice1.png","[1,2,0]","0","2","3","images/plants_choice1.png","1","plants","","cactus","1","0"
"html-keyboard-response","190","714125","0.0-9.0-2.0-0.52","1717","1","2","""event"",""trial"",""time""
""fullscreenenter"",""1"",""2781""
","
","
","""event"",""trial"",""time""
""fullscreenenter"",""1"",""2781""
","
","","","","","","null","<div style=""font-size:60px;"">+</div>","null","","fixation","","","","","","","","","","","","","",""
"learning-trial","191","718139","0.0-9.0-2.0-1.52","1717","1","2","""event"",""trial"",""time""
""fullscreenenter"",""1"",""2781""
","
","
","""event"",""trial"",""time""
""fullscreenenter"",""1"",""2781""
","
","","","","","","null","images/bush1.png","","","learning","images/plants_choice1.png","images/plants_choice2.png","images/plants_choice3.png","[0,1,2]","1","1","null","null","-1","plants","","bush","1","0"
"html-keyboard-response","192","718644","0.0-9.0-2.0-0.53","1717","1","2","""event"",""trial"",""time""
""fullscreenenter"",""1"",""2781""
","
","
","""event"",""trial"",""time""
""fullscreenenter"",""1"",""2781""
","
","","","","","","null","<div style=""font-size:60px;"">+</div>","null","","fixation","","","","","","","","","","","","","",""
"learning-trial","193","722654","0.0-9.0-2.0-1.53","1717","1","2","""event"",""trial"",""time""
""fullscreenenter"",""1"",""2781""
","
","
","""event"",""trial"",""time""
""fullscreenenter"",""1"",""2781""
","
","","","","","","1734.3999996185303","images/flower3.png","","","learning","images/plants_choice2.png","images/plants_choice1.png","images/plants_choice3.png","[1,0,2]","2","2","3","images/plants_choice3.png","1","plants","","flower","1","0"
"html-keyboard-response","194","723164","0.0-9.0-2.0-0.54","1717","1","2","""event"",""trial"",""time""
""fullscreenenter"",""1"",""2781""
","
","
","""event"",""trial"",""time""
""fullscreenenter"",""1"",""2781""
","
","","","","","","null","<div style=""font-size:60px;"">+</div>","null","","fixation","","","","","","","","","","","","","",""
"learning-trial","195","727176","0.0-9.0-2.0-1.54","1717","1","2","""event"",""trial"",""time""
""fullscreenenter"",""1"",""2781""
","
","
","""event"",""trial"",""time""
""fullscreenenter"",""1"",""2781""
","
","","","","","","1005.5","images/bush4.png","","","learning","images/plants_choice2.png","images/plants_choice3.png","images/plants_choice1.png","[1,2,0]","1","0","1","images/plants_choice2.png","1","plants","","bush","1","0"
"html-keyboard-response","196","727680","0.0-9.0-2.0-0.55","1717","1","2","""event"",""trial"",""time""
""fullscreenenter"",""1"",""2781""
","
","
","""event"",""trial"",""time""
""fullscreenenter"",""1"",""2781""
","
","","","","","","null","<div style=""font-size:60px;"">+</div>","null","","fixation","","","","","","","","","","","","","",""
"learning-trial","197","731694","0.0-9.0-2.0-1.55","1717","1","2","""event"",""trial"",""time""
""fullscreenenter"",""1"",""2781""
","
","
","""event"",""trial"",""time""
""fullscreenenter"",""1"",""2781""
","
","","","","","","1017.0999999046326","images/flower1.png","","","learning","images/plants_choice2.png","images/plants_choice3.png","images/plants_choice1.png","[1,2,0]","2","1","2","images/plants_choice3.png","1","plants","","flower","1","0"
"html-keyboard-response","198","732208","0.0-9.0-2.0-0.56","1717","1","2","""event"",""trial"",""time""
""fullscreenenter"",""1"",""2781""
","
","
","""event"",""trial"",""time""
""fullscreenenter"",""1"",""2781""
","
","","","","","","null","<div style=""font-size:60px;"">+</div>","null","","fixation","","","","","","","","","","","","","",""
"learning-trial","199","736218","0.0-9.0-2.0-1.56","1717","1","2","""event"",""trial"",""time""
""fullscreenenter"",""1"",""2781""
","
","
","""event"",""trial"",""time""
""fullscreenenter"",""1"",""2781""
","
","","","","","","1741.5","images/bush1.png","","","learning","images/plants_choice1.png","images/plants_choice3.png","images/plants_choice2.png","[0,2,1]","1","2","3","images/plants_choice2.png","1","plants","","bush","1","0"
"html-keyboard-response","200","736726","0.0-9.0-2.0-0.57","1717","1","2","""event"",""trial"",""time""
""fullscreenenter"",""1"",""2781""
","
","
","""event"",""trial"",""time""
""fullscreenenter"",""1"",""2781""
","
","","","","","","null","<div style=""font-size:60px;"">+</div>","null","","fixation","","","","","","","","","","","","","",""
"learning-trial","201","740732","0.0-9.0-2.0-1.57","1717","1","2","""event"",""trial"",""time""
""fullscreenenter"",""1"",""2781""
","
","
","""event"",""trial"",""time""
""fullscreenenter"",""1"",""2781""
","
","","","","","","1830.6999998092651","images/flower3.png","","","learning","images/plants_choice2.png","images/plants_choice3.png","images/plants_choice1.png","[1,2,0]","2","1","2","images/plants_choice3.png","1","plants","","flower","1","0"
"html-keyboard-response","202","741237","0.0-9.0-2.0-0.58","1717","1","2","""event"",""trial"",""time""
""fullscreenenter"",""1"",""2781""
","
","
","""event"",""trial"",""time""
""fullscreenenter"",""1"",""2781""
","
","","","","","","null","<div style=""font-size:60px;"">+</div>","null","","fixation","","","","","","","","","","","","","",""
"learning-trial","203","745245","0.0-9.0-2.0-1.58","1717","1","2","""event"",""trial"",""time""
""fullscreenenter"",""1"",""2781""
","
","
","""event"",""trial"",""time""
""fullscreenenter"",""1"",""2781""
","
","","","","","","1436.7999997138977","images/bush3.png","","","learning","images/plants_choice2.png","images/plants_choice3.png","images/plants_choice1.png","[1,2,0]","1","0","1","images/plants_choice2.png","1","plants","","bush","1","0"
"html-keyboard-response","204","745751","0.0-9.0-2.0-0.59","1717","1","2","""event"",""trial"",""time""
""fullscreenenter"",""1"",""2781""
","
","
","""event"",""trial"",""time""
""fullscreenenter"",""1"",""2781""
","
","","","","","","null","<div style=""font-size:60px;"">+</div>","null","","fixation","","","","","","","","","","","","","",""
"learning-trial","205","749765","0.0-9.0-2.0-1.59","1717","1","2","""event"",""trial"",""time""
""fullscreenenter"",""1"",""2781""
","
","
","""event"",""trial"",""time""
""fullscreenenter"",""1"",""2781""
","
","","","","","","908.3000001907349","images/cactus3.png","","","learning","images/plants_choice3.png","images/plants_choice1.png","images/plants_choice2.png","[2,0,1]","0","1","2","images/plants_choice1.png","1","plants","","cactus","1","0"
"html-keyboard-response","206","750274","0.0-9.0-2.0-0.60","1717","1","2","""event"",""trial"",""time""
""fullscreenenter"",""1"",""2781""
","
","
","""event"",""trial"",""time""
""fullscreenenter"",""1"",""2781""
","
","","","","","","null","<div style=""font-size:60px;"">+</div>","null","","fixation","","","","","","","","","","","","","",""
"learning-trial","207","754283","0.0-9.0-2.0-1.60","1717","1","2","""event"",""trial"",""time""
""fullscreenenter"",""1"",""2781""
","
","
","""event"",""trial"",""time""
""fullscreenenter"",""1"",""2781""
","
","","","","","","922.1999998092651","images/bush4.png","","","learning","images/plants_choice2.png","images/plants_choice3.png","images/plants_choice1.png","[1,2,0]","1","0","1","images/plants_choice2.png","1","plants","","bush","1","0"
"html-keyboard-response","208","754790","0.0-9.0-2.0-0.61","1717","1","2","""event"",""trial"",""time""
""fullscreenenter"",""1"",""2781""
","
","
","""event"",""trial"",""time""
""fullscreenenter"",""1"",""2781""
","
","","","","","","null","<div style=""font-size:60px;"">+</div>","null","","fixation","","","","","","","","","","","","","",""
"learning-trial","209","758799","0.0-9.0-2.0-1.61","1717","1","2","""event"",""trial"",""time""
""fullscreenenter"",""1"",""2781""
","
","
","""event"",""trial"",""time""
""fullscreenenter"",""1"",""2781""
","
","","","","","","1022","images/flower1.png","","","learning","images/plants_choice3.png","images/plants_choice2.png","images/plants_choice1.png","[2,1,0]","2","0","1","images/plants_choice3.png","1","plants","","flower","1","0"
"html-keyboard-response","210","759305","0.0-9.0-2.0-0.62","1717","1","2","""event"",""trial"",""time""
""fullscreenenter"",""1"",""2781""
","
","
","""event"",""trial"",""time""
""fullscreenenter"",""1"",""2781""
","
","","","","","","null","<div style=""font-size:60px;"">+</div>","null","","fixation","","","","","","","","","","","","","",""
"learning-trial","211","763316","0.0-9.0-2.0-1.62","1717","1","2","""event"",""trial"",""time""
""fullscreenenter"",""1"",""2781""
","
","
","""event"",""trial"",""time""
""fullscreenenter"",""1"",""2781""
","
","","","","","","1303.0999999046326","images/flower1.png","","","learning","images/plants_choice1.png","images/plants_choice2.png","images/plants_choice3.png","[0,1,2]","2","2","3","images/plants_choice3.png","1","plants","","flower","1","0"
"html-keyboard-response","212","763821","0.0-9.0-2.0-0.63","1717","1","2","""event"",""trial"",""time""
""fullscreenenter"",""1"",""2781""
","
","
","""event"",""trial"",""time""
""fullscreenenter"",""1"",""2781""
","
","","","","","","null","<div style=""font-size:60px;"">+</div>","null","","fixation","","","","","","","","","","","","","",""
"learning-trial","213","767829","0.0-9.0-2.0-1.63","1717","1","2","""event"",""trial"",""time""
""fullscreenenter"",""1"",""2781""
","
","
","""event"",""trial"",""time""
""fullscreenenter"",""1"",""2781""
","
","","","","","","1102.4000000953674","images/flower4.png","","","learning","images/plants_choice2.png","images/plants_choice3.png","images/plants_choice1.png","[1,2,0]","2","1","2","images/plants_choice3.png","1","plants","","flower","1","0"
"html-keyboard-response","214","768336","0.0-9.0-2.0-0.64","1717","1","2","""event"",""trial"",""time""
""fullscreenenter"",""1"",""2781""
","
","
","""event"",""trial"",""time""
""fullscreenenter"",""1"",""2781""
","
","","","","","","null","<div style=""font-size:60px;"">+</div>","null","","fixation","","","","","","","","","","","","","",""
"learning-trial","215","772345","0.0-9.0-2.0-1.64","1717","1","2","""event"",""trial"",""time""
""fullscreenenter"",""1"",""2781""
","
","
","""event"",""trial"",""time""
""fullscreenenter"",""1"",""2781""
","
","","","","","","1695.1999998092651","images/flower3.png","","","learning","images/plants_choice3.png","images/plants_choice1.png","images/plants_choice2.png","[2,0,1]","2","0","1","images/plants_choice3.png","-1","plants","","flower","1","0"
"html-keyboard-response","216","772855","0.0-9.0-2.0-0.65","1717","1","2","""event"",""trial"",""time""
""fullscreenenter"",""1"",""2781""
","
","
","""event"",""trial"",""time""
""fullscreenenter"",""1"",""2781""
","
","","","","","","null","<div style=""font-size:60px;"">+</div>","null","","fixation","","","","","","","","","","","","","",""
"learning-trial","217","776862","0.0-9.0-2.0-1.65","1717","1","2","""event"",""trial"",""time""
""fullscreenenter"",""1"",""2781""
","
","
","""event"",""trial"",""time""
""fullscreenenter"",""1"",""2781""
","
","","","","","","1803.6999998092651","images/bush1.png","","","learning","images/plants_choice2.png","images/plants_choice3.png","images/plants_choice1.png","[1,2,0]","1","0","3","images/plants_choice1.png","-1","plants","","bush","1","0"
"html-keyboard-response","218","777374","0.0-9.0-2.0-0.66","1717","1","2","""event"",""trial"",""time""
""fullscreenenter"",""1"",""2781""
","
","
","""event"",""trial"",""time""
""fullscreenenter"",""1"",""2781""
","
","","","","","","null","<div style=""font-size:60px;"">+</div>","null","","fixation","","","","","","","","","","","","","",""
"learning-trial","219","781381","0.0-9.0-2.0-1.66","1717","1","2","""event"",""trial"",""time""
""fullscreenenter"",""1"",""2781""
","
","
","""event"",""trial"",""time""
""fullscreenenter"",""1"",""2781""
","
","","","","","","954.5999999046326","images/cactus1.png","","","learning","images/plants_choice3.png","images/plants_choice2.png","images/plants_choice1.png","[2,1,0]","0","2","3","images/plants_choice1.png","1","plants","","cactus","1","0"
"html-keyboard-response","220","781886","0.0-9.0-2.0-0.67","1717","1","2","""event"",""trial"",""time""
""fullscreenenter"",""1"",""2781""
","
","
","""event"",""trial"",""time""
""fullscreenenter"",""1"",""2781""
","
","","","","","","null","<div style=""font-size:60px;"">+</div>","null","","fixation","","","","","","","","","","","","","",""
"learning-trial","221","785910","0.0-9.0-2.0-1.67","1717","1","2","""event"",""trial"",""time""
""fullscreenenter"",""1"",""2781""
","
","
","""event"",""trial"",""time""
""fullscreenenter"",""1"",""2781""
","
","","","","","","1783.5999999046326","images/bush1.png","","","learning","images/plants_choice3.png","images/plants_choice1.png","images/plants_choice2.png","[2,0,1]","1","2","3","images/plants_choice2.png","1","plants","","bush","1","0"
"html-keyboard-response","222","786420","0.0-9.0-2.0-0.68","1717","1","2","""event"",""trial"",""time""
""fullscreenenter"",""1"",""2781""
","
","
","""event"",""trial"",""time""
""fullscreenenter"",""1"",""2781""
","
","","","","","","null","<div style=""font-size:60px;"">+</div>","null","","fixation","","","","","","","","","","","","","",""
"learning-trial","223","790429","0.0-9.0-2.0-1.68","1717","1","2","""event"",""trial"",""time""
""fullscreenenter"",""1"",""2781""
","
","
","""event"",""trial"",""time""
""fullscreenenter"",""1"",""2781""
","
","","","","","","1048.7000002861023","images/bush3.png","","","learning","images/plants_choice3.png","images/plants_choice1.png","images/plants_choice2.png","[2,0,1]","1","2","3","images/plants_choice2.png","1","plants","","bush","1","0"
"html-keyboard-response","224","790940","0.0-9.0-2.0-0.69","1717","1","2","""event"",""trial"",""time""
""fullscreenenter"",""1"",""2781""
","
","
","""event"",""trial"",""time""
""fullscreenenter"",""1"",""2781""
","
","","","","","","null","<div style=""font-size:60px;"">+</div>","null","","fixation","","","","","","","","","","","","","",""
"learning-trial","225","794947","0.0-9.0-2.0-1.69","1717","1","2","""event"",""trial"",""time""
""fullscreenenter"",""1"",""2781""
","
","
","""event"",""trial"",""time""
""fullscreenenter"",""1"",""2781""
","
","","","","","","1097.3000001907349","images/bush1.png","","","learning","images/plants_choice2.png","images/plants_choice3.png","images/plants_choice1.png","[1,2,0]","1","0","1","images/plants_choice2.png","1","plants","","bush","1","0"
"html-keyboard-response","226","795454","0.0-9.0-2.0-0.70","1717","1","2","""event"",""trial"",""time""
""fullscreenenter"",""1"",""2781""
","
","
","""event"",""trial"",""time""
""fullscreenenter"",""1"",""2781""
","
","","","","","","null","<div style=""font-size:60px;"">+</div>","null","","fixation","","","","","","","","","","","","","",""
"learning-trial","227","799459","0.0-9.0-2.0-1.70","1717","1","2","""event"",""trial"",""time""
""fullscreenenter"",""1"",""2781""
","
","
","""event"",""trial"",""time""
""fullscreenenter"",""1"",""2781""
","
","","","","","","841.1999998092651","images/flower1.png","","","learning","images/plants_choice1.png","images/plants_choice3.png","images/plants_choice2.png","[0,2,1]","2","1","2","images/plants_choice3.png","1","plants","","flower","1","0"
"html-keyboard-response","228","799969","0.0-9.0-2.0-0.71","1717","1","2","""event"",""trial"",""time""
""fullscreenenter"",""1"",""2781""
","
","
","""event"",""trial"",""time""
""fullscreenenter"",""1"",""2781""
","
","","","","","","null","<div style=""font-size:60px;"">+</div>","null","","fixation","","","","","","","","","","","","","",""
"learning-trial","229","803982","0.0-9.0-2.0-1.71","1717","1","2","""event"",""trial"",""time""
""fullscreenenter"",""1"",""2781""
","
","
","""event"",""trial"",""time""
""fullscreenenter"",""1"",""2781""
","
","","","","","","943.5","images/flower1.png","","","learning","images/plants_choice1.png","images/plants_choice2.png","images/plants_choice3.png","[0,1,2]","2","2","3","images/plants_choice3.png","1","plants","","flower","1","0"
"html-button-response","230","806466","0.0-9.0-3.0","1717","1","2","""event"",""trial"",""time""
""fullscreenenter"",""1"",""2781""
","
","
","""event"",""trial"",""time""
""fullscreenenter"",""1"",""2781""
","
","","","","","","2480.9000000953674","<p> You have completed the round! <p> In this round, you earned 40 points! </p>","0","","break","","","","","","","","","","","","","",""
"html-button-response","231","807968","0.0-10.0","1717","1","2","""event"",""trial"",""time""
""fullscreenenter"",""1"",""2781""
","
","
","""event"",""trial"",""time""
""fullscreenenter"",""1"",""2781""
","
","","","","","","1498.8000001907349","<p> Now it's time to play another round. </p>","0","","transition_screen","","","","","","","","","","","","","",""
"preload","232","811984","0.0-11.0-0.0","1717","1","2","""event"",""trial"",""time""
""fullscreenenter"",""1"",""2781""
","
","
","""event"",""trial"",""time""
""fullscreenenter"",""1"",""2781""
","
","true","false","[]","[]","[]","","","","","","","","","","","","","","","","","","",""
"learning-instructions","233","821524","0.0-11.0-1.0-0.0","1717","1","2","""event"",""trial"",""time""
""fullscreenenter"",""1"",""2781""
","
","
","""event"",""trial"",""time""
""fullscreenenter"",""1"",""2781""
","
","","","","","","1783.1999998092651","<p> Your goal in this round is to return farm animals to the barns where they live. </p><p>  Different animals wandered away from different barns! </p></div>","","0","instructions","","","","","","","","","","","","","",""
"learning-instructions","234","831359","0.0-11.0-1.0-0.1","1717","1","2","""event"",""trial"",""time""
""fullscreenenter"",""1"",""2781""
","
","
","""event"",""trial"",""time""
""fullscreenenter"",""1"",""2781""
","
","","","","","","1196.5999999046326","<p> On each turn, you will see a picture of a farm animal and three different barns.  </p><p> You need to select the barn where each animal lives.  </p>","","0","instructions","","","","","","","","","","","","","",""
"learning-instructions","235","839114","0.0-11.0-1.0-0.2","1717","1","2","""event"",""trial"",""time""
""fullscreenenter"",""1"",""2781""
","
","
","""event"",""trial"",""time""
""fullscreenenter"",""1"",""2781""
","
","","","","","","555.5","<p> You can select the barn on the left by pressing 1, the barn in the middle by pressing 2, and the barn on the right by pressing 3. </p><br><div class=""choice-instructions-grid""> <div class=""choice-option""><img src=""images/animals_choice1.png"" class=""choice-option-img"" stage=""instructions"" position=""0"" ><div class=""choice-option-text""> Press ""1."" </div></div><div class=""choice-option""><img src=""images/animals_choice2.png"" class=""choice-option-img"" stage=""instructions"" position=""1"" ><div class=""choice-option-text""> Press ""2."" </div></div><div class=""choice-option""><img src=""images/animals_choice3.png"" class=""choice-option-img"" stage=""instructions"" position=""2"" ><div class=""choice-option-text""> Press ""3."" </div></div></div>","","0","instructions","","","","","","","","","","","","","",""
"learning-instructions","236","844952","0.0-11.0-1.0-0.3","1717","1","2","""event"",""trial"",""time""
""fullscreenenter"",""1"",""2781""
","
