"trial_type","trial_index","time_elapsed","internal_node_id","subject_id","condition","task_version","interactions","blur_events","focus_events","fullscreenenter_events","fullscreenexit_events","success","timeout","failed_images","failed_audio","failed_video","rt","stimulus","response","button_pressed","task_part","left_choice","middle_choice","right_choice","choice_positions","correct_response","correct_position","key_press","option_selected","points","task_block","correct","stim_cat","block_condition","block_number"
"pavlovia","0","4","0.0-0.0","1837","2","2","""event"",""trial"",""time""
""fullscreenenter"",""1"",""2733""
","
","
","""event"",""trial"",""time""
""fullscreenenter"",""1"",""2733""
","
","","","","","","","","","","","","","","","","","","","","","","","",""
"fullscreen","1","3690","0.0-1.0","1837","2","2","""event"",""trial"",""time""
""fullscreenenter"",""1"",""2733""
","
","
","""event"",""trial"",""time""
""fullscreenenter"",""1"",""2733""
","
","true","","","","","","","","","","","","","","","","","","","","","","",""
"preload","2","5592","0.0-2.0","1837","2","2","""event"",""trial"",""time""
""fullscreenenter"",""1"",""2733""
","
","
","""event"",""trial"",""time""
""fullscreenenter"",""1"",""2733""
","
","true","false","[]","[]","[]","","","","","","","","","","","","","","","","","","",""
"audio-keyboard-response","3","8595","0.0-3.0","1837","2","2","""event"",""trial"",""time""
""fullscreenenter"",""1"",""2733""
","
","
","""event"",""trial"",""time""
""fullscreenenter"",""1"",""2733""
","
","","","","","","3006.984126984127","audio/beep_loop.wav"," ","","","","","","","","","","","","","","","",""
"audio-button-response","4","10675","0.0-4.0","1837","2","2","""event"",""trial"",""time""
""fullscreenenter"",""1"",""2733""
","
","
","""event"",""trial"",""time""
""fullscreenenter"",""1"",""2733""
","
","","","","","","2078","audio/shark.wav","4","","","","","","","","","","","","","","","",""
"audio-button-response","5","12941","0.0-5.0","1837","2","2","""event"",""trial"",""time""
""fullscreenenter"",""1"",""2733""
","
","
","""event"",""trial"",""time""
""fullscreenenter"",""1"",""2733""
","
","","","","","","1260","audio/turtle.wav","1","","","","","","","","","","","","","","","",""
"preload","6","15673","0.0-6.0","1837","2","2","""event"",""trial"",""time""
""fullscreenenter"",""1"",""2733""
","
","
","""event"",""trial"",""time""
""fullscreenenter"",""1"",""2733""
","
","true","false","[]","[]","[]","","","","","","","","","","","","","","","","","","",""
"html-keyboard-response","7","19597","0.0-7.0","1837","2","2","""event"",""trial"",""time""
""fullscreenenter"",""1"",""2733""
","
","
","""event"",""trial"",""time""
""fullscreenenter"",""1"",""2733""
","
","","","","","","3921.899999999965","Welcome to the experiment. Press any key to begin and to advance the instructions."," ","","","","","","","","","","","","","","","",""
"learning-instructions","8","29513","0.0-8.0-0.0-0.0","1837","2","2","""event"",""trial"",""time""
""fullscreenenter"",""1"",""2733""
","
","
","""event"",""trial"",""time""
""fullscreenenter"",""1"",""2733""
","
","","","","","","2161.2000000000116","<p> Welcome! Today you are going to play 6 different rounds of a decision-making game. </p><p> Use the mouse to click next to continue. </p>","","0","instructions","","","","","","","","","","","","","",""
"learning-instructions","9","34565","0.0-8.0-0.0-0.1","1837","2","2","""event"",""trial"",""time""
""fullscreenenter"",""1"",""2733""
","
","
","""event"",""trial"",""time""
""fullscreenenter"",""1"",""2733""
","
","","","","","","2046.5","<p> You will start with a practice round to learn the rules. </p>","","0","instructions","","","","","","","","","","","","","",""
"learning-instructions","10","43483","0.0-8.0-0.0-0.2","1837","2","2","""event"",""trial"",""time""
""fullscreenenter"",""1"",""2733""
","
","
","""event"",""trial"",""time""
""fullscreenenter"",""1"",""2733""
","
","","","","","","1177.9000000000233","<p> Your goal in this round is to deliver sports equipment to three different parks. </p><p> You will need to deliver many types of equipment. </p></div>","","0","instructions","","","","","","","","","","","","","",""
"learning-instructions","11","56203","0.0-8.0-0.0-0.3","1837","2","2","""event"",""trial"",""time""
""fullscreenenter"",""1"",""2733""
","
","
","""event"",""trial"",""time""
""fullscreenenter"",""1"",""2733""
","
","","","","","","4237.800000000047","<p> On each turn, you will see one piece of sports equipment and three different parks.  </p><p> You need to select which park to deliver the equipment to.  </p>","","0","instructions","","","","","","","","","","","","","",""
"learning-instructions","12","71623","0.0-8.0-0.0-0.4","1837","2","2","""event"",""trial"",""time""
""fullscreenenter"",""1"",""2733""
","
","
","""event"",""trial"",""time""
""fullscreenenter"",""1"",""2733""
","
","","","","","","2138.2999999999884","<p> You can select the park on the left by pressing the '1' key on your keyboard. <br>You can select the park in the middle by pressing the '2' key on your keyboard. <br>You can select the park on the right by pressing the '3' key on your keyboard.  </p><br><div class=""choice-instructions-grid""> <div class=""choice-option""><img src=""images/park1.png"" class=""choice-option-img"" stage=""instructions"" position=""0"" ><div class=""choice-option-text""> Press ""1."" </div></div><div class=""choice-option""><img src=""images/park2.png"" class=""choice-option-img"" stage=""instructions"" position=""1"" ><div class=""choice-option-text""> Press ""2."" </div></div><div class=""choice-option""><img src=""images/park3.png"" class=""choice-option-img"" stage=""instructions"" position=""2"" ><div class=""choice-option-text""> Press ""3."" </div></div></div>","","0","instructions","","","","","","","","","","","","","",""
"learning-instructions","13","78308","0.0-8.0-0.0-0.5","1837","2","2","""event"",""trial"",""time""
""fullscreenenter"",""1"",""2733""
","
","
","""event"",""trial"",""time""
""fullscreenenter"",""1"",""2733""
","
","","","","","","1305.9000000000233","<p> If the kids in the park you chose like the equipment, they will be very happy! </p><div style='float: center;'><img src='images/check.png' width = '200' height = '200'></img>","","0","instructions","","","","","","","","","","","","","",""
"learning-instructions","14","86010","0.0-8.0-0.0-0.6","1837","2","2","""event"",""trial"",""time""
""fullscreenenter"",""1"",""2733""
","
","
","""event"",""trial"",""time""
""fullscreenenter"",""1"",""2733""
","
","","","","","","2111.100000000035","<p> But, if the kids in the park you chose do not like the equipment, they will be sad. </p><div style='float: center;'><img src='images/x.png' width = '200' height = '200'></img>","","0","instructions","","","","","","","","","","","","","",""
"learning-instructions","15","93028","0.0-8.0-0.0-0.7","1837","2","2","""event"",""trial"",""time""
""fullscreenenter"",""1"",""2733""
","
","
","""event"",""trial"",""time""
""fullscreenenter"",""1"",""2733""
","
","","","","","","590.7999999999884","<p> Importantly, the kids in each park like some pieces of sports equipment more than others. </p>","","0","instructions","","","","","","","","","","","","","",""
"learning-instructions","16","100896","0.0-8.0-0.0-0.8","1837","2","2","""event"",""trial"",""time""
""fullscreenenter"",""1"",""2733""
","
","
","""event"",""trial"",""time""
""fullscreenenter"",""1"",""2733""
","
","","","","","","1823.7999999999884","<p> If you choose the best park for each piece of equipment, the kids there will usually be happy. </p>","","0","instructions","","","","","","","","","","","","","",""
"learning-instructions","17","108732","0.0-8.0-0.0-0.9","1837","2","2","""event"",""trial"",""time""
""fullscreenenter"",""1"",""2733""
","
","
","""event"",""trial"",""time""
""fullscreenenter"",""1"",""2733""
","
","","","","","","1190.0999999999767","<p> However, even if you choose the best park for the equipment, the kids may sometimes be sad. </p>","","0","instructions","","","","","","","","","","","","","",""
"learning-instructions","18","117601","0.0-8.0-0.0-0.10","1837","2","2","""event"",""trial"",""time""
""fullscreenenter"",""1"",""2733""
","
","
","""event"",""trial"",""time""
""fullscreenenter"",""1"",""2733""
","
","","","","","","1647.2000000000116","<p> Similarly, even if you choose the <i>wrong</i> park for the equipment, the kids may still be happy sometimes.","","0","instructions","","","","","","","","","","","","","",""
"learning-instructions","19","123152","0.0-8.0-0.0-0.11","1837","2","2","""event"",""trial"",""time""
""fullscreenenter"",""1"",""2733""
","
","
","""event"",""trial"",""time""
""fullscreenenter"",""1"",""2733""
","
","","","","","","499.8999999999651","<p> For example, the best park for this soccer ball is this one.<div style='float: center;'><img src='images/i1.png' width = '500' height = '268'></img>","","0","instructions","","","","","","","","","","","","","",""
"learning-instructions","20","130220","0.0-8.0-0.0-0.12","1837","2","2","""event"",""trial"",""time""
""fullscreenenter"",""1"",""2733""
","
","
","""event"",""trial"",""time""
""fullscreenenter"",""1"",""2733""
","
","","","","","","1781.0999999999767","<p> Let's see what happens if you choose this park for the soccer ball five times.","","0","instructions","","","","","","","","","","","","","",""
"learning-instructions","21","133821","0.0-8.0-0.0-0.13","1837","2","2","""event"",""trial"",""time""
""fullscreenenter"",""1"",""2733""
","
","
","""event"",""trial"",""time""
""fullscreenenter"",""1"",""2733""
","
","","","","","","1440.2000000000116","<p> The kids are happy.<div style='float: left;'><img src='images/i2.png' width = '640' height = '360'></img>","","0","instructions","","","","","","","","","","","","","",""
"learning-instructions","22","136622","0.0-8.0-0.0-0.14","1837","2","2","""event"",""trial"",""time""
""fullscreenenter"",""1"",""2733""
","
","
","""event"",""trial"",""time""
""fullscreenenter"",""1"",""2733""
","
","","","","","","641.3999999999651","<p> The kids are happy.<div style='float: left;'><img src='images/i3.png' width = '640' height = '360'></img>","","0","instructions","","","","","","","","","","","","","",""
"learning-instructions","23","139206","0.0-8.0-0.0-0.15","1837","2","2","""event"",""trial"",""time""
""fullscreenenter"",""1"",""2733""
","
","
","""event"",""trial"",""time""
""fullscreenenter"",""1"",""2733""
","
","","","","","","422.20000000001164","<p> The kids are happy.<div style='float: left;'><img src='images/i4.png' width = '640' height = '360'></img>","","0","instructions","","","","","","","","","","","","","",""
"learning-instructions","24","141890","0.0-8.0-0.0-0.16","1837","2","2","""event"",""trial"",""time""
""fullscreenenter"",""1"",""2733""
","
","
","""event"",""trial"",""time""
""fullscreenenter"",""1"",""2733""
","
","","","","","","482.0999999999767","<p> The kids are sad.<div style='float: left;'><img src='images/i5.png' width = '640' height = '360'></img>","","0","instructions","","","","","","","","","","","","","",""
"learning-instructions","25","144642","0.0-8.0-0.0-0.17","1837","2","2","""event"",""trial"",""time""
""fullscreenenter"",""1"",""2733""
","
","
","""event"",""trial"",""time""
""fullscreenenter"",""1"",""2733""
","
","","","","","","586.3999999999651","<p> The kids are happy.<div style='float: left;'><img src='images/i6.png' width = '640' height = '360'></img>","","0","instructions","","","","","","","","","","","","","",""
"learning-instructions","26","152460","0.0-8.0-0.0-0.18","1837","2","2","""event"",""trial"",""time""
""fullscreenenter"",""1"",""2733""
","
","
","""event"",""trial"",""time""
""fullscreenenter"",""1"",""2733""
","
","","","","","","550.7000000000116","<p> As you can see, selecting that park for the soccer ball made the kids happy most of the time, but not all the time.","","0","instructions","","","","","","","","","","","","","",""
"learning-instructions","27","159945","0.0-8.0-0.0-0.19","1837","2","2","""event"",""trial"",""time""
""fullscreenenter"",""1"",""2733""
","
","
","""event"",""trial"",""time""
""fullscreenenter"",""1"",""2733""
","
","","","","","","1482.600000000035","<p> Now let's see what happens if you choose a DIFFERENT park for the soccer ball 5 times.","","0","instructions","","","","","","","","","","","","","",""
"learning-instructions","28","163747","0.0-8.0-0.0-0.20","1837","2","2","""event"",""trial"",""time""
""fullscreenenter"",""1"",""2733""
","
","
","""event"",""trial"",""time""
""fullscreenenter"",""1"",""2733""
","
","","","","","","1597.0999999999767","<p> The kids are sad.<div style='float: left;'><img src='images/i7.png' width = '640' height = '360'></img>","","0","instructions","","","","","","","","","","","","","",""
"learning-instructions","29","166298","0.0-8.0-0.0-0.21","1837","2","2","""event"",""trial"",""time""
""fullscreenenter"",""1"",""2733""
","
","
","""event"",""trial"",""time""
""fullscreenenter"",""1"",""2733""
","
","","","","","","346.4000000000233","<p> The kids are sad.<div style='float: left;'><img src='images/i8.png' width = '640' height = '360'></img>","","0","instructions","","","","","","","","","","","","","",""
"learning-instructions","30","168916","0.0-8.0-0.0-0.22","1837","2","2","""event"",""trial"",""time""
""fullscreenenter"",""1"",""2733""
","
","
","""event"",""trial"",""time""
""fullscreenenter"",""1"",""2733""
","
","","","","","","456.29999999998836","<p> The kids are happy.<div style='float: left;'><img src='images/i9.png' width = '640' height = '360'></img>","","0","instructions","","","","","","","","","","","","","",""
"learning-instructions","31","171567","0.0-8.0-0.0-0.23","1837","2","2","""event"",""trial"",""time""
""fullscreenenter"",""1"",""2733""
","
","
","""event"",""trial"",""time""
""fullscreenenter"",""1"",""2733""
","
","","","","","","448.4000000000233","<p> The kids are sad.<div style='float: left;'><img src='images/i10.png' width = '640' height = '360'></img>","","0","instructions","","","","","","","","","","","","","",""
"learning-instructions","32","174185","0.0-8.0-0.0-0.24","1837","2","2","""event"",""trial"",""time""
""fullscreenenter"",""1"",""2733""
","
","
","""event"",""trial"",""time""
""fullscreenenter"",""1"",""2733""
","
","","","","","","413.4000000000233","<p> The kids are sad.<div style='float: left;'><img src='images/i11.png' width = '640' height = '360'></img>","","0","instructions","","","","","","","","","","","","","",""
"learning-instructions","33","185354","0.0-8.0-0.0-0.25","1837","2","2","""event"",""trial"",""time""
""fullscreenenter"",""1"",""2733""
","
","
","""event"",""trial"",""time""
""fullscreenenter"",""1"",""2733""
","
","","","","","","3049.5","<p> As you can see, selecting the wrong park for the soccer ball made the kids sad most of the time, but not all the time.","","0","instructions","","","","","","","","","","","","","",""
"learning-instructions","34","195491","0.0-8.0-0.0-0.26","1837","2","2","""event"",""trial"",""time""
""fullscreenenter"",""1"",""2733""
","
","
","""event"",""trial"",""time""
""fullscreenenter"",""1"",""2733""
","
","","","","","","1024.5999999999767","<p> The different pieces of equipment belong in different parks. You need to try to learn which is the best park for each piece of equipment.","","0","instructions","","","","","","","","","","","","","",""
"learning-instructions","35","215245","0.0-8.0-0.0-0.27","1837","2","2","""event"",""trial"",""time""
""fullscreenenter"",""1"",""2733""
","
","
","""event"",""trial"",""time""
""fullscreenenter"",""1"",""2733""
","
","","","","","","3370","<p> Try to choose the best park for each piece of equipment, because you will <b> WIN </b> 1 point for each time you make the kids happy and <b>LOSE</b> 1 point for each time you make them sad. </p><p> Remember, if you make the best choice, you will win 1 point most of the time, but not all the time. </p>","","0","instructions","","","","","","","","","","","","","",""
"learning-instructions","36","222547","0.0-8.0-0.0-0.28","1837","2","2","""event"",""trial"",""time""
""fullscreenenter"",""1"",""2733""
","
","
","""event"",""trial"",""time""
""fullscreenenter"",""1"",""2733""
","
","","","","","","1825.2999999999302","<p> This is just a practice round, but in the real game, your bonus payment will depend on your total number of points.","","0","instructions","","","","","","","","","","","","","",""
"learning-instructions","37","234216","0.0-8.0-0.0-0.29","1837","2","2","""event"",""trial"",""time""
""fullscreenenter"",""1"",""2733""
","
","
","""event"",""trial"",""time""
""fullscreenenter"",""1"",""2733""
","
","","","","","","1344.9000000000233","<p> The position where each park appears will change throughout the game. </p><p> The position where the park appears <i> does not </i> influence how likely the kids are to be happy or sad. </p>","","0","instructions","","","","","","","","","","","","","",""
"learning-instructions","38","246053","0.0-8.0-0.0-0.30","1837","2","2","""event"",""trial"",""time""
""fullscreenenter"",""1"",""2733""
","
","
","""event"",""trial"",""time""
""fullscreenenter"",""1"",""2733""
","
","","","","","","1722","<p> You will have 4 seconds to make each choice. Try to respond before time runs out! </p><p> You will lose 1 point each time you do not make a response. </p>","","0","instructions","","","","","","","","","","","","","",""
"learning-instructions","39","253704","0.0-8.0-0.0-0.31","1837","2","2","""event"",""trial"",""time""
""fullscreenenter"",""1"",""2733""
","
","
","""event"",""trial"",""time""
""fullscreenenter"",""1"",""2733""
","
","","","","","","869.0999999999767","<p> Remember, you should use the 1, 2, and 3 keys to select the park for each piece of equipment. </p><br><div class=""choice-instructions-grid""> <div class=""choice-option""><img src=""images/park1.png"" class=""choice-option-img"" stage=""instructions"" position=""0"" ><div class=""choice-option-text""> Press ""1."" </div></div><div class=""choice-option""><img src=""images/park2.png"" class=""choice-option-img"" stage=""instructions"" position=""1"" ><div class=""choice-option-text""> Press ""2."" </div></div><div class=""choice-option""><img src=""images/park3.png"" class=""choice-option-img"" stage=""instructions"" position=""2"" ><div class=""choice-option-text""> Press ""3."" </div></div></div>","","0","instructions","","","","","","","","","","","","","",""
"html-button-response","40","255822","0.0-8.0-1.0","1837","2","2","""event"",""trial"",""time""
""fullscreenenter"",""1"",""2733""
","
","
","""event"",""trial"",""time""
""fullscreenenter"",""1"",""2733""
","
","","","","","","2010.9000000000233","<p> Ready to practice? </p>","0","","","","","","","","","","","","","","","",""
"html-keyboard-response","41","256428","0.0-8.0-2.0-0.0","1837","2","2","""event"",""trial"",""time""
""fullscreenenter"",""1"",""2733""
","
","
","""event"",""trial"",""time""
""fullscreenenter"",""1"",""2733""
","
","","","","","","null","<div style=""font-size:60px;"">+</div>","null","","fixation","","","","","","","","","","","","","",""
"learning-trial","42","260434","0.0-8.0-2.0-1.0","1837","2","2","""event"",""trial"",""time""
""fullscreenenter"",""1"",""2733""
","
","
","""event"",""trial"",""time""
""fullscreenenter"",""1"",""2733""
","
","","","","","","837.6999999999534","images/ball1.png","","","practice","images/park3.png","images/park2.png","images/park1.png","[2,1,0]","1","1","1","images/park3.png","-1","practice","","","",""
"html-keyboard-response","43","260938","0.0-8.0-2.0-0.1","1837","2","2","""event"",""trial"",""time""
""fullscreenenter"",""1"",""2733""
","
","
","""event"",""trial"",""time""
""fullscreenenter"",""1"",""2733""
","
","","","","","","null","<div style=""font-size:60px;"">+</div>","null","","fixation","","","","","","","","","","","","","",""
"learning-trial","44","264944","0.0-8.0-2.0-1.1","1837","2","2","""event"",""trial"",""time""
""fullscreenenter"",""1"",""2733""
","
","
","""event"",""trial"",""time""
""fullscreenenter"",""1"",""2733""
","
","","","","","","551.6000000000931","images/ball3.png","","","practice","images/park3.png","images/park2.png","images/park1.png","[2,1,0]","2","0","2","images/park2.png","-1","practice","","","",""
"html-keyboard-response","45","265449","0.0-8.0-2.0-0.2","1837","2","2","""event"",""trial"",""time""
""fullscreenenter"",""1"",""2733""
","
","
","""event"",""trial"",""time""
""fullscreenenter"",""1"",""2733""
","
","","","","","","null","<div style=""font-size:60px;"">+</div>","null","","fixation","","","","","","","","","","","","","",""
"learning-trial","46","269454","0.0-8.0-2.0-1.2","1837","2","2","""event"",""trial"",""time""
""fullscreenenter"",""1"",""2733""
","
","
","""event"",""trial"",""time""
""fullscreenenter"",""1"",""2733""
","
","","","","","","520.7999999999302","images/racket1.png","","","practice","images/park2.png","images/park3.png","images/park1.png","[1,2,0]","1","0","3","images/park1.png","-1","practice","","","",""
"html-keyboard-response","47","269959","0.0-8.0-2.0-0.3","1837","2","2","""event"",""trial"",""time""
""fullscreenenter"",""1"",""2733""
","
","
","""event"",""trial"",""time""
""fullscreenenter"",""1"",""2733""
","
","","","","","","null","<div style=""font-size:60px;"">+</div>","null","","fixation","","","","","","","","","","","","","",""
"learning-trial","48","273965","0.0-8.0-2.0-1.3","1837","2","2","""event"",""trial"",""time""
""fullscreenenter"",""1"",""2733""
","
","
","""event"",""trial"",""time""
""fullscreenenter"",""1"",""2733""
","
","","","","","","626.8000000000466","images/racket2.png","","","practice","images/park1.png","images/park3.png","images/park2.png","[0,2,1]","0","0","1","images/park1.png","1","practice","","","",""
"html-keyboard-response","49","274470","0.0-8.0-2.0-0.4","1837","2","2","""event"",""trial"",""time""
""fullscreenenter"",""1"",""2733""
","
","
","""event"",""trial"",""time""
""fullscreenenter"",""1"",""2733""
","
","","","","","","null","<div style=""font-size:60px;"">+</div>","null","","fixation","","","","","","","","","","","","","",""
"learning-trial","50","278474","0.0-8.0-2.0-1.4","1837","2","2","""event"",""trial"",""time""
""fullscreenenter"",""1"",""2733""
","
","
","""event"",""trial"",""time""
""fullscreenenter"",""1"",""2733""
","
","","","","","","379.9000000000233","images/racket4.png","","","practice","images/park2.png","images/park1.png","images/park3.png","[1,0,2]","2","2","2","images/park1.png","-1","practice","","","",""
"html-keyboard-response","51","278979","0.0-8.0-2.0-0.5","1837","2","2","""event"",""trial"",""time""
""fullscreenenter"",""1"",""2733""
","
","
","""event"",""trial"",""time""
""fullscreenenter"",""1"",""2733""
","
","","","","","","null","<div style=""font-size:60px;"">+</div>","null","","fixation","","","","","","","","","","","","","",""
"learning-trial","52","282987","0.0-8.0-2.0-1.5","1837","2","2","""event"",""trial"",""time""
""fullscreenenter"",""1"",""2733""
","
","
","""event"",""trial"",""time""
""fullscreenenter"",""1"",""2733""
","
","","","","","","302.0999999999767","images/ball4.png","","","practice","images/park1.png","images/park3.png","images/park2.png","[0,2,1]","0","0","1","images/park1.png","1","practice","","","",""
"html-keyboard-response","53","283492","0.0-8.0-2.0-0.6","1837","2","2","""event"",""trial"",""time""
""fullscreenenter"",""1"",""2733""
","
","
","""event"",""trial"",""time""
""fullscreenenter"",""1"",""2733""
","
","","","","","","null","<div style=""font-size:60px;"">+</div>","null","","fixation","","","","","","","","","","","","","",""
"learning-trial","54","287497","0.0-8.0-2.0-1.6","1837","2","2","""event"",""trial"",""time""
""fullscreenenter"",""1"",""2733""
","
","
","""event"",""trial"",""time""
""fullscreenenter"",""1"",""2733""
","
","","","","","","373.80000000004657","images/ball4.png","","","practice","images/park3.png","images/park1.png","images/park2.png","[2,0,1]","0","1","3","images/park2.png","-1","practice","","","",""
"html-keyboard-response","55","288002","0.0-8.0-2.0-0.7","1837","2","2","""event"",""trial"",""time""
""fullscreenenter"",""1"",""2733""
","
","
","""event"",""trial"",""time""
""fullscreenenter"",""1"",""2733""
","
","","","","","","null","<div style=""font-size:60px;"">+</div>","null","","fixation","","","","","","","","","","","","","",""
"learning-trial","56","292008","0.0-8.0-2.0-1.7","1837","2","2","""event"",""trial"",""time""
""fullscreenenter"",""1"",""2733""
","
","
","""event"",""trial"",""time""
""fullscreenenter"",""1"",""2733""
","
","","","","","","663.1999999999534","images/ball3.png","","","practice","images/park3.png","images/park1.png","images/park2.png","[2,0,1]","2","0","3","images/park2.png","-1","practice","","","",""
"html-keyboard-response","57","292513","0.0-8.0-2.0-0.8","1837","2","2","""event"",""trial"",""time""
""fullscreenenter"",""1"",""2733""
","
","
","""event"",""trial"",""time""
""fullscreenenter"",""1"",""2733""
","
","","","","","","null","<div style=""font-size:60px;"">+</div>","null","","fixation","","","","","","","","","","","","","",""
"learning-trial","58","296520","0.0-8.0-2.0-1.8","1837","2","2","""event"",""trial"",""time""
""fullscreenenter"",""1"",""2733""
","
","
","""event"",""trial"",""time""
""fullscreenenter"",""1"",""2733""
","
","","","","","","745.1999999999534","images/racket1.png","","","practice","images/park3.png","images/park1.png","images/park2.png","[2,0,1]","1","2","2","images/park1.png","1","practice","","","",""
"html-keyboard-response","59","297025","0.0-8.0-2.0-0.9","1837","2","2","""event"",""trial"",""time""
""fullscreenenter"",""1"",""2733""
","
","
","""event"",""trial"",""time""
""fullscreenenter"",""1"",""2733""
","
","","","","","","null","<div style=""font-size:60px;"">+</div>","null","","fixation","","","","","","","","","","","","","",""
"learning-trial","60","301029","0.0-8.0-2.0-1.9","1837","2","2","""event"",""trial"",""time""
""fullscreenenter"",""1"",""2733""
","
","
","""event"",""trial"",""time""
""fullscreenenter"",""1"",""2733""
","
","","","","","","448.80000000004657","images/racket2.png","","","practice","images/park1.png","images/park3.png","images/park2.png","[0,2,1]","0","0","1","images/park1.png","1","practice","","","",""
"html-keyboard-response","61","301534","0.0-8.0-2.0-0.10","1837","2","2","""event"",""trial"",""time""
""fullscreenenter"",""1"",""2733""
","
","
","""event"",""trial"",""time""
""fullscreenenter"",""1"",""2733""
","
","","","","","","null","<div style=""font-size:60px;"">+</div>","null","","fixation","","","","","","","","","","","","","",""
"learning-trial","62","305539","0.0-8.0-2.0-1.10","1837","2","2","""event"",""trial"",""time""
""fullscreenenter"",""1"",""2733""
","
","
","""event"",""trial"",""time""
""fullscreenenter"",""1"",""2733""
","
","","","","","","1443.8000000000466","images/ball1.png","","","practice","images/park2.png","images/park3.png","images/park1.png","[1,2,0]","1","0","3","images/park1.png","-1","practice","","","",""
"html-keyboard-response","63","306044","0.0-8.0-2.0-0.11","1837","2","2","""event"",""trial"",""time""
""fullscreenenter"",""1"",""2733""
","
","
","""event"",""trial"",""time""
""fullscreenenter"",""1"",""2733""
","
","","","","","","null","<div style=""font-size:60px;"">+</div>","null","","fixation","","","","","","","","","","","","","",""
"learning-trial","64","310050","0.0-8.0-2.0-1.11","1837","2","2","""event"",""trial"",""time""
""fullscreenenter"",""1"",""2733""
","
","
","""event"",""trial"",""time""
""fullscreenenter"",""1"",""2733""
","
","","","","","","1077.1999999999534","images/racket4.png","","","practice","images/park3.png","images/park2.png","images/park1.png","[2,1,0]","2","0","1","images/park3.png","1","practice","","","",""
"html-button-response","65","313443","0.0-8.0-3.0","1837","2","2","""event"",""trial"",""time""
""fullscreenenter"",""1"",""2733""
","
","
","""event"",""trial"",""time""
""fullscreenenter"",""1"",""2733""
","
","","","","","","3390.9000000000233","<p> You earned -2 points in the practice round! </p>","0","","break","","","","","","","","","","","","","",""
"learning-instructions","66","323779","0.0-8.0-4.0-0.0","1837","2","2","""event"",""trial"",""time""
""fullscreenenter"",""1"",""2733""
","
","
","""event"",""trial"",""time""
""fullscreenenter"",""1"",""2733""
","
","","","","","","2654.0999999999767","<p> It's almost time to start the real game. </p><p> Before you start, we're going to ask you a few questions about how the game works. </p>","","0","instructions","","","","","","","","","","","","","",""
"preload","67","324769","0.0-8.0-5.0","1837","2","2","""event"",""trial"",""time""
""fullscreenenter"",""1"",""2733""
","
","
","""event"",""trial"",""time""
""fullscreenenter"",""1"",""2733""
","
","true","false","[]","[]","[]","","","","","","","","","","","","","","","","","","",""
"comp-q","68","332814","0.0-8.0-6.0-0.0","1837","2","2","""event"",""trial"",""time""
""fullscreenenter"",""1"",""2733""
","
","
","""event"",""trial"",""time""
""fullscreenenter"",""1"",""2733""
","
","","","","","","2592.9000000000233","<p> <b> True or False? </b> </p><p> If you choose the best option, you will always earn 1 point. </p>","","0","comp_question","","","","","","","","","","","false","","",""
"comp-q","69","339315","0.0-8.0-6.0-1.0","1837","2","2","""event"",""trial"",""time""
""fullscreenenter"",""1"",""2733""
","
","
","""event"",""trial"",""time""
""fullscreenenter"",""1"",""2733""
","
","","","","","","949.9000000000233","<p><b> Incorrect. </b> Sometimes you will lose 1 point, even if you choose the best option. </p>","","0","comp_answer","","","","","","","","","","","","","",""
"comp-q","70","344367","0.0-8.0-6.0-0.1","1837","2","2","""event"",""trial"",""time""
""fullscreenenter"",""1"",""2733""
","
","
","""event"",""trial"",""time""
""fullscreenenter"",""1"",""2733""
","
","","","","","","422.30000000004657","<p> <b> True or False? </b> </p><p> You will have as much time as you want to make each choice. </p>","","1","comp_question","","","","","","","","","","","true","","",""
"comp-q","71","350067","0.0-8.0-6.0-1.1","1837","2","2","""event"",""trial"",""time""
""fullscreenenter"",""1"",""2733""
","
","
","""event"",""trial"",""time""
""fullscreenenter"",""1"",""2733""
","
","","","","","","881.4000000000233","<p> <b> That's right! </b> You will only have 4 seconds to make each choice. </p>","","0","comp_answer","","","","","","","","","","","","","",""
"comp-q","72","357285","0.0-8.0-6.0-0.2","1837","2","2","""event"",""trial"",""time""
""fullscreenenter"",""1"",""2733""
","
","
","""event"",""trial"",""time""
""fullscreenenter"",""1"",""2733""
","
","","","","","","1064.2999999999302","<p> <b> True or False? </b> </p><p> You should use the '1', '2', and '3' keys to make your choices. </p>","","0","comp_question","","","","","","","","","","","true","","",""
"comp-q","73","363121","0.0-8.0-6.0-1.2","1837","2","2","""event"",""trial"",""time""
""fullscreenenter"",""1"",""2733""
","
","
","""event"",""trial"",""time""
""fullscreenenter"",""1"",""2733""
","
","","","","","","989.9000000000233","<p> <b> That's right! </b> You should use the '1', '2', and '3' keys to make each choice. </p>","","0","comp_answer","","","","","","","","","","","","","",""
"learning-instructions","74","372872","0.0-8.0-7.0-0.0","1837","2","2","""event"",""trial"",""time""
""fullscreenenter"",""1"",""2733""
","
","
","""event"",""trial"",""time""
""fullscreenenter"",""1"",""2733""
","
","","","","","","1268.3000000000466","<p> It's now time to start the real game. </p>Do your best, because the points you earn in the next rounds will influence your bonus payment. </p>","","0","instructions","","","","","","","","","","","","","",""
"preload","75","374067","0.0-9.0-0.0","1837","2","2","""event"",""trial"",""time""
""fullscreenenter"",""1"",""2733""
","
","
","""event"",""trial"",""time""
""fullscreenenter"",""1"",""2733""
","
","true","false","[]","[]","[]","","","","","","","","","","","","","","","","","","",""
"learning-instructions","76","381891","0.0-9.0-1.0-0.0","1837","2","2","""event"",""trial"",""time""
""fullscreenenter"",""1"",""2733""
","
","
","""event"",""trial"",""time""
""fullscreenenter"",""1"",""2733""
","
","","","","","","993.0999999999767","<p> Your goal in this round is to grow a beautiful garden by watering plants. </p><p> You will need to water many different plants. </p></div>","","0","instructions","","","","","","","","","","","","","",""
"learning-instructions","77","396361","0.0-9.0-1.0-0.1","1837","2","2","""event"",""trial"",""time""
""fullscreenenter"",""1"",""2733""
","
","
","""event"",""trial"",""time""
""fullscreenenter"",""1"",""2733""
","
","","","","","","1188.5999999999767","<p> On each turn, you will see a picture of one of your plants and three different watering cans.  </p><p> Each watering can has a different mixture of water and fertilizer.  </p><p> You need to select which watering can to use for each plant. </p>","","0","instructions","","","","","","","","","","","","","",""
"learning-instructions","78","405080","0.0-9.0-1.0-0.2","1837","2","2","""event"",""trial"",""time""
""fullscreenenter"",""1"",""2733""
","
","
","""event"",""trial"",""time""
""fullscreenenter"",""1"",""2733""
","
","","","","","","978.9000000000233","<p> You can select the watering can on the left by pressing 1, the watering can in the middle by pressing 2, and the watering can on the right by pressing 3. </p><br><div class=""choice-instructions-grid""> <div class=""choice-option""><img src=""images/plants_choice1.png"" class=""choice-option-img"" stage=""instructions"" position=""0"" ><div class=""choice-option-text""> Press ""1."" </div></div><div class=""choice-option""><img src=""images/plants_choice2.png"" class=""choice-option-img"" stage=""instructions"" position=""1"" ><div class=""choice-option-text""> Press ""2."" </div></div><div class=""choice-option""><img src=""images/plants_choice3.png"" class=""choice-option-img"" stage=""instructions"" position=""2"" ><div class=""choice-option-text""> Press ""3."" </div></div></div>","","0","instructions","","","","","","","","","","","","","",""
"learning-instructions","79","410632","0.0-9.0-1.0-0.3","1837","2","2","""event"",""trial"",""time""
""fullscreenenter"",""1"",""2733""
","
","
","""event"",""trial"",""time""
""fullscreenenter"",""1"",""2733""
","
","","","","","","1387.6999999999534","<p> If the watering can you chose works for the plant, it will grow! </p><div style='float: center;'><img src='images/check.png' width = '200' height = '200'></img>","","0","instructions","","","","","","","","","","","","","",""
"learning-instructions","80","416233","0.0-9.0-1.0-0.4","1837","2","2","""event"",""trial"",""time""
""fullscreenenter"",""1"",""2733""
","
","
","""event"",""trial"",""time""
""fullscreenenter"",""1"",""2733""
","
","","","","","","794.7999999999302","<p> But, if the watering can you chose does not work, your plant will droop. </p><div style='float: center;'><img src='images/x.png' width = '200' height = '200'></img>","","0","instructions","","","","","","","","","","","","","",""
"learning-instructions","81","427536","0.0-9.0-1.0-0.5","1837","2","2","""event"",""trial"",""time""
""fullscreenenter"",""1"",""2733""
","
","
","""event"",""trial"",""time""
""fullscreenenter"",""1"",""2733""
","
","","","","","","1225","<p> Importantly, each plant has one fertilizer mixture that works best for it. </p><p> If you choose the watering can with the right fertilizer, the plant will be more likely to grow. </p>","","0","instructions","","","","","","","","","","","","","",""
"learning-instructions","82","439438","0.0-9.0-1.0-0.6","1837","2","2","""event"",""trial"",""time""
""fullscreenenter"",""1"",""2733""
","
","
","""event"",""trial"",""time""
""fullscreenenter"",""1"",""2733""
","
","","","","","","1569.8000000000466","<p> However, even if you choose the best watering can for the plant, the plant may still droop. </p><p> Similarly, even if you choose the <i>wrong</i> watering can, the plant may still grow.","","0","instructions","","","","","","","","","","","","","",""
"learning-instructions","83","452141","0.0-9.0-1.0-0.7","1837","2","2","""event"",""trial"",""time""
""fullscreenenter"",""1"",""2733""
","
","
","""event"",""trial"",""time""
""fullscreenenter"",""1"",""2733""
","
","","","","","","845.4000000000233","<p> Try to choose the best watering can for each plant, because you will <b> WIN </b> 1 point each time a plant grows and <b>LOSE</b>  1 point each time a plant droops. </p><p> Your bonus payment will depend on your total number of points.","","0","instructions","","","","","","","","","","","","","",""
"learning-instructions","84","461627","0.0-9.0-1.0-0.8","1837","2","2","""event"",""trial"",""time""
""fullscreenenter"",""1"",""2733""
","
","
","""event"",""trial"",""time""
""fullscreenenter"",""1"",""2733""
","
","","","","","","1484.5","<p> The position of each watering can will change throughout the round. </p><p> The watering can's position <i> does not </i> influence how likely each plant is to droop or grow. </p>","","0","instructions","","","","","","","","","","","","","",""
"learning-instructions","85","471413","0.0-9.0-1.0-0.9","1837","2","2","""event"",""trial"",""time""
""fullscreenenter"",""1"",""2733""
","
","
","""event"",""trial"",""time""
""fullscreenenter"",""1"",""2733""
","
","","","","","","497.0999999999767","<p> You will have 4 seconds to make each choice. Try to respond before time runs out! </p><p> You will lose 1 point each time you do not make a response. </p>","","0","instructions","","","","","","","","","","","","","",""
"html-keyboard-response","86","472015","0.0-9.0-2.0-0.0","1837","2","2","""event"",""trial"",""time""
""fullscreenenter"",""1"",""2733""
","
","
","""event"",""trial"",""time""
""fullscreenenter"",""1"",""2733""
","
","","","","","","null","<div style=""font-size:60px;"">+</div>","null","","fixation","","","","","","","","","","","","","",""
"learning-trial","87","476018","0.0-9.0-2.0-1.0","1837","2","2","""event"",""trial"",""time""
""fullscreenenter"",""1"",""2733""
","
","
","""event"",""trial"",""time""
""fullscreenenter"",""1"",""2733""
","
","","","","","","586.5999999999767","images/flower2.png","","","learning","images/plants_choice1.png","images/plants_choice3.png","images/plants_choice2.png","[0,2,1]","0","0","1","images/plants_choice1.png","1","plants","","flower","2","0"
"html-keyboard-response","88","476520","0.0-9.0-2.0-0.1","1837","2","2","""event"",""trial"",""time""
""fullscreenenter"",""1"",""2733""
","
","
","""event"",""trial"",""time""
""fullscreenenter"",""1"",""2733""
","
","","","","","","null","<div style=""font-size:60px;"">+</div>","null","","fixation","","","","","","","","","","","","","",""
"learning-trial","89","480523","0.0-9.0-2.0-1.1","1837","2","2","""event"",""trial"",""time""
""fullscreenenter"",""1"",""2733""
","
","
","""event"",""trial"",""time""
""fullscreenenter"",""1"",""2733""
","
","","","","","","689.4000000000233","images/flower2.png","","","learning","images/plants_choice1.png","images/plants_choice2.png","images/plants_choice3.png","[0,1,2]","0","0","2","images/plants_choice2.png","-1","plants","","flower","2","0"
"html-keyboard-response","90","481028","0.0-9.0-2.0-0.2","1837","2","2","""event"",""trial"",""time""
""fullscreenenter"",""1"",""2733""
","
","
","""event"",""trial"",""time""
""fullscreenenter"",""1"",""2733""
","
","","","","","","null","<div style=""font-size:60px;"">+</div>","null","","fixation","","","","","","","","","","","","","",""
"learning-trial","91","485034","0.0-9.0-2.0-1.2","1837","2","2","""event"",""trial"",""time""
""fullscreenenter"",""1"",""2733""
","
","
","""event"",""trial"",""time""
""fullscreenenter"",""1"",""2733""
","
","","","","","","398.0999999999767","images/bush5.png","","","learning","images/plants_choice3.png","images/plants_choice2.png","images/plants_choice1.png","[2,1,0]","1","1","2","images/plants_choice2.png","1","plants","","bush","2","0"
"html-keyboard-response","92","485538","0.0-9.0-2.0-0.3","1837","2","2","""event"",""trial"",""time""
""fullscreenenter"",""1"",""2733""
","
","
","""event"",""trial"",""time""
""fullscreenenter"",""1"",""2733""
","
","","","","","","null","<div style=""font-size:60px;"">+</div>","null","","fixation","","","","","","","","","","","","","",""
"learning-trial","93","489544","0.0-9.0-2.0-1.3","1837","2","2","""event"",""trial"",""time""
""fullscreenenter"",""1"",""2733""
","
","
","""event"",""trial"",""time""
""fullscreenenter"",""1"",""2733""
","
","","","","","","528.5","images/bush4.png","","","learning","images/plants_choice3.png","images/plants_choice1.png","images/plants_choice2.png","[2,0,1]","0","1","1","images/plants_choice3.png","-1","plants","","bush","2","0"
"html-keyboard-response","94","490047","0.0-9.0-2.0-0.4","1837","2","2","""event"",""trial"",""time""
""fullscreenenter"",""1"",""2733""
","
","
","""event"",""trial"",""time""
""fullscreenenter"",""1"",""2733""
","
","","","","","","null","<div style=""font-size:60px;"">+</div>","null","","fixation","","","","","","","","","","","","","",""
"learning-trial","95","494051","0.0-9.0-2.0-1.4","1837","2","2","""event"",""trial"",""time""
""fullscreenenter"",""1"",""2733""
","
","
","""event"",""trial"",""time""
""fullscreenenter"",""1"",""2733""
","
","","","","","","370.4000000000233","images/tree5.png","","","learning","images/plants_choice3.png","images/plants_choice1.png","images/plants_choice2.png","[2,0,1]","2","0","3","images/plants_choice2.png","-1","plants","","tree","2","0"
"html-keyboard-response","96","494554","0.0-9.0-2.0-0.5","1837","2","2","""event"",""trial"",""time""
""fullscreenenter"",""1"",""2733""
","
","
","""event"",""trial"",""time""
""fullscreenenter"",""1"",""2733""
","
","","","","","","null","<div style=""font-size:60px;"">+</div>","null","","fixation","","","","","","","","","","","","","",""
"learning-trial","97","498559","0.0-9.0-2.0-1.5","1837","2","2","""event"",""trial"",""time""
""fullscreenenter"",""1"",""2733""
","
","
","""event"",""trial"",""time""
""fullscreenenter"",""1"",""2733""
","
","","","","","","328.20000000006985","images/tree4.png","","","learning","images/plants_choice2.png","images/plants_choice1.png","images/plants_choice3.png","[1,0,2]","1","0","2","images/plants_choice1.png","-1","plants","","tree","2","0"
"html-keyboard-response","98","499064","0.0-9.0-2.0-0.6","1837","2","2","""event"",""trial"",""time""
""fullscreenenter"",""1"",""2733""
","
","
","""event"",""trial"",""time""
""fullscreenenter"",""1"",""2733""
","
","","","","","","null","<div style=""font-size:60px;"">+</div>","null","","fixation","","","","","","","","","","","","","",""
"learning-trial","99","503071","0.0-9.0-2.0-1.6","1837","2","2","""event"",""trial"",""time""
""fullscreenenter"",""1"",""2733""
","
","
","""event"",""trial"",""time""
""fullscreenenter"",""1"",""2733""
","
","","","","","","457.5","images/flower1.png","","","learning","images/plants_choice1.png","images/plants_choice3.png","images/plants_choice2.png","[0,2,1]","2","1","1","images/plants_choice1.png","-1","plants","","flower","2","0"
"html-keyboard-response","100","503575","0.0-9.0-2.0-0.7","1837","2","2","""event"",""trial"",""time""
""fullscreenenter"",""1"",""2733""
","
","
","""event"",""trial"",""time""
""fullscreenenter"",""1"",""2733""
","
","","","","","","null","<div style=""font-size:60px;"">+</div>","null","","fixation","","","","","","","","","","","","","",""
"learning-trial","101","507581","0.0-9.0-2.0-1.7","1837","2","2","""event"",""trial"",""time""
""fullscreenenter"",""1"",""2733""
","
","
","""event"",""trial"",""time""
""fullscreenenter"",""1"",""2733""
","
","","","","","","594.0999999999767","images/flower5.png","","","learning","images/plants_choice3.png","images/plants_choice1.png","images/plants_choice2.png","[2,0,1]","1","2","3","images/plants_choice2.png","1","plants","","flower","2","0"
"html-keyboard-response","102","508086","0.0-9.0-2.0-0.8","1837","2","2","""event"",""trial"",""time""
""fullscreenenter"",""1"",""2733""
","
","
","""event"",""trial"",""time""
""fullscreenenter"",""1"",""2733""
","
","","","","","","null","<div style=""font-size:60px;"">+</div>","null","","fixation","","","","","","","","","","","","","",""
"learning-trial","103","512092","0.0-9.0-2.0-1.8","1837","2","2","""event"",""trial"",""time""
""fullscreenenter"",""1"",""2733""
","
","
","""event"",""trial"",""time""
""fullscreenenter"",""1"",""2733""
","
","","","","","","339.5999999999767","images/flower5.png","","","learning","images/plants_choice3.png","images/plants_choice1.png","images/plants_choice2.png","[2,0,1]","1","2","2","images/plants_choice1.png","-1","plants","","flower","2","0"
"html-keyboard-response","104","512596","0.0-9.0-2.0-0.9","1837","2","2","""event"",""trial"",""time""
""fullscreenenter"",""1"",""2733""
","
","
","""event"",""trial"",""time""
""fullscreenenter"",""1"",""2733""
","
","","","","","","null","<div style=""font-size:60px;"">+</div>","null","","fixation","","","","","","","","","","","","","",""
"learning-trial","105","516602","0.0-9.0-2.0-1.9","1837","2","2","""event"",""trial"",""time""
""fullscreenenter"",""1"",""2733""
","
","
","""event"",""trial"",""time""
""fullscreenenter"",""1"",""2733""
","
","","","","","","349","images/bush4.png","","","learning","images/plants_choice2.png","images/plants_choice3.png","images/plants_choice1.png","[1,2,0]","0","2","3","images/plants_choice1.png","1","plants","","bush","2","0"
"html-keyboard-response","106","517107","0.0-9.0-2.0-0.10","1837","2","2","""event"",""trial"",""time""
""fullscreenenter"",""1"",""2733""
","
","
","""event"",""trial"",""time""
""fullscreenenter"",""1"",""2733""
","
","","","","","","null","<div style=""font-size:60px;"">+</div>","null","","fixation","","","","","","","","","","","","","",""
"learning-trial","107","521113","0.0-9.0-2.0-1.10","1837","2","2","""event"",""trial"",""time""
""fullscreenenter"",""1"",""2733""
","
","
","""event"",""trial"",""time""
""fullscreenenter"",""1"",""2733""
","
","","","","","","574.5999999999767","images/bush3.png","","","learning","images/plants_choice2.png","images/plants_choice3.png","images/plants_choice1.png","[1,2,0]","2","1","3","images/plants_choice1.png","-1","plants","","bush","2","0"
"html-keyboard-response","108","521617","0.0-9.0-2.0-0.11","1837","2","2","""event"",""trial"",""time""
""fullscreenenter"",""1"",""2733""
","
","
","""event"",""trial"",""time""
""fullscreenenter"",""1"",""2733""
","
","","","","","","null","<div style=""font-size:60px;"">+</div>","null","","fixation","","","","","","","","","","","","","",""
"learning-trial","109","525623","0.0-9.0-2.0-1.11","1837","2","2","""event"",""trial"",""time""
""fullscreenenter"",""1"",""2733""
","
","
","""event"",""trial"",""time""
""fullscreenenter"",""1"",""2733""
","
","","","","","","272.30000000004657","images/bush3.png","","","learning","images/plants_choice3.png","images/plants_choice2.png","images/plants_choice1.png","[2,1,0]","2","0","2","images/plants_choice2.png","-1","plants","","bush","2","0"
"html-keyboard-response","110","526128","0.0-9.0-2.0-0.12","1837","2","2","""event"",""trial"",""time""
""fullscreenenter"",""1"",""2733""
","
","
","""event"",""trial"",""time""
""fullscreenenter"",""1"",""2733""
","
","","","","","","null","<div style=""font-size:60px;"">+</div>","null","","fixation","","","","","","","","","","","","","",""
"learning-trial","111","530134","0.0-9.0-2.0-1.12","1837","2","2","""event"",""trial"",""time""
""fullscreenenter"",""1"",""2733""
","
","
","""event"",""trial"",""time""
""fullscreenenter"",""1"",""2733""
","
","","","","","","361.30000000004657","images/bush5.png","","","learning","images/plants_choice1.png","images/plants_choice2.png","images/plants_choice3.png","[0,1,2]","1","1","1","images/plants_choice1.png","-1","plants","","bush","2","0"
"html-keyboard-response","112","530638","0.0-9.0-2.0-0.13","1837","2","2","""event"",""trial"",""time""
""fullscreenenter"",""1"",""2733""
","
","
","""event"",""trial"",""time""
""fullscreenenter"",""1"",""2733""
","
","","","","","","null","<div style=""font-size:60px;"">+</div>","null","","fixation","","","","","","","","","","","","","",""
"learning-trial","113","534644","0.0-9.0-2.0-1.13","1837","2","2","""event"",""trial"",""time""
""fullscreenenter"",""1"",""2733""
","
","
","""event"",""trial"",""time""
""fullscreenenter"",""1"",""2733""
","
","","","","","","363.0999999999767","images/tree5.png","","","learning","images/plants_choice1.png","images/plants_choice2.png","images/plants_choice3.png","[0,1,2]","2","2","2","images/plants_choice2.png","-1","plants","","tree","2","0"
"html-keyboard-response","114","535149","0.0-9.0-2.0-0.14","1837","2","2","""event"",""trial"",""time""
""fullscreenenter"",""1"",""2733""
","
","
","""event"",""trial"",""time""
""fullscreenenter"",""1"",""2733""
","
","","","","","","null","<div style=""font-size:60px;"">+</div>","null","","fixation","","","","","","","","","","","","","",""
"learning-trial","115","539154","0.0-9.0-2.0-1.14","1837","2","2","""event"",""trial"",""time""
""fullscreenenter"",""1"",""2733""
","
","
","""event"",""trial"",""time""
""fullscreenenter"",""1"",""2733""
","
","","","","","","356.80000000004657","images/tree5.png","","","learning","images/plants_choice2.png","images/plants_choice1.png","images/plants_choice3.png","[1,0,2]","2","2","3","images/plants_choice3.png","1","plants","","tree","2","0"
"html-keyboard-response","116","539659","0.0-9.0-2.0-0.15","1837","2","2","""event"",""trial"",""time""
""fullscreenenter"",""1"",""2733""
","
","
","""event"",""trial"",""time""
""fullscreenenter"",""1"",""2733""
","
","","","","","","null","<div style=""font-size:60px;"">+</div>","null","","fixation","","","","","","","","","","","","","",""
"learning-trial","117","543665","0.0-9.0-2.0-1.15","1837","2","2","""event"",""trial"",""time""
""fullscreenenter"",""1"",""2733""
","
","
","""event"",""trial"",""time""
""fullscreenenter"",""1"",""2733""
","
","","","","","","413.80000000004657","images/tree3.png","","","learning","images/plants_choice2.png","images/plants_choice3.png","images/plants_choice1.png","[1,2,0]","0","2","2","images/plants_choice3.png","-1","plants","","tree","2","0"
"html-keyboard-response","118","544170","0.0-9.0-2.0-0.16","1837","2","2","""event"",""trial"",""time""
""fullscreenenter"",""1"",""2733""
","
","
","""event"",""trial"",""time""
""fullscreenenter"",""1"",""2733""
","
","","","","","","null","<div style=""font-size:60px;"">+</div>","null","","fixation","","","","","","","","","","","","","",""
"learning-trial","119","548175","0.0-9.0-2.0-1.16","1837","2","2","""event"",""trial"",""time""
""fullscreenenter"",""1"",""2733""
","
","
","""event"",""trial"",""time""
""fullscreenenter"",""1"",""2733""
","
","","","","","","1255.9000000000233","images/tree3.png","","","learning","images/plants_choice1.png","images/plants_choice3.png","images/plants_choice2.png","[0,2,1]","0","0","1","images/plants_choice1.png","1","plants","","tree","2","0"
"html-keyboard-response","120","548680","0.0-9.0-2.0-0.17","1837","2","2","""event"",""trial"",""time""
""fullscreenenter"",""1"",""2733""
","
","
","""event"",""trial"",""time""
""fullscreenenter"",""1"",""2733""
","
","","","","","","null","<div style=""font-size:60px;"">+</div>","null","","fixation","","","","","","","","","","","","","",""
"learning-trial","121","552686","0.0-9.0-2.0-1.17","1837","2","2","""event"",""trial"",""time""
""fullscreenenter"",""1"",""2733""
","
","
","""event"",""trial"",""time""
""fullscreenenter"",""1"",""2733""
","
","","","","","","473.60000000009313","images/flower5.png","","","learning","images/plants_choice1.png","images/plants_choice3.png","images/plants_choice2.png","[0,2,1]","1","2","1","images/plants_choice1.png","-1","plants","","flower","2","0"
"html-keyboard-response","122","553191","0.0-9.0-2.0-0.18","1837","2","2","""event"",""trial"",""time""
""fullscreenenter"",""1"",""2733""
","
","
","""event"",""trial"",""time""
""fullscreenenter"",""1"",""2733""
","
","","","","","","null","<div style=""font-size:60px;"">+</div>","null","","fixation","","","","","","","","","","","","","",""
"learning-trial","123","557196","0.0-9.0-2.0-1.18","1837","2","2","""event"",""trial"",""time""
""fullscreenenter"",""1"",""2733""
","
","
","""event"",""trial"",""time""
""fullscreenenter"",""1"",""2733""
","
","","","","","","275","images/bush5.png","","","learning","images/plants_choice2.png","images/plants_choice3.png","images/plants_choice1.png","[1,2,0]","1","0","2","images/plants_choice3.png","-1","plants","","bush","2","0"
"html-keyboard-response","124","557701","0.0-9.0-2.0-0.19","1837","2","2","""event"",""trial"",""time""
""fullscreenenter"",""1"",""2733""
","
","
","""event"",""trial"",""time""
""fullscreenenter"",""1"",""2733""
","
","","","","","","null","<div style=""font-size:60px;"">+</div>","null","","fixation","","","","","","","","","","","","","",""
"learning-trial","125","561707","0.0-9.0-2.0-1.19","1837","2","2","""event"",""trial"",""time""
""fullscreenenter"",""1"",""2733""
","
","
","""event"",""trial"",""time""
""fullscreenenter"",""1"",""2733""
","
","","","","","","324.5","images/flower5.png","","","learning","images/plants_choice1.png","images/plants_choice3.png","images/plants_choice2.png","[0,2,1]","1","2","1","images/plants_choice1.png","-1","plants","","flower","2","0"
"html-keyboard-response","126","562212","0.0-9.0-2.0-0.20","1837","2","2","""event"",""trial"",""time""
""fullscreenenter"",""1"",""2733""
","
","
","""event"",""trial"",""time""
""fullscreenenter"",""1"",""2733""
","
","","","","","","null","<div style=""font-size:60px;"">+</div>","null","","fixation","","","","","","","","","","","","","",""
"learning-trial","127","566217","0.0-9.0-2.0-1.20","1837","2","2","""event"",""trial"",""time""
""fullscreenenter"",""1"",""2733""
","
","
","""event"",""trial"",""time""
""fullscreenenter"",""1"",""2733""
","
","","","","","","262.20000000006985","images/bush5.png","","","learning","images/plants_choice3.png","images/plants_choice2.png","images/plants_choice1.png","[2,1,0]","1","1","3","images/plants_choice1.png","-1","plants","","bush","2","0"
"html-keyboard-response","128","566722","0.0-9.0-2.0-0.21","1837","2","2","""event"",""trial"",""time""
""fullscreenenter"",""1"",""2733""
","
","
","""event"",""trial"",""time""
""fullscreenenter"",""1"",""2733""
","
","","","","","","null","<div style=""font-size:60px;"">+</div>","null","","fixation","","","","","","","","","","","","","",""
"learning-trial","129","570728","0.0-9.0-2.0-1.21","1837","2","2","""event"",""trial"",""time""
""fullscreenenter"",""1"",""2733""
","
","
","""event"",""trial"",""time""
""fullscreenenter"",""1"",""2733""
","
","","","","","","279.30000000004657","images/bush3.png","","","learning","images/plants_choice1.png","images/plants_choice3.png","images/plants_choice2.png","[0,2,1]","2","1","2","images/plants_choice3.png","1","plants","","bush","2","0"
"html-keyboard-response","130","571232","0.0-9.0-2.0-0.22","1837","2","2","""event"",""trial"",""time""
""fullscreenenter"",""1"",""2733""
","
","
","""event"",""trial"",""time""
""fullscreenenter"",""1"",""2733""
","
","","","","","","null","<div style=""font-size:60px;"">+</div>","null","","fixation","","","","","","","","","","","","","",""
"learning-trial","131","575238","0.0-9.0-2.0-1.22","1837","2","2","""event"",""trial"",""time""
""fullscreenenter"",""1"",""2733""
","
","
","""event"",""trial"",""time""
""fullscreenenter"",""1"",""2733""
","
","","","","","","441.79999999993015","images/bush5.png","","","learning","images/plants_choice1.png","images/plants_choice2.png","images/plants_choice3.png","[0,1,2]","1","1","2","images/plants_choice2.png","-1","plants","","bush","2","0"
"html-keyboard-response","132","575743","0.0-9.0-2.0-0.23","1837","2","2","""event"",""trial"",""time""
""fullscreenenter"",""1"",""2733""
","
","
","""event"",""trial"",""time""
""fullscreenenter"",""1"",""2733""
","
","","","","","","null","<div style=""font-size:60px;"">+</div>","null","","fixation","","","","","","","","","","","","","",""
"learning-trial","133","579748","0.0-9.0-2.0-1.23","1837","2","2","""event"",""trial"",""time""
""fullscreenenter"",""1"",""2733""
","
","
","""event"",""trial"",""time""
""fullscreenenter"",""1"",""2733""
","
","","","","","","498.9000000000233","images/bush4.png","","","learning","images/plants_choice1.png","images/plants_choice3.png","images/plants_choice2.png","[0,2,1]","0","0","1","images/plants_choice1.png","1","plants","","bush","2","0"
"html-keyboard-response","134","580253","0.0-9.0-2.0-0.24","1837","2","2","""event"",""trial"",""time""
""fullscreenenter"",""1"",""2733""
","
","
","""event"",""trial"",""time""
""fullscreenenter"",""1"",""2733""
","
","","","","","","null","<div style=""font-size:60px;"">+</div>","null","","fixation","","","","","","","","","","","","","",""
"learning-trial","135","584259","0.0-9.0-2.0-1.24","1837","2","2","""event"",""trial"",""time""
""fullscreenenter"",""1"",""2733""
","
","
","""event"",""trial"",""time""
""fullscreenenter"",""1"",""2733""
","
","","","","","","1299.9000000000233","images/bush5.png","","","learning","images/plants_choice3.png","images/plants_choice2.png","images/plants_choice1.png","[2,1,0]","1","1","2","images/plants_choice2.png","1","plants","","bush","2","0"
"html-keyboard-response","136","584763","0.0-9.0-2.0-0.25","1837","2","2","""event"",""trial"",""time""
""fullscreenenter"",""1"",""2733""
","
","
","""event"",""trial"",""time""
""fullscreenenter"",""1"",""2733""
","
","","","","","","null","<div style=""font-size:60px;"">+</div>","null","","fixation","","","","","","","","","","","","","",""
"learning-trial","137","588769","0.0-9.0-2.0-1.25","1837","2","2","""event"",""trial"",""time""
""fullscreenenter"",""1"",""2733""
","
","
","""event"",""trial"",""time""
""fullscreenenter"",""1"",""2733""
","
","","","","","","790.0999999999767","images/bush4.png","","","learning","images/plants_choice2.png","images/plants_choice3.png","images/plants_choice1.png","[1,2,0]","0","2","1","images/plants_choice2.png","-1","plants","","bush","2","0"
"html-keyboard-response","138","589274","0.0-9.0-2.0-0.26","1837","2","2","""event"",""trial"",""time""
""fullscreenenter"",""1"",""2733""
","
","
","""event"",""trial"",""time""
""fullscreenenter"",""1"",""2733""
","
","","","","","","null","<div style=""font-size:60px;"">+</div>","null","","fixation","","","","","","","","","","","","","",""
"learning-trial","139","593280","0.0-9.0-2.0-1.26","1837","2","2","""event"",""trial"",""time""
""fullscreenenter"",""1"",""2733""
","
","
","""event"",""trial"",""time""
""fullscreenenter"",""1"",""2733""
","
","","","","","","703.1999999999534","images/tree4.png","","","learning","images/plants_choice1.png","images/plants_choice3.png","images/plants_choice2.png","[0,2,1]","1","2","3","images/plants_choice2.png","-1","plants","","tree","2","0"
"html-keyboard-response","140","593785","0.0-9.0-2.0-0.27","1837","2","2","""event"",""trial"",""time""
""fullscreenenter"",""1"",""2733""
","
","
","""event"",""trial"",""time""
""fullscreenenter"",""1"",""2733""
","
","","","","","","null","<div style=""font-size:60px;"">+</div>","null","","fixation","","","","","","","","","","","","","",""
"learning-trial","141","597790","0.0-9.0-2.0-1.27","1837","2","2","""event"",""trial"",""time""
""fullscreenenter"",""1"",""2733""
","
","
","""event"",""trial"",""time""
""fullscreenenter"",""1"",""2733""
","
","","","","","","624.6999999999534","images/tree5.png","","","learning","images/plants_choice3.png","images/plants_choice1.png","images/plants_choice2.png","[2,0,1]","2","0","2","images/plants_choice1.png","1","plants","","tree","2","0"
"html-keyboard-response","142","598295","0.0-9.0-2.0-0.28","1837","2","2","""event"",""trial"",""time""
""fullscreenenter"",""1"",""2733""
","
","
","""event"",""trial"",""time""
""fullscreenenter"",""1"",""2733""
","
","","","","","","null","<div style=""font-size:60px;"">+</div>","null","","fixation","","","","","","","","","","","","","",""
"learning-trial","143","602301","0.0-9.0-2.0-1.28","1837","2","2","""event"",""trial"",""time""
""fullscreenenter"",""1"",""2733""
","
","
","""event"",""trial"",""time""
""fullscreenenter"",""1"",""2733""
","
","","","","","","258.0999999999767","images/tree4.png","","","learning","images/plants_choice3.png","images/plants_choice2.png","images/plants_choice1.png","[2,1,0]","1","1","1","images/plants_choice3.png","-1","plants","","tree","2","0"
"html-keyboard-response","144","602806","0.0-9.0-2.0-0.29","1837","2","2","""event"",""trial"",""time""
""fullscreenenter"",""1"",""2733""
","
","
","""event"",""trial"",""time""
""fullscreenenter"",""1"",""2733""
","
","","","","","","null","<div style=""font-size:60px;"">+</div>","null","","fixation","","","","","","","","","","","","","",""
"learning-trial","145","606811","0.0-9.0-2.0-1.29","1837","2","2","""event"",""trial"",""time""
""fullscreenenter"",""1"",""2733""
","
","
","""event"",""trial"",""time""
""fullscreenenter"",""1"",""2733""
","
","","","","","","355.9000000000233","images/tree5.png","","","learning","images/plants_choice1.png","images/plants_choice3.png","images/plants_choice2.png","[0,2,1]","2","1","2","images/plants_choice3.png","1","plants","","tree","2","0"
"html-keyboard-response","146","607316","0.0-9.0-2.0-0.30","1837","2","2","""event"",""trial"",""time""
""fullscreenenter"",""1"",""2733""
","
","
","""event"",""trial"",""time""
""fullscreenenter"",""1"",""2733""
","
","","","","","","null","<div style=""font-size:60px;"">+</div>","null","","fixation","","","","","","","","","","","","","",""
"learning-trial","147","611322","0.0-9.0-2.0-1.30","1837","2","2","""event"",""trial"",""time""
""fullscreenenter"",""1"",""2733""
","
","
","""event"",""trial"",""time""
""fullscreenenter"",""1"",""2733""
","
","","","","","","284.9000000000233","images/bush3.png","","","learning","images/plants_choice2.png","images/plants_choice3.png","images/plants_choice1.png","[1,2,0]","2","1","1","images/plants_choice2.png","-1","plants","","bush","2","0"
"html-keyboard-response","148","611827","0.0-9.0-2.0-0.31","1837","2","2","""event"",""trial"",""time""
""fullscreenenter"",""1"",""2733""
","
","
","""event"",""trial"",""time""
""fullscreenenter"",""1"",""2733""
","
","","","","","","null","<div style=""font-size:60px;"">+</div>","null","","fixation","","","","","","","","","","","","","",""
"learning-trial","149","615832","0.0-9.0-2.0-1.31","1837","2","2","""event"",""trial"",""time""
""fullscreenenter"",""1"",""2733""
","
","
","""event"",""trial"",""time""
""fullscreenenter"",""1"",""2733""
","
","","","","","","262.9000000000233","images/bush5.png","","","learning","images/plants_choice2.png","images/plants_choice3.png","images/plants_choice1.png","[1,2,0]","1","0","3","images/plants_choice1.png","-1","plants","","bush","2","0"
"html-keyboard-response","150","616337","0.0-9.0-2.0-0.32","1837","2","2","""event"",""trial"",""time""
""fullscreenenter"",""1"",""2733""
","
","
","""event"",""trial"",""time""
""fullscreenenter"",""1"",""2733""
","
","","","","","","null","<div style=""font-size:60px;"">+</div>","null","","fixation","","","","","","","","","","","","","",""
"learning-trial","151","620343","0.0-9.0-2.0-1.32","1837","2","2","""event"",""trial"",""time""
""fullscreenenter"",""1"",""2733""
","
","
","""event"",""trial"",""time""
""fullscreenenter"",""1"",""2733""
","
","","","","","","392","images/flower1.png","","","learning","images/plants_choice3.png","images/plants_choice2.png","images/plants_choice1.png","[2,1,0]","2","0","2","images/plants_choice2.png","-1","plants","","flower","2","0"
"html-keyboard-response","152","620848","0.0-9.0-2.0-0.33","1837","2","2","""event"",""trial"",""time""
""fullscreenenter"",""1"",""2733""
","
","
","""event"",""trial"",""time""
""fullscreenenter"",""1"",""2733""
","
","","","","","","null","<div style=""font-size:60px;"">+</div>","null","","fixation","","","","","","","","","","","","","",""
"learning-trial","153","624853","0.0-9.0-2.0-1.33","1837","2","2","""event"",""trial"",""time""
""fullscreenenter"",""1"",""2733""
","
","
","""event"",""trial"",""time""
""fullscreenenter"",""1"",""2733""
","
","","","","","","361.69999999995343","images/tree3.png","","","learning","images/plants_choice3.png","images/plants_choice1.png","images/plants_choice2.png","[2,0,1]","0","1","1","images/plants_choice3.png","1","plants","","tree","2","0"
"html-keyboard-response","154","625358","0.0-9.0-2.0-0.34","1837","2","2","""event"",""trial"",""time""
""fullscreenenter"",""1"",""2733""
","
","
","""event"",""trial"",""time""
""fullscreenenter"",""1"",""2733""
","
","","","","","","null","<div style=""font-size:60px;"">+</div>","null","","fixation","","","","","","","","","","","","","",""
"learning-trial","155","629366","0.0-9.0-2.0-1.34","1837","2","2","""event"",""trial"",""time""
""fullscreenenter"",""1"",""2733""
","
","
","""event"",""trial"",""time""
""fullscreenenter"",""1"",""2733""
","
","","","","","","811.1999999999534","images/bush5.png","","","learning","images/plants_choice3.png","images/plants_choice1.png","images/plants_choice2.png","[2,0,1]","1","2","2","images/plants_choice1.png","-1","plants","","bush","2","0"
"html-keyboard-response","156","629871","0.0-9.0-2.0-0.35","1837","2","2","""event"",""trial"",""time""
""fullscreenenter"",""1"",""2733""
","
","
","""event"",""trial"",""time""
""fullscreenenter"",""1"",""2733""
","
","","","","","","null","<div style=""font-size:60px;"">+</div>","null","","fixation","","","","","","","","","","","","","",""
"learning-trial","157","633816","0.0-9.0-2.0-1.35","1837","2","2","""event"",""trial"",""time""
""fullscreenenter"",""1"",""2733""
","
","
","""event"",""trial"",""time""
""fullscreenenter"",""1"",""2733""
","
","","","","","","291","images/tree3.png","","","learning","images/plants_choice3.png","images/plants_choice1.png","images/plants_choice2.png","[2,0,1]","0","1","1","images/plants_choice3.png","1","plants","","tree","2","0"
"html-keyboard-response","158","634321","0.0-9.0-2.0-0.36","1837","2","2","""event"",""trial"",""time""
""fullscreenenter"",""1"",""2733""
","
","
","""event"",""trial"",""time""
""fullscreenenter"",""1"",""2733""
","
","","","","","","null","<div style=""font-size:60px;"">+</div>","null","","fixation","","","","","","","","","","","","","",""
"learning-trial","159","638327","0.0-9.0-2.0-1.36","1837","2","2","""event"",""trial"",""time""
""fullscreenenter"",""1"",""2733""
","
","
","""event"",""trial"",""time""
""fullscreenenter"",""1"",""2733""
","
","","","","","","1038.1999999999534","images/tree5.png","","","learning","images/plants_choice1.png","images/plants_choice3.png","images/plants_choice2.png","[0,2,1]","2","1","2","images/plants_choice3.png","1","plants","","tree","2","0"
"html-keyboard-response","160","638832","0.0-9.0-2.0-0.37","1837","2","2","""event"",""trial"",""time""
""fullscreenenter"",""1"",""2733""
","
","
","""event"",""trial"",""time""
""fullscreenenter"",""1"",""2733""
","
","","","","","","null","<div style=""font-size:60px;"">+</div>","null","","fixation","","","","","","","","","","","","","",""
"learning-trial","161","642837","0.0-9.0-2.0-1.37","1837","2","2","""event"",""trial"",""time""
""fullscreenenter"",""1"",""2733""
","
","
","""event"",""trial"",""time""
""fullscreenenter"",""1"",""2733""
","
","","","","","","999.5999999999767","images/flower2.png","","","learning","images/plants_choice1.png","images/plants_choice2.png","images/plants_choice3.png","[0,1,2]","0","0","1","images/plants_choice1.png","1","plants","","flower","2","0"
"html-keyboard-response","162","643341","0.0-9.0-2.0-0.38","1837","2","2","""event"",""trial"",""time""
""fullscreenenter"",""1"",""2733""
","
","
","""event"",""trial"",""time""
""fullscreenenter"",""1"",""2733""
","
","","","","","","null","<div style=""font-size:60px;"">+</div>","null","","fixation","","","","","","","","","","","","","",""
"learning-trial","163","647347","0.0-9.0-2.0-1.38","1837","2","2","""event"",""trial"",""time""
""fullscreenenter"",""1"",""2733""
","
","
","""event"",""trial"",""time""
""fullscreenenter"",""1"",""2733""
","
","","","","","","610.3999999999069","images/bush4.png","","","learning","images/plants_choice3.png","images/plants_choice2.png","images/plants_choice1.png","[2,1,0]","0","2","1","images/plants_choice3.png","-1","plants","","bush","2","0"
"html-keyboard-response","164","647852","0.0-9.0-2.0-0.39","1837","2","2","""event"",""trial"",""time""
""fullscreenenter"",""1"",""2733""
","
","
","""event"",""trial"",""time""
""fullscreenenter"",""1"",""2733""
","
","","","","","","null","<div style=""font-size:60px;"">+</div>","null","","fixation","","","","","","","","","","","","","",""
"learning-trial","165","651857","0.0-9.0-2.0-1.39","1837","2","2","""event"",""trial"",""time""
""fullscreenenter"",""1"",""2733""
","
","
","""event"",""trial"",""time""
""fullscreenenter"",""1"",""2733""
","
","","","","","","346.79999999993015","images/tree4.png","","","learning","images/plants_choice1.png","images/plants_choice2.png","images/plants_choice3.png","[0,1,2]","1","1","2","images/plants_choice2.png","-1","plants","","tree","2","0"
"html-keyboard-response","166","652362","0.0-9.0-2.0-0.40","1837","2","2","""event"",""trial"",""time""
""fullscreenenter"",""1"",""2733""
","
","
","""event"",""trial"",""time""
""fullscreenenter"",""1"",""2733""
","
","","","","","","null","<div style=""font-size:60px;"">+</div>","null","","fixation","","","","","","","","","","","","","",""
"learning-trial","167","656368","0.0-9.0-2.0-1.40","1837","2","2","""event"",""trial"",""time""
""fullscreenenter"",""1"",""2733""
","
","
","""event"",""trial"",""time""
""fullscreenenter"",""1"",""2733""
","
","","","","","","1220.3999999999069","images/flower5.png","","","learning","images/plants_choice3.png","images/plants_choice2.png","images/plants_choice1.png","[2,1,0]","1","1","1","images/plants_choice3.png","-1","plants","","flower","2","0"
"html-keyboard-response","168","656873","0.0-9.0-2.0-0.41","1837","2","2","""event"",""trial"",""time""
""fullscreenenter"",""1"",""2733""
","
","
","""event"",""trial"",""time""
""fullscreenenter"",""1"",""2733""
","
","","","","","","null","<div style=""font-size:60px;"">+</div>","null","","fixation","","","","","","","","","","","","","",""
"learning-trial","169","660878","0.0-9.0-2.0-1.41","1837","2","2","""event"",""trial"",""time""
""fullscreenenter"",""1"",""2733""
","
","
","""event"",""trial"",""time""
""fullscreenenter"",""1"",""2733""
","
","","","","","","998.1000000000931","images/tree3.png","","","learning","images/plants_choice3.png","images/plants_choice2.png","images/plants_choice1.png","[2,1,0]","0","2","1","images/plants_choice3.png","-1","plants","","tree","2","0"
"html-keyboard-response","170","661383","0.0-9.0-2.0-0.42","1837","2","2","""event"",""trial"",""time""
""fullscreenenter"",""1"",""2733""
","
","
","""event"",""trial"",""time""
""fullscreenenter"",""1"",""2733""
","
","","","","","","null","<div style=""font-size:60px;"">+</div>","null","","fixation","","","","","","","","","","","","","",""
"learning-trial","171","665388","0.0-9.0-2.0-1.42","1837","2","2","""event"",""trial"",""time""
""fullscreenenter"",""1"",""2733""
","
","
","""event"",""trial"",""time""
""fullscreenenter"",""1"",""2733""
","
","","","","","","1095.4000000000233","images/flower1.png","","","learning","images/plants_choice2.png","images/plants_choice3.png","images/plants_choice1.png","[1,2,0]","2","1","1","images/plants_choice2.png","1","plants","","flower","2","0"
"html-keyboard-response","172","665893","0.0-9.0-2.0-0.43","1837","2","2","""event"",""trial"",""time""
""fullscreenenter"",""1"",""2733""
","
","
","""event"",""trial"",""time""
""fullscreenenter"",""1"",""2733""
","
","","","","","","null","<div style=""font-size:60px;"">+</div>","null","","fixation","","","","","","","","","","","","","",""
"learning-trial","173","669898","0.0-9.0-2.0-1.43","1837","2","2","""event"",""trial"",""time""
""fullscreenenter"",""1"",""2733""
","
","
","""event"",""trial"",""time""
""fullscreenenter"",""1"",""2733""
","
","","","","","","1025","images/tree3.png","","","learning","images/plants_choice3.png","images/plants_choice1.png","images/plants_choice2.png","[2,0,1]","0","1","2","images/plants_choice1.png","1","plants","","tree","2","0"
"html-keyboard-response","174","670403","0.0-9.0-2.0-0.44","1837","2","2","""event"",""trial"",""time""
""fullscreenenter"",""1"",""2733""
","
","
","""event"",""trial"",""time""
""fullscreenenter"",""1"",""2733""
","
","","","","","","null","<div style=""font-size:60px;"">+</div>","null","","fixation","","","","","","","","","","","","","",""
"learning-trial","175","674409","0.0-9.0-2.0-1.44","1837","2","2","""event"",""trial"",""time""
""fullscreenenter"",""1"",""2733""
","
","
","""event"",""trial"",""time""
""fullscreenenter"",""1"",""2733""
","
","","","","","","634.5999999999767","images/flower5.png","","","learning","images/plants_choice3.png","images/plants_choice2.png","images/plants_choice1.png","[2,1,0]","1","1","1","images/plants_choice3.png","-1","plants","","flower","2","0"
"html-keyboard-response","176","674913","0.0-9.0-2.0-0.45","1837","2","2","""event"",""trial"",""time""
""fullscreenenter"",""1"",""2733""
","
","
","""event"",""trial"",""time""
""fullscreenenter"",""1"",""2733""
","
","","","","","","null","<div style=""font-size:60px;"">+</div>","null","","fixation","","","","","","","","","","","","","",""
"learning-trial","177","678919","0.0-9.0-2.0-1.45","1837","2","2","""event"",""trial"",""time""
""fullscreenenter"",""1"",""2733""
","
","
","""event"",""trial"",""time""
""fullscreenenter"",""1"",""2733""
","
","","","","","","555.9000000000233","images/flower1.png","","","learning","images/plants_choice3.png","images/plants_choice2.png","images/plants_choice1.png","[2,1,0]","2","0","3","images/plants_choice1.png","-1","plants","","flower","2","0"
"html-keyboard-response","178","679424","0.0-9.0-2.0-0.46","1837","2","2","""event"",""trial"",""time""
""fullscreenenter"",""1"",""2733""
","
","
","""event"",""trial"",""time""
""fullscreenenter"",""1"",""2733""
","
","","","","","","null","<div style=""font-size:60px;"">+</div>","null","","fixation","","","","","","","","","","","","","",""
"learning-trial","179","683429","0.0-9.0-2.0-1.46","1837","2","2","""event"",""trial"",""time""
""fullscreenenter"",""1"",""2733""
","
","
","""event"",""trial"",""time""
""fullscreenenter"",""1"",""2733""
","
","","","","","","341.5","images/flower2.png","","","learning","images/plants_choice1.png","images/plants_choice2.png","images/plants_choice3.png","[0,1,2]","0","0","2","images/plants_choice2.png","-1","plants","","flower","2","0"
"html-keyboard-response","180","683933","0.0-9.0-2.0-0.47","1837","2","2","""event"",""trial"",""time""
""fullscreenenter"",""1"",""2733""
","
","
","""event"",""trial"",""time""
""fullscreenenter"",""1"",""2733""
","
","","","","","","null","<div style=""font-size:60px;"">+</div>","null","","fixation","","","","","","","","","","","","","",""
"learning-trial","181","687939","0.0-9.0-2.0-1.47","1837","2","2","""event"",""trial"",""time""
""fullscreenenter"",""1"",""2733""
","
","
","""event"",""trial"",""time""
""fullscreenenter"",""1"",""2733""
","
","","","","","","271.89999999990687","images/tree3.png","","","learning","images/plants_choice1.png","images/plants_choice3.png","images/plants_choice2.png","[0,2,1]","0","0","1","images/plants_choice1.png","1","plants","","tree","2","0"
"html-keyboard-response","182","688444","0.0-9.0-2.0-0.48","1837","2","2","""event"",""trial"",""time""
""fullscreenenter"",""1"",""2733""
","
","
","""event"",""trial"",""time""
""fullscreenenter"",""1"",""2733""
","
","","","","","","null","<div style=""font-size:60px;"">+</div>","null","","fixation","","","","","","","","","","","","","",""
"learning-trial","183","692450","0.0-9.0-2.0-1.48","1837","2","2","""event"",""trial"",""time""
""fullscreenenter"",""1"",""2733""
","
","
","""event"",""trial"",""time""
""fullscreenenter"",""1"",""2733""
","
","","","","","","400.5999999999767","images/bush4.png","","","learning","images/plants_choice2.png","images/plants_choice3.png","images/plants_choice1.png","[1,2,0]","0","2","2","images/plants_choice3.png","-1","plants","","bush","2","0"
"html-keyboard-response","184","692954","0.0-9.0-2.0-0.49","1837","2","2","""event"",""trial"",""time""
""fullscreenenter"",""1"",""2733""
","
","
","""event"",""trial"",""time""
""fullscreenenter"",""1"",""2733""
","
","","","","","","null","<div style=""font-size:60px;"">+</div>","null","","fixation","","","","","","","","","","","","","",""
"learning-trial","185","696960","0.0-9.0-2.0-1.49","1837","2","2","""event"",""trial"",""time""
""fullscreenenter"",""1"",""2733""
","
","
","""event"",""trial"",""time""
""fullscreenenter"",""1"",""2733""
","
","","","","","","313.9000000000233","images/tree4.png","","","learning","images/plants_choice1.png","images/plants_choice2.png","images/plants_choice3.png","[0,1,2]","1","1","1","images/plants_choice1.png","-1","plants","","tree","2","0"
"html-keyboard-response","186","697465","0.0-9.0-2.0-0.50","1837","2","2","""event"",""trial"",""time""
""fullscreenenter"",""1"",""2733""
","
","
","""event"",""trial"",""time""
""fullscreenenter"",""1"",""2733""
","
","","","","","","null","<div style=""font-size:60px;"">+</div>","null","","fixation","","","","","","","","","","","","","",""
"learning-trial","187","701470","0.0-9.0-2.0-1.50","1837","2","2","""event"",""trial"",""time""
""fullscreenenter"",""1"",""2733""
","
","
","""event"",""trial"",""time""
""fullscreenenter"",""1"",""2733""
","
","","","","","","1091.5999999999767","images/flower1.png","","","learning","images/plants_choice3.png","images/plants_choice2.png","images/plants_choice1.png","[2,1,0]","2","0","2","images/plants_choice2.png","-1","plants","","flower","2","0"
"html-keyboard-response","188","701975","0.0-9.0-2.0-0.51","1837","2","2","""event"",""trial"",""time""
""fullscreenenter"",""1"",""2733""
","
","
","""event"",""trial"",""time""
""fullscreenenter"",""1"",""2733""
","
","","","","","","null","<div style=""font-size:60px;"">+</div>","null","","fixation","","","","","","","","","","","","","",""
"learning-trial","189","705980","0.0-9.0-2.0-1.51","1837","2","2","""event"",""trial"",""time""
""fullscreenenter"",""1"",""2733""
","
","
","""event"",""trial"",""time""
""fullscreenenter"",""1"",""2733""
","
","","","","","","876.9000000000233","images/tree4.png","","","learning","images/plants_choice1.png","images/plants_choice2.png","images/plants_choice3.png","[0,1,2]","1","1","3","images/plants_choice3.png","-1","plants","","tree","2","0"
"html-keyboard-response","190","706485","0.0-9.0-2.0-0.52","1837","2","2","""event"",""trial"",""time""
""fullscreenenter"",""1"",""2733""
","
","
","""event"",""trial"",""time""
""fullscreenenter"",""1"",""2733""
","
","","","","","","null","<div style=""font-size:60px;"">+</div>","null","","fixation","","","","","","","","","","","","","",""
"learning-trial","191","710490","0.0-9.0-2.0-1.52","1837","2","2","""event"",""trial"",""time""
""fullscreenenter"",""1"",""2733""
","
","
","""event"",""trial"",""time""
""fullscreenenter"",""1"",""2733""
","
","","","","","","470.4000000000233","images/bush3.png","","","learning","images/plants_choice1.png","images/plants_choice3.png","images/plants_choice2.png","[0,2,1]","2","1","3","images/plants_choice2.png","-1","plants","","bush","2","0"
"html-keyboard-response","192","710995","0.0-9.0-2.0-0.53","1837","2","2","""event"",""trial"",""time""
""fullscreenenter"",""1"",""2733""
","
","
","""event"",""trial"",""time""
""fullscreenenter"",""1"",""2733""
","
","","","","","","null","<div style=""font-size:60px;"">+</div>","null","","fixation","","","","","","","","","","","","","",""
"learning-trial","193","715001","0.0-9.0-2.0-1.53","1837","2","2","""event"",""trial"",""time""
""fullscreenenter"",""1"",""2733""
","
","
","""event"",""trial"",""time""
""fullscreenenter"",""1"",""2733""
","
","","","","","","530.0999999998603","images/tree3.png","","","learning","images/plants_choice1.png","images/plants_choice2.png","images/plants_choice3.png","[0,1,2]","0","0","1","images/plants_choice1.png","1","plants","","tree","2","0"
"html-keyboard-response","194","715506","0.0-9.0-2.0-0.54","1837","2","2","""event"",""trial"",""time""
""fullscreenenter"",""1"",""2733""
","
","
","""event"",""trial"",""time""
""fullscreenenter"",""1"",""2733""
","
","","","","","","null","<div style=""font-size:60px;"">+</div>","null","","fixation","","","","","","","","","","","","","",""
"learning-trial","195","719511","0.0-9.0-2.0-1.54","1837","2","2","""event"",""trial"",""time""
""fullscreenenter"",""1"",""2733""
","
","
","""event"",""trial"",""time""
""fullscreenenter"",""1"",""2733""
","
","","","","","","1225.5999999998603","images/bush3.png","","","learning","images/plants_choice1.png","images/plants_choice2.png","images/plants_choice3.png","[0,1,2]","2","2","2","images/plants_choice2.png","-1","plants","","bush","2","0"
"html-keyboard-response","196","720016","0.0-9.0-2.0-0.55","1837","2","2","""event"",""trial"",""time""
""fullscreenenter"",""1"",""2733""
","
","
","""event"",""trial"",""time""
""fullscreenenter"",""1"",""2733""
","
","","","","","","null","<div style=""font-size:60px;"">+</div>","null","","fixation","","","","","","","","","","","","","",""
"learning-trial","197","724021","0.0-9.0-2.0-1.55","1837","2","2","""event"",""trial"",""time""
""fullscreenenter"",""1"",""2733""
","
","
","""event"",""trial"",""time""
""fullscreenenter"",""1"",""2733""
","
","","","","","","571.1000000000931","images/flower2.png","","","learning","images/plants_choice1.png","images/plants_choice2.png","images/plants_choice3.png","[0,1,2]","0","0","1","images/plants_choice1.png","1","plants","","flower","2","0"
"html-keyboard-response","198","724526","0.0-9.0-2.0-0.56","1837","2","2","""event"",""trial"",""time""
""fullscreenenter"",""1"",""2733""
","
","
","""event"",""trial"",""time""
""fullscreenenter"",""1"",""2733""
","
","","","","","","null","<div style=""font-size:60px;"">+</div>","null","","fixation","","","","","","","","","","","","","",""
"learning-trial","199","728531","0.0-9.0-2.0-1.56","1837","2","2","""event"",""trial"",""time""
""fullscreenenter"",""1"",""2733""
","
","
","""event"",""trial"",""time""
""fullscreenenter"",""1"",""2733""
","
","","","","","","252.39999999990687","images/flower2.png","","","learning","images/plants_choice1.png","images/plants_choice3.png","images/plants_choice2.png","[0,2,1]","0","0","1","images/plants_choice1.png","1","plants","","flower","2","0"
"html-keyboard-response","200","729036","0.0-9.0-2.0-0.57","1837","2","2","""event"",""trial"",""time""
""fullscreenenter"",""1"",""2733""
","
","
","""event"",""trial"",""time""
""fullscreenenter"",""1"",""2733""
","
","","","","","","null","<div style=""font-size:60px;"">+</div>","null","","fixation","","","","","","","","","","","","","",""
"learning-trial","201","733042","0.0-9.0-2.0-1.57","1837","2","2","""event"",""trial"",""time""
""fullscreenenter"",""1"",""2733""
","
","
","""event"",""trial"",""time""
""fullscreenenter"",""1"",""2733""
","
","","","","","","974.8999999999069","images/tree5.png","","","learning","images/plants_choice1.png","images/plants_choice2.png","images/plants_choice3.png","[0,1,2]","2","2","2","images/plants_choice2.png","-1","plants","","tree","2","0"
"html-keyboard-response","202","733547","0.0-9.0-2.0-0.58","1837","2","2","""event"",""trial"",""time""
""fullscreenenter"",""1"",""2733""
","
","
","""event"",""trial"",""time""
""fullscreenenter"",""1"",""2733""
","
","","","","","","null","<div style=""font-size:60px;"">+</div>","null","","fixation","","","","","","","","","","","","","",""
"learning-trial","203","737552","0.0-9.0-2.0-1.58","1837","2","2","""event"",""trial"",""time""
""fullscreenenter"",""1"",""2733""
","
","
","""event"",""trial"",""time""
""fullscreenenter"",""1"",""2733""
","
","","","","","","1087.7000000001863","images/tree4.png","","","learning","images/plants_choice2.png","images/plants_choice3.png","images/plants_choice1.png","[1,2,0]","1","0","2","images/plants_choice3.png","-1","plants","","tree","2","0"
"html-keyboard-response","204","738057","0.0-9.0-2.0-0.59","1837","2","2","""event"",""trial"",""time""
""fullscreenenter"",""1"",""2733""
","
","
","""event"",""trial"",""time""
""fullscreenenter"",""1"",""2733""
","
","","","","","","null","<div style=""font-size:60px;"">+</div>","null","","fixation","","","","","","","","","","","","","",""
"learning-trial","205","742062","0.0-9.0-2.0-1.59","1837","2","2","""event"",""trial"",""time""
""fullscreenenter"",""1"",""2733""
","
","
","""event"",""trial"",""time""
""fullscreenenter"",""1"",""2733""
","
","","","","","","1081.6000000000931","images/bush4.png","","","learning","images/plants_choice3.png","images/plants_choice1.png","images/plants_choice2.png","[2,0,1]","0","1","1","images/plants_choice3.png","-1","plants","","bush","2","0"
"html-keyboard-response","206","742567","0.0-9.0-2.0-0.60","1837","2","2","""event"",""trial"",""time""
""fullscreenenter"",""1"",""2733""
","
","
","""event"",""trial"",""time""
""fullscreenenter"",""1"",""2733""
","
","","","","","","null","<div style=""font-size:60px;"">+</div>","null","","fixation","","","","","","","","","","","","","",""
"learning-trial","207","746572","0.0-9.0-2.0-1.60","1837","2","2","""event"",""trial"",""time""
""fullscreenenter"",""1"",""2733""
","
","
","""event"",""trial"",""time""
""fullscreenenter"",""1"",""2733""
","
","","","","","","643","images/flower2.png","","","learning","images/plants_choice3.png","images/plants_choice1.png","images/plants_choice2.png","[2,0,1]","0","1","1","images/plants_choice3.png","-1","plants","","flower","2","0"
"html-keyboard-response","208","747077","0.0-9.0-2.0-0.61","1837","2","2","""event"",""trial"",""time""
""fullscreenenter"",""1"",""2733""
","
","
","""event"",""trial"",""time""
""fullscreenenter"",""1"",""2733""
","
","","","","","","null","<div style=""font-size:60px;"">+</div>","null","","fixation","","","","","","","","","","","","","",""
"learning-trial","209","751083","0.0-9.0-2.0-1.61","1837","2","2","""event"",""trial"",""time""
""fullscreenenter"",""1"",""2733""
","
","
","""event"",""trial"",""time""
""fullscreenenter"",""1"",""2733""
","
","","","","","","684.1999999999534","images/bush4.png","","","learning","images/plants_choice1.png","images/plants_choice2.png","images/plants_choice3.png","[0,1,2]","0","0","1","images/plants_choice1.png","1","plants","","bush","2","0"
"html-keyboard-response","210","751588","0.0-9.0-2.0-0.62","1837","2","2","""event"",""trial"",""time""
""fullscreenenter"",""1"",""2733""
","
","
","""event"",""trial"",""time""
""fullscreenenter"",""1"",""2733""
","
","","","","","","null","<div style=""font-size:60px;"">+</div>","null","","fixation","","","","","","","","","","","","","",""
"learning-trial","211","755593","0.0-9.0-2.0-1.62","1837","2","2","""event"",""trial"",""time""
""fullscreenenter"",""1"",""2733""
","
","
","""event"",""trial"",""time""
""fullscreenenter"",""1"",""2733""
","
","","","","","","550.1000000000931","images/flower1.png","","","learning","images/plants_choice1.png","images/plants_choice2.png","images/plants_choice3.png","[0,1,2]","2","2","1","images/plants_choice1.png","-1","plants","","flower","2","0"
"html-keyboard-response","212","756098","0.0-9.0-2.0-0.63","1837","2","2","""event"",""trial"",""time""
""fullscreenenter"",""1"",""2733""
","
","
","""event"",""trial"",""time""
""fullscreenenter"",""1"",""2733""
","
","","","","","","null","<div style=""font-size:60px;"">+</div>","null","","fixation","","","","","","","","","","","","","",""
"learning-trial","213","760103","0.0-9.0-2.0-1.63","1837","2","2","""event"",""trial"",""time""
""fullscreenenter"",""1"",""2733""
","
","
","""event"",""trial"",""time""
""fullscreenenter"",""1"",""2733""
","
","","","","","","287.19999999995343","images/flower5.png","","","learning","images/plants_choice1.png","images/plants_choice2.png","images/plants_choice3.png","[0,1,2]","1","1","1","images/plants_choice1.png","-1","plants","","flower","2","0"
"html-keyboard-response","214","760608","0.0-9.0-2.0-0.64","1837","2","2","""event"",""trial"",""time""
""fullscreenenter"",""1"",""2733""
","
","
","""event"",""trial"",""time""
""fullscreenenter"",""1"",""2733""
","
","","","","","","null","<div style=""font-size:60px;"">+</div>","null","","fixation","","","","","","","","","","","","","",""
"learning-trial","215","764613","0.0-9.0-2.0-1.64","1837","2","2","""event"",""trial"",""time""
""fullscreenenter"",""1"",""2733""
","
","
","""event"",""trial"",""time""
""fullscreenenter"",""1"",""2733""
","
","","","","","","1617.1999999999534","images/flower2.png","","","learning","images/plants_choice3.png","images/plants_choice1.png","images/plants_choice2.png","[2,0,1]","0","1","1","images/plants_choice3.png","-1","plants","","flower","2","0"
"html-keyboard-response","216","765118","0.0-9.0-2.0-0.65","1837","2","2","""event"",""trial"",""time""
""fullscreenenter"",""1"",""2733""
","
","
","""event"",""trial"",""time""
""fullscreenenter"",""1"",""2733""
","
","","","","","","null","<div style=""font-size:60px;"">+</div>","null","","fixation","","","","","","","","","","","","","",""
"learning-trial","217","769123","0.0-9.0-2.0-1.65","1837","2","2","""event"",""trial"",""time""
""fullscreenenter"",""1"",""2733""
","
","
","""event"",""trial"",""time""
""fullscreenenter"",""1"",""2733""
","
","","","","","","1130.5","images/flower1.png","","","learning","images/plants_choice3.png","images/plants_choice1.png","images/plants_choice2.png","[2,0,1]","2","0","2","images/plants_choice1.png","-1","plants","","flower","2","0"
"html-keyboard-response","218","769628","0.0-9.0-2.0-0.66","1837","2","2","""event"",""trial"",""time""
""fullscreenenter"",""1"",""2733""
","
","
","""event"",""trial"",""time""
""fullscreenenter"",""1"",""2733""
","
","","","","","","null","<div style=""font-size:60px;"">+</div>","null","","fixation","","","","","","","","","","","","","",""
"learning-trial","219","773634","0.0-9.0-2.0-1.66","1837","2","2","""event"",""trial"",""time""
""fullscreenenter"",""1"",""2733""
","
","
","""event"",""trial"",""time""
""fullscreenenter"",""1"",""2733""
","
","","","","","","459.9000000001397","images/bush3.png","","","learning","images/plants_choice2.png","images/plants_choice1.png","images/plants_choice3.png","[1,0,2]","2","2","1","images/plants_choice2.png","-1","plants","","bush","2","0"
"html-keyboard-response","220","774139","0.0-9.0-2.0-0.67","1837","2","2","""event"",""trial"",""time""
""fullscreenenter"",""1"",""2733""
","
","
","""event"",""trial"",""time""
""fullscreenenter"",""1"",""2733""
","
","","","","","","null","<div style=""font-size:60px;"">+</div>","null","","fixation","","","","","","","","","","","","","",""
"learning-trial","221","778144","0.0-9.0-2.0-1.67","1837","2","2","""event"",""trial"",""time""
""fullscreenenter"",""1"",""2733""
","
","
","""event"",""trial"",""time""
""fullscreenenter"",""1"",""2733""
","
","","","","","","821.6999999999534","images/tree5.png","","","learning","images/plants_choice2.png","images/plants_choice1.png","images/plants_choice3.png","[1,0,2]","2","2","2","images/plants_choice1.png","-1","plants","","tree","2","0"
"html-keyboard-response","222","778649","0.0-9.0-2.0-0.68","1837","2","2","""event"",""trial"",""time""
""fullscreenenter"",""1"",""2733""
","
","
","""event"",""trial"",""time""
""fullscreenenter"",""1"",""2733""
","
","","","","","","null","<div style=""font-size:60px;"">+</div>","null","","fixation","","","","","","","","","","","","","",""
"learning-trial","223","782654","0.0-9.0-2.0-1.68","1837","2","2","""event"",""trial"",""time""
""fullscreenenter"",""1"",""2733""
","
","
","""event"",""trial"",""time""
""fullscreenenter"",""1"",""2733""
","
","","","","","","623","images/bush3.png","","","learning","images/plants_choice2.png","images/plants_choice3.png","images/plants_choice1.png","[1,2,0]","2","1","1","images/plants_choice2.png","-1","plants","","bush","2","0"
"html-keyboard-response","224","783158","0.0-9.0-2.0-0.69","1837","2","2","""event"",""trial"",""time""
""fullscreenenter"",""1"",""2733""
","
","
","""event"",""trial"",""time""
""fullscreenenter"",""1"",""2733""
","
","","","","","","null","<div style=""font-size:60px;"">+</div>","null","","fixation","","","","","","","","","","","","","",""
"learning-trial","225","787164","0.0-9.0-2.0-1.69","1837","2","2","""event"",""trial"",""time""
""fullscreenenter"",""1"",""2733""
","
","
","""event"",""trial"",""time""
""fullscreenenter"",""1"",""2733""
","
","","","","","","505.0999999998603","images/tree4.png","","","learning","images/plants_choice2.png","images/plants_choice3.png","images/plants_choice1.png","[1,2,0]","1","0","1","images/plants_choice2.png","1","plants","","tree","2","0"
"html-keyboard-response","226","787669","0.0-9.0-2.0-0.70","1837","2","2","""event"",""trial"",""time""
""fullscreenenter"",""1"",""2733""
","
","
","""event"",""trial"",""time""
""fullscreenenter"",""1"",""2733""
","
","","","","","","null","<div style=""font-size:60px;"">+</div>","null","","fixation","","","","","","","","","","","","","",""
"learning-trial","227","791675","0.0-9.0-2.0-1.70","1837","2","2","""event"",""trial"",""time""
""fullscreenenter"",""1"",""2733""
","
","
","""event"",""trial"",""time""
""fullscreenenter"",""1"",""2733""
","
","","","","","","1058.2999999998137","images/flower5.png","","","learning","images/plants_choice2.png","images/plants_choice1.png","images/plants_choice3.png","[1,0,2]","1","0","1","images/plants_choice2.png","1","plants","","flower","2","0"
"html-keyboard-response","228","792179","0.0-9.0-2.0-0.71","1837","2","2","""event"",""trial"",""time""
""fullscreenenter"",""1"",""2733""
","
","
","""event"",""trial"",""time""
""fullscreenenter"",""1"",""2733""
","
","","","","","","null","<div style=""font-size:60px;"">+</div>","null","","fixation","","","","","","","","","","","","","",""
"learning-trial","229","796185","0.0-9.0-2.0-1.71","1837","2","2","""event"",""trial"",""time""
""fullscreenenter"",""1"",""2733""
","
","
","""event"",""trial"",""time""
""fullscreenenter"",""1"",""2733""
","
","","","","","","755.7000000001863","images/flower1.png","","","learning","images/plants_choice2.png","images/plants_choice1.png","images/plants_choice3.png","[1,0,2]","2","2","1","images/plants_choice2.png","-1","plants","","flower","2","0"
"html-button-response","230","824612","0.0-9.0-3.0","1837","2","2","""event"",""trial"",""time""
""fullscreenenter"",""1"",""2733""
","
","
","""event"",""trial"",""time""
""fullscreenenter"",""1"",""2733""
","
","","","","","","28427.699999999953","<p> You have completed the round! <p> In this round, you earned -24 points! </p>","0","","break","","","","","","","","","","","","","",""
"html-button-response","231","825429","0.0-10.0","1837","2","2","""event"",""trial"",""time""
""fullscreenenter"",""1"",""2733""
","
","
","""event"",""trial"",""time""
""fullscreenenter"",""1"",""2733""
","
","","","","","","816","<p> Now it's time to play another round. </p>","0","","transition_screen","","","","","","","","","","","","","",""
"preload","232","826823","0.0-11.0-0.0","1837","2","2","""event"",""trial"",""time""
""fullscreenenter"",""1"",""2733""
","
","
","""event"",""trial"",""time""
""fullscreenenter"",""1"",""2733""
","
","true","false","[]","[]","[]","","","","","","","","","","","","","","","","","","",""
"learning-instructions","233","835414","0.0-11.0-1.0-0.0","1837","2","2","""event"",""trial"",""time""
""fullscreenenter"",""1"",""2733""
","
","
","""event"",""trial"",""time""
""fullscreenenter"",""1"",""2733""
","
","","","","","","1971.1999999999534","<p> Your goal in this round is to buy different types of fruits. </p><p> You will try to purchase many fruits from different stores. </p></div>","","0","instructions","","","","","","","","","","","","","",""
"learning-instructions","234","846483","0.0-11.0-1.0-0.1","1837","2","2","""event"",""trial"",""time""
""fullscreenenter"",""1"",""2733""
","
","
","""event"",""trial"",""time""
""fullscreenenter"",""1"",""2733""
","
","","","","","","2574","<p> On each turn, you will see a picture of a fruit and three different stores.  </p><p> You need to select the store where you can buy that fruit.  </p>","","0","instructions","","","","","","","","","","","","","",""
"learning-instructions","235","857919","0.0-11.0-1.0-0.2","1837","2","2","""event"",""trial"",""time""
""fullscreenenter"",""1"",""2733""
","
","
","""event"",""trial"",""time""
""fullscreenenter"",""1"",""2733""
","
","","","","","","4060.2000000001863","<p> You can select the store on the left by pressing 1, the store in the middle by pressing 2, and the store on the right by pressing 3. </p><br><div class=""choice-instructions-grid""> <div class=""choice-option""><img src=""images/fruit_choice1.png"" class=""choice-option-img"" stage=""instructions"" position=""0"" ><div class=""choice-option-text""> Press ""1."" </div></div><div class=""choice-option""><img src=""images/fruit_choice2.png"" class=""choice-option-img"" stage=""instructions"" position=""1"" ><div class=""choice-option-text""> Press ""2."" </div></div><div class=""choice-option""><img src=""images/fruit_choice3.png"" class=""choice-option-img"" stage=""instructions"" position=""2"" ><div class=""choice-option-text""> Press ""3."" </div></div></div>","","0","instructions","","","","","","","","","","","","","",""
"learning-instructions","236","865188","0.0-11.0-1.0-0.3","1837","2","2","""event"",""trial"",""time""
