"trial_type","trial_index","time_elapsed","internal_node_id","subject_id","condition","task_version","interactions","blur_events","focus_events","fullscreenenter_events","fullscreenexit_events","success","timeout","failed_images","failed_audio","failed_video","rt","stimulus","response","button_pressed","task_part","left_choice","middle_choice","right_choice","choice_positions","correct_response","correct_position","key_press","option_selected","points","task_block","correct","stim_cat","block_condition","block_number"
"pavlovia","0","2","0.0-0.0","1545","1","2","""event"",""trial"",""time""
""fullscreenenter"",""1"",""2674""
","
","
","""event"",""trial"",""time""
""fullscreenenter"",""1"",""2674""
","
","","","","","","","","","","","","","","","","","","","","","","","",""
"fullscreen","1","3671","0.0-1.0","1545","1","2","""event"",""trial"",""time""
""fullscreenenter"",""1"",""2674""
","
","
","""event"",""trial"",""time""
""fullscreenenter"",""1"",""2674""
","
","true","","","","","","","","","","","","","","","","","","","","","","",""
"preload","2","31934","0.0-2.0","1545","1","2","""event"",""trial"",""time""
""fullscreenenter"",""1"",""2674""
","
","
","""event"",""trial"",""time""
""fullscreenenter"",""1"",""2674""
","
","true","false","[]","[]","[]","","","","","","","","","","","","","","","","","","",""
"audio-keyboard-response","3","35354","0.0-3.0","1545","1","2","""event"",""trial"",""time""
""fullscreenenter"",""1"",""2674""
","
","
","""event"",""trial"",""time""
""fullscreenenter"",""1"",""2674""
","
","","","","","","3413.333333333334","audio/beep_loop.wav"," ","","","","","","","","","","","","","","","",""
"audio-button-response","4","39950","0.0-4.0","1545","1","2","""event"",""trial"",""time""
""fullscreenenter"",""1"",""2674""
","
","
","""event"",""trial"",""time""
""fullscreenenter"",""1"",""2674""
","
","","","","","","4592","audio/shark.wav","4","","","","","","","","","","","","","","","",""
"audio-button-response","5","43069","0.0-5.0","1545","1","2","""event"",""trial"",""time""
""fullscreenenter"",""1"",""2674""
","
","
","""event"",""trial"",""time""
""fullscreenenter"",""1"",""2674""
","
","","","","","","2128","audio/turtle.wav","1","","","","","","","","","","","","","","","",""
"preload","6","62602","0.0-6.0","1545","1","2","""event"",""trial"",""time""
""fullscreenenter"",""1"",""2674""
","
","
","""event"",""trial"",""time""
""fullscreenenter"",""1"",""2674""
","
","true","false","[]","[]","[]","","","","","","","","","","","","","","","","","","",""
"html-keyboard-response","7","64919","0.0-7.0","1545","1","2","""event"",""trial"",""time""
""fullscreenenter"",""1"",""2674""
","
","
","""event"",""trial"",""time""
""fullscreenenter"",""1"",""2674""
","
","","","","","","2315.5","Welcome to the experiment. Press any key to begin and to advance the instructions."," ","","","","","","","","","","","","","","","",""
"learning-instructions","8","73682","0.0-8.0-0.0-0.0","1545","1","2","""event"",""trial"",""time""
""fullscreenenter"",""1"",""2674""
","
","
","""event"",""trial"",""time""
""fullscreenenter"",""1"",""2674""
","
","","","","","","1018.6000000238419","<p> Welcome! Today you are going to play 6 different rounds of a decision-making game. </p><p> Use the mouse to click next to continue. </p>","","0","instructions","","","","","","","","","","","","","",""
"learning-instructions","9","78990","0.0-8.0-0.0-0.1","1545","1","2","""event"",""trial"",""time""
""fullscreenenter"",""1"",""2674""
","
","
","""event"",""trial"",""time""
""fullscreenenter"",""1"",""2674""
","
","","","","","","2300.199999988079","<p> You will start with a practice round to learn the rules. </p>","","0","instructions","","","","","","","","","","","","","",""
"learning-instructions","10","87738","0.0-8.0-0.0-0.2","1545","1","2","""event"",""trial"",""time""
""fullscreenenter"",""1"",""2674""
","
","
","""event"",""trial"",""time""
""fullscreenenter"",""1"",""2674""
","
","","","","","","1010.6000000238419","<p> Your goal in this round is to deliver sports equipment to three different parks. </p><p> You will need to deliver many types of equipment. </p></div>","","0","instructions","","","","","","","","","","","","","",""
"learning-instructions","11","135320","0.0-8.0-0.0-0.3","1545","1","2","""event"",""trial"",""time""
""fullscreenenter"",""1"",""2674""
","
","
","""event"",""trial"",""time""
""fullscreenenter"",""1"",""2674""
","
","","","","","","39107.89999997616","<p> On each turn, you will see one piece of sports equipment and three different parks.  </p><p> You need to select which park to deliver the equipment to.  </p>","","0","instructions","","","","","","","","","","","","","",""
"learning-instructions","12","150772","0.0-8.0-0.0-0.4","1545","1","2","""event"",""trial"",""time""
""fullscreenenter"",""1"",""2674""
","
","
","""event"",""trial"",""time""
""fullscreenenter"",""1"",""2674""
","
","","","","","","1924.6000000238419","<p> You can select the park on the left by pressing the '1' key on your keyboard. <br>You can select the park in the middle by pressing the '2' key on your keyboard. <br>You can select the park on the right by pressing the '3' key on your keyboard.  </p><br><div class=""choice-instructions-grid""> <div class=""choice-option""><img src=""images/park1.png"" class=""choice-option-img"" stage=""instructions"" position=""0"" ><div class=""choice-option-text""> Press ""1."" </div></div><div class=""choice-option""><img src=""images/park2.png"" class=""choice-option-img"" stage=""instructions"" position=""1"" ><div class=""choice-option-text""> Press ""2."" </div></div><div class=""choice-option""><img src=""images/park3.png"" class=""choice-option-img"" stage=""instructions"" position=""2"" ><div class=""choice-option-text""> Press ""3."" </div></div></div>","","0","instructions","","","","","","","","","","","","","",""
"learning-instructions","13","156825","0.0-8.0-0.0-0.5","1545","1","2","""event"",""trial"",""time""
""fullscreenenter"",""1"",""2674""
","
","
","""event"",""trial"",""time""
""fullscreenenter"",""1"",""2674""
","
","","","","","","668.9000000357628","<p> If the kids in the park you chose like the equipment, they will be very happy! </p><div style='float: center;'><img src='images/check.png' width = '200' height = '200'></img>","","0","instructions","","","","","","","","","","","","","",""
"learning-instructions","14","162871","0.0-8.0-0.0-0.6","1545","1","2","""event"",""trial"",""time""
""fullscreenenter"",""1"",""2674""
","
","
","""event"",""trial"",""time""
""fullscreenenter"",""1"",""2674""
","
","","","","","","452.19999998807907","<p> But, if the kids in the park you chose do not like the equipment, they will be sad. </p><div style='float: center;'><img src='images/x.png' width = '200' height = '200'></img>","","0","instructions","","","","","","","","","","","","","",""
"learning-instructions","15","170308","0.0-8.0-0.0-0.7","1545","1","2","""event"",""trial"",""time""
""fullscreenenter"",""1"",""2674""
","
","
","""event"",""trial"",""time""
""fullscreenenter"",""1"",""2674""
","
","","","","","","1002.1999999880791","<p> Importantly, the kids in each park like some pieces of sports equipment more than others. </p>","","0","instructions","","","","","","","","","","","","","",""
"learning-instructions","16","177023","0.0-8.0-0.0-0.8","1545","1","2","""event"",""trial"",""time""
""fullscreenenter"",""1"",""2674""
","
","
","""event"",""trial"",""time""
""fullscreenenter"",""1"",""2674""
","
","","","","","","648.5","<p> If you choose the best park for each piece of equipment, the kids there will usually be happy. </p>","","0","instructions","","","","","","","","","","","","","",""
"learning-instructions","17","184252","0.0-8.0-0.0-0.9","1545","1","2","""event"",""trial"",""time""
""fullscreenenter"",""1"",""2674""
","
","
","""event"",""trial"",""time""
""fullscreenenter"",""1"",""2674""
","
","","","","","","593","<p> However, even if you choose the best park for the equipment, the kids may sometimes be sad. </p>","","0","instructions","","","","","","","","","","","","","",""
"learning-instructions","18","191907","0.0-8.0-0.0-0.10","1545","1","2","""event"",""trial"",""time""
""fullscreenenter"",""1"",""2674""
","
","
","""event"",""trial"",""time""
""fullscreenenter"",""1"",""2674""
","
","","","","","","422.39999997615814","<p> Similarly, even if you choose the <i>wrong</i> park for the equipment, the kids may still be happy sometimes.","","0","instructions","","","","","","","","","","","","","",""
"learning-instructions","19","197465","0.0-8.0-0.0-0.11","1545","1","2","""event"",""trial"",""time""
""fullscreenenter"",""1"",""2674""
","
","
","""event"",""trial"",""time""
""fullscreenenter"",""1"",""2674""
","
","","","","","","511","<p> For example, the best park for this soccer ball is this one.<div style='float: center;'><img src='images/i1.png' width = '500' height = '268'></img>","","0","instructions","","","","","","","","","","","","","",""
"learning-instructions","20","204242","0.0-8.0-0.0-0.12","1545","1","2","""event"",""trial"",""time""
""fullscreenenter"",""1"",""2674""
","
","
","""event"",""trial"",""time""
""fullscreenenter"",""1"",""2674""
","
","","","","","","1470.1000000238419","<p> Let's see what happens if you choose this park for the soccer ball five times.","","0","instructions","","","","","","","","","","","","","",""
"learning-instructions","21","207386","0.0-8.0-0.0-0.13","1545","1","2","""event"",""trial"",""time""
""fullscreenenter"",""1"",""2674""
","
","
","""event"",""trial"",""time""
""fullscreenenter"",""1"",""2674""
","
","","","","","","971.6000000238419","<p> The kids are happy.<div style='float: left;'><img src='images/i2.png' width = '640' height = '360'></img>","","0","instructions","","","","","","","","","","","","","",""
"learning-instructions","22","210037","0.0-8.0-0.0-0.14","1545","1","2","""event"",""trial"",""time""
""fullscreenenter"",""1"",""2674""
","
","
","""event"",""trial"",""time""
""fullscreenenter"",""1"",""2674""
","
","","","","","","485","<p> The kids are happy.<div style='float: left;'><img src='images/i3.png' width = '640' height = '360'></img>","","0","instructions","","","","","","","","","","","","","",""
"learning-instructions","23","212647","0.0-8.0-0.0-0.15","1545","1","2","""event"",""trial"",""time""
""fullscreenenter"",""1"",""2674""
","
","
","""event"",""trial"",""time""
""fullscreenenter"",""1"",""2674""
","
","","","","","","438.5","<p> The kids are happy.<div style='float: left;'><img src='images/i4.png' width = '640' height = '360'></img>","","0","instructions","","","","","","","","","","","","","",""
"learning-instructions","24","215248","0.0-8.0-0.0-0.16","1545","1","2","""event"",""trial"",""time""
""fullscreenenter"",""1"",""2674""
","
","
","""event"",""trial"",""time""
""fullscreenenter"",""1"",""2674""
","
","","","","","","383.2999999523163","<p> The kids are sad.<div style='float: left;'><img src='images/i5.png' width = '640' height = '360'></img>","","0","instructions","","","","","","","","","","","","","",""
"learning-instructions","25","217920","0.0-8.0-0.0-0.17","1545","1","2","""event"",""trial"",""time""
""fullscreenenter"",""1"",""2674""
","
","
","""event"",""trial"",""time""
""fullscreenenter"",""1"",""2674""
","
","","","","","","494.69999998807907","<p> The kids are happy.<div style='float: left;'><img src='images/i6.png' width = '640' height = '360'></img>","","0","instructions","","","","","","","","","","","","","",""
"learning-instructions","26","225601","0.0-8.0-0.0-0.18","1545","1","2","""event"",""trial"",""time""
""fullscreenenter"",""1"",""2674""
","
","
","""event"",""trial"",""time""
""fullscreenenter"",""1"",""2674""
","
","","","","","","409.9000000357628","<p> As you can see, selecting that park for the soccer ball made the kids happy most of the time, but not all the time.","","0","instructions","","","","","","","","","","","","","",""
"learning-instructions","27","232232","0.0-8.0-0.0-0.19","1545","1","2","""event"",""trial"",""time""
""fullscreenenter"",""1"",""2674""
","
","
","""event"",""trial"",""time""
""fullscreenenter"",""1"",""2674""
","
","","","","","","621.6999999880791","<p> Now let's see what happens if you choose a DIFFERENT park for the soccer ball 5 times.","","0","instructions","","","","","","","","","","","","","",""
"learning-instructions","28","234841","0.0-8.0-0.0-0.20","1545","1","2","""event"",""trial"",""time""
""fullscreenenter"",""1"",""2674""
","
","
","""event"",""trial"",""time""
""fullscreenenter"",""1"",""2674""
","
","","","","","","405.5","<p> The kids are sad.<div style='float: left;'><img src='images/i7.png' width = '640' height = '360'></img>","","0","instructions","","","","","","","","","","","","","",""
"learning-instructions","29","237436","0.0-8.0-0.0-0.21","1545","1","2","""event"",""trial"",""time""
""fullscreenenter"",""1"",""2674""
","
","
","""event"",""trial"",""time""
""fullscreenenter"",""1"",""2674""
","
","","","","","","380.7000000476837","<p> The kids are sad.<div style='float: left;'><img src='images/i8.png' width = '640' height = '360'></img>","","0","instructions","","","","","","","","","","","","","",""
"learning-instructions","30","240121","0.0-8.0-0.0-0.22","1545","1","2","""event"",""trial"",""time""
""fullscreenenter"",""1"",""2674""
","
","
","""event"",""trial"",""time""
""fullscreenenter"",""1"",""2674""
","
","","","","","","517.2999999523163","<p> The kids are happy.<div style='float: left;'><img src='images/i9.png' width = '640' height = '360'></img>","","0","instructions","","","","","","","","","","","","","",""
"learning-instructions","31","242723","0.0-8.0-0.0-0.23","1545","1","2","""event"",""trial"",""time""
""fullscreenenter"",""1"",""2674""
","
","
","""event"",""trial"",""time""
""fullscreenenter"",""1"",""2674""
","
","","","","","","390.80000001192093","<p> The kids are sad.<div style='float: left;'><img src='images/i10.png' width = '640' height = '360'></img>","","0","instructions","","","","","","","","","","","","","",""
"learning-instructions","32","245339","0.0-8.0-0.0-0.24","1545","1","2","""event"",""trial"",""time""
""fullscreenenter"",""1"",""2674""
","
","
","""event"",""trial"",""time""
""fullscreenenter"",""1"",""2674""
","
","","","","","","410","<p> The kids are sad.<div style='float: left;'><img src='images/i11.png' width = '640' height = '360'></img>","","0","instructions","","","","","","","","","","","","","",""
"learning-instructions","33","254015","0.0-8.0-0.0-0.25","1545","1","2","""event"",""trial"",""time""
""fullscreenenter"",""1"",""2674""
","
","
","""event"",""trial"",""time""
""fullscreenenter"",""1"",""2674""
","
","","","","","","563.2999999523163","<p> As you can see, selecting the wrong park for the soccer ball made the kids sad most of the time, but not all the time.","","0","instructions","","","","","","","","","","","","","",""
"learning-instructions","34","263826","0.0-8.0-0.0-0.26","1545","1","2","""event"",""trial"",""time""
""fullscreenenter"",""1"",""2674""
","
","
","""event"",""trial"",""time""
""fullscreenenter"",""1"",""2674""
","
","","","","","","684.6999999880791","<p> The different pieces of equipment belong in different parks. You need to try to learn which is the best park for each piece of equipment.","","0","instructions","","","","","","","","","","","","","",""
"learning-instructions","35","281699","0.0-8.0-0.0-0.27","1545","1","2","""event"",""trial"",""time""
""fullscreenenter"",""1"",""2674""
","
","
","""event"",""trial"",""time""
""fullscreenenter"",""1"",""2674""
","
","","","","","","1476.699999988079","<p> Try to choose the best park for each piece of equipment, because you will <b> WIN </b> 1 point for each time you make the kids happy and <b>LOSE</b> 1 point for each time you make them sad. </p><p> Remember, if you make the best choice, you will win 1 point most of the time, but not all the time. </p>","","0","instructions","","","","","","","","","","","","","",""
"learning-instructions","36","288577","0.0-8.0-0.0-0.28","1545","1","2","""event"",""trial"",""time""
""fullscreenenter"",""1"",""2674""
","
","
","""event"",""trial"",""time""
""fullscreenenter"",""1"",""2674""
","
","","","","","","1393.8999999761581","<p> This is just a practice round, but in the real game, your bonus payment will depend on your total number of points.","","0","instructions","","","","","","","","","","","","","",""
"learning-instructions","37","299610","0.0-8.0-0.0-0.29","1545","1","2","""event"",""trial"",""time""
""fullscreenenter"",""1"",""2674""
","
","
","""event"",""trial"",""time""
""fullscreenenter"",""1"",""2674""
","
","","","","","","695.0999999642372","<p> The position where each park appears will change throughout the game. </p><p> The position where the park appears <i> does not </i> influence how likely the kids are to be happy or sad. </p>","","0","instructions","","","","","","","","","","","","","",""
"learning-instructions","38","311986","0.0-8.0-0.0-0.30","1545","1","2","""event"",""trial"",""time""
""fullscreenenter"",""1"",""2674""
","
","
","""event"",""trial"",""time""
""fullscreenenter"",""1"",""2674""
","
","","","","","","1194.300000011921","<p> You will have 4 seconds to make each choice. Try to respond before time runs out! </p><p> You will lose 1 point each time you do not make a response. </p>","","0","instructions","","","","","","","","","","","","","",""
"learning-instructions","39","321518","0.0-8.0-0.0-0.31","1545","1","2","""event"",""trial"",""time""
""fullscreenenter"",""1"",""2674""
","
","
","""event"",""trial"",""time""
""fullscreenenter"",""1"",""2674""
","
","","","","","","2744.599999964237","<p> Remember, you should use the 1, 2, and 3 keys to select the park for each piece of equipment. </p><br><div class=""choice-instructions-grid""> <div class=""choice-option""><img src=""images/park1.png"" class=""choice-option-img"" stage=""instructions"" position=""0"" ><div class=""choice-option-text""> Press ""1."" </div></div><div class=""choice-option""><img src=""images/park2.png"" class=""choice-option-img"" stage=""instructions"" position=""1"" ><div class=""choice-option-text""> Press ""2."" </div></div><div class=""choice-option""><img src=""images/park3.png"" class=""choice-option-img"" stage=""instructions"" position=""2"" ><div class=""choice-option-text""> Press ""3."" </div></div></div>","","0","instructions","","","","","","","","","","","","","",""
"html-button-response","40","323299","0.0-8.0-1.0","1545","1","2","""event"",""trial"",""time""
""fullscreenenter"",""1"",""2674""
","
","
","""event"",""trial"",""time""
""fullscreenenter"",""1"",""2674""
","
","","","","","","1677","<p> Ready to practice? </p>","0","","","","","","","","","","","","","","","",""
"html-keyboard-response","41","323901","0.0-8.0-2.0-0.0","1545","1","2","""event"",""trial"",""time""
""fullscreenenter"",""1"",""2674""
","
","
","""event"",""trial"",""time""
""fullscreenenter"",""1"",""2674""
","
","","","","","","null","<div style=""font-size:60px;"">+</div>","null","","fixation","","","","","","","","","","","","","",""
"learning-trial","42","327908","0.0-8.0-2.0-1.0","1545","1","2","""event"",""trial"",""time""
""fullscreenenter"",""1"",""2674""
","
","
","""event"",""trial"",""time""
""fullscreenenter"",""1"",""2674""
","
","","","","","","2442.699999988079","images/ball2.png","","","practice","images/park2.png","images/park3.png","images/park1.png","[1,2,0]","0","2","3","images/park1.png","1","practice","","","",""
"html-keyboard-response","43","328424","0.0-8.0-2.0-0.1","1545","1","2","""event"",""trial"",""time""
""fullscreenenter"",""1"",""2674""
","
","
","""event"",""trial"",""time""
""fullscreenenter"",""1"",""2674""
","
","","","","","","null","<div style=""font-size:60px;"">+</div>","null","","fixation","","","","","","","","","","","","","",""
"learning-trial","44","332439","0.0-8.0-2.0-1.1","1545","1","2","""event"",""trial"",""time""
""fullscreenenter"",""1"",""2674""
","
","
","""event"",""trial"",""time""
""fullscreenenter"",""1"",""2674""
","
","","","","","","1953.5","images/racket2.png","","","practice","images/park2.png","images/park3.png","images/park1.png","[1,2,0]","2","1","2","images/park3.png","1","practice","","","",""
"html-keyboard-response","45","332950","0.0-8.0-2.0-0.2","1545","1","2","""event"",""trial"",""time""
""fullscreenenter"",""1"",""2674""
","
","
","""event"",""trial"",""time""
""fullscreenenter"",""1"",""2674""
","
","","","","","","null","<div style=""font-size:60px;"">+</div>","null","","fixation","","","","","","","","","","","","","",""
"learning-trial","46","336967","0.0-8.0-2.0-1.2","1545","1","2","""event"",""trial"",""time""
""fullscreenenter"",""1"",""2674""
","
","
","""event"",""trial"",""time""
""fullscreenenter"",""1"",""2674""
","
","","","","","","1032.8999999761581","images/racket3.png","","","practice","images/park1.png","images/park2.png","images/park3.png","[0,1,2]","1","1","2","images/park2.png","1","practice","","","",""
"html-keyboard-response","47","337483","0.0-8.0-2.0-0.3","1545","1","2","""event"",""trial"",""time""
""fullscreenenter"",""1"",""2674""
","
","
","""event"",""trial"",""time""
""fullscreenenter"",""1"",""2674""
","
","","","","","","null","<div style=""font-size:60px;"">+</div>","null","","fixation","","","","","","","","","","","","","",""
"learning-trial","48","341487","0.0-8.0-2.0-1.3","1545","1","2","""event"",""trial"",""time""
""fullscreenenter"",""1"",""2674""
","
","
","""event"",""trial"",""time""
""fullscreenenter"",""1"",""2674""
","
","","","","","","2634.7999999523163","images/ball3.png","","","practice","images/park2.png","images/park1.png","images/park3.png","[1,0,2]","2","2","2","images/park1.png","-1","practice","","","",""
"html-keyboard-response","49","342002","0.0-8.0-2.0-0.4","1545","1","2","""event"",""trial"",""time""
""fullscreenenter"",""1"",""2674""
","
","
","""event"",""trial"",""time""
""fullscreenenter"",""1"",""2674""
","
","","","","","","null","<div style=""font-size:60px;"">+</div>","null","","fixation","","","","","","","","","","","","","",""
"learning-trial","50","346008","0.0-8.0-2.0-1.4","1545","1","2","""event"",""trial"",""time""
""fullscreenenter"",""1"",""2674""
","
","
","""event"",""trial"",""time""
""fullscreenenter"",""1"",""2674""
","
","","","","","","2112.899999976158","images/racket4.png","","","practice","images/park2.png","images/park1.png","images/park3.png","[1,0,2]","1","0","2","images/park1.png","1","practice","","","",""
"html-keyboard-response","51","346523","0.0-8.0-2.0-0.5","1545","1","2","""event"",""trial"",""time""
""fullscreenenter"",""1"",""2674""
","
","
","""event"",""trial"",""time""
""fullscreenenter"",""1"",""2674""
","
","","","","","","null","<div style=""font-size:60px;"">+</div>","null","","fixation","","","","","","","","","","","","","",""
"learning-trial","52","350526","0.0-8.0-2.0-1.5","1545","1","2","""event"",""trial"",""time""
""fullscreenenter"",""1"",""2674""
","
","
","""event"",""trial"",""time""
""fullscreenenter"",""1"",""2674""
","
","","","","","","1471.9000000357628","images/ball2.png","","","practice","images/park2.png","images/park1.png","images/park3.png","[1,0,2]","0","1","2","images/park1.png","1","practice","","","",""
"html-keyboard-response","53","351028","0.0-8.0-2.0-0.6","1545","1","2","""event"",""trial"",""time""
""fullscreenenter"",""1"",""2674""
","
","
","""event"",""trial"",""time""
""fullscreenenter"",""1"",""2674""
","
","","","","","","null","<div style=""font-size:60px;"">+</div>","null","","fixation","","","","","","","","","","","","","",""
"learning-trial","54","355031","0.0-8.0-2.0-1.6","1545","1","2","""event"",""trial"",""time""
""fullscreenenter"",""1"",""2674""
","
","
","""event"",""trial"",""time""
""fullscreenenter"",""1"",""2674""
","
","","","","","","2518.099999964237","images/racket1.png","","","practice","images/park3.png","images/park2.png","images/park1.png","[2,1,0]","0","2","1","images/park3.png","1","practice","","","",""
"html-keyboard-response","55","355533","0.0-8.0-2.0-0.7","1545","1","2","""event"",""trial"",""time""
""fullscreenenter"",""1"",""2674""
","
","
","""event"",""trial"",""time""
""fullscreenenter"",""1"",""2674""
","
","","","","","","null","<div style=""font-size:60px;"">+</div>","null","","fixation","","","","","","","","","","","","","",""
"learning-trial","56","359536","0.0-8.0-2.0-1.7","1545","1","2","""event"",""trial"",""time""
""fullscreenenter"",""1"",""2674""
","
","
","""event"",""trial"",""time""
""fullscreenenter"",""1"",""2674""
","
","","","","","","1421.2000000476837","images/racket4.png","","","practice","images/park2.png","images/park3.png","images/park1.png","[1,2,0]","1","0","2","images/park3.png","-1","practice","","","",""
"html-keyboard-response","57","360041","0.0-8.0-2.0-0.8","1545","1","2","""event"",""trial"",""time""
""fullscreenenter"",""1"",""2674""
","
","
","""event"",""trial"",""time""
""fullscreenenter"",""1"",""2674""
","
","","","","","","null","<div style=""font-size:60px;"">+</div>","null","","fixation","","","","","","","","","","","","","",""
"learning-trial","58","364044","0.0-8.0-2.0-1.8","1545","1","2","""event"",""trial"",""time""
""fullscreenenter"",""1"",""2674""
","
","
","""event"",""trial"",""time""
""fullscreenenter"",""1"",""2674""
","
","","","","","","1785.9000000357628","images/racket3.png","","","practice","images/park2.png","images/park1.png","images/park3.png","[1,0,2]","1","0","3","images/park3.png","-1","practice","","","",""
"html-keyboard-response","59","364546","0.0-8.0-2.0-0.9","1545","1","2","""event"",""trial"",""time""
""fullscreenenter"",""1"",""2674""
","
","
","""event"",""trial"",""time""
""fullscreenenter"",""1"",""2674""
","
","","","","","","null","<div style=""font-size:60px;"">+</div>","null","","fixation","","","","","","","","","","","","","",""
"learning-trial","60","368549","0.0-8.0-2.0-1.9","1545","1","2","""event"",""trial"",""time""
""fullscreenenter"",""1"",""2674""
","
","
","""event"",""trial"",""time""
""fullscreenenter"",""1"",""2674""
","
","","","","","","1516.5","images/ball3.png","","","practice","images/park3.png","images/park2.png","images/park1.png","[2,1,0]","2","0","1","images/park3.png","1","practice","","","",""
"html-keyboard-response","61","369049","0.0-8.0-2.0-0.10","1545","1","2","""event"",""trial"",""time""
""fullscreenenter"",""1"",""2674""
","
","
","""event"",""trial"",""time""
""fullscreenenter"",""1"",""2674""
","
","","","","","","null","<div style=""font-size:60px;"">+</div>","null","","fixation","","","","","","","","","","","","","",""
"learning-trial","62","373051","0.0-8.0-2.0-1.10","1545","1","2","""event"",""trial"",""time""
""fullscreenenter"",""1"",""2674""
","
","
","""event"",""trial"",""time""
""fullscreenenter"",""1"",""2674""
","
","","","","","","1497.800000011921","images/racket2.png","","","practice","images/park3.png","images/park1.png","images/park2.png","[2,0,1]","2","0","1","images/park3.png","1","practice","","","",""
"html-keyboard-response","63","373553","0.0-8.0-2.0-0.11","1545","1","2","""event"",""trial"",""time""
""fullscreenenter"",""1"",""2674""
","
","
","""event"",""trial"",""time""
""fullscreenenter"",""1"",""2674""
","
","","","","","","null","<div style=""font-size:60px;"">+</div>","null","","fixation","","","","","","","","","","","","","",""
"learning-trial","64","377557","0.0-8.0-2.0-1.11","1545","1","2","""event"",""trial"",""time""
""fullscreenenter"",""1"",""2674""
","
","
","""event"",""trial"",""time""
""fullscreenenter"",""1"",""2674""
","
","","","","","","1876.8999999761581","images/racket1.png","","","practice","images/park1.png","images/park2.png","images/park3.png","[0,1,2]","0","0","3","images/park3.png","-1","practice","","","",""
"html-button-response","65","379495","0.0-8.0-3.0","1545","1","2","""event"",""trial"",""time""
""fullscreenenter"",""1"",""2674""
","
","
","""event"",""trial"",""time""
""fullscreenenter"",""1"",""2674""
","
","","","","","","1926.199999988079","<p> You earned 4 points in the practice round! </p>","0","","break","","","","","","","","","","","","","",""
"learning-instructions","66","394181","0.0-8.0-4.0-0.0","1545","1","2","""event"",""trial"",""time""
""fullscreenenter"",""1"",""2674""
","
","
","""event"",""trial"",""time""
""fullscreenenter"",""1"",""2674""
","
","","","","","","2013.300000011921","<p> It's almost time to start the real game. </p><p> Before you start, we're going to ask you a few questions about how the game works. </p>","","0","instructions","","","","","","","","","","","","","",""
"preload","67","399075","0.0-8.0-5.0","1545","1","2","""event"",""trial"",""time""
""fullscreenenter"",""1"",""2674""
","
","
","""event"",""trial"",""time""
""fullscreenenter"",""1"",""2674""
","
","true","false","[]","[]","[]","","","","","","","","","","","","","","","","","","",""
"comp-q","68","406108","0.0-8.0-6.0-0.0","1545","1","2","""event"",""trial"",""time""
""fullscreenenter"",""1"",""2674""
","
","
","""event"",""trial"",""time""
""fullscreenenter"",""1"",""2674""
","
","","","","","","1582","<p> <b> True or False? </b> </p><p> If you choose the best option, you will always earn 1 point. </p>","","1","comp_question","","","","","","","","","","","true","","",""
"comp-q","69","412989","0.0-8.0-6.0-1.0","1545","1","2","""event"",""trial"",""time""
""fullscreenenter"",""1"",""2674""
","
","
","""event"",""trial"",""time""
""fullscreenenter"",""1"",""2674""
","
","","","","","","1227.1000000238419","<p><b> That's right! </b> Sometimes you will lose 1 point, even if you choose the best option. </p>","","0","comp_answer","","","","","","","","","","","","","",""
"comp-q","70","418174","0.0-8.0-6.0-0.1","1545","1","2","""event"",""trial"",""time""
""fullscreenenter"",""1"",""2674""
","
","
","""event"",""trial"",""time""
""fullscreenenter"",""1"",""2674""
","
","","","","","","545.6999999880791","<p> <b> True or False? </b> </p><p> You will have as much time as you want to make each choice. </p>","","1","comp_question","","","","","","","","","","","true","","",""
"comp-q","71","424248","0.0-8.0-6.0-1.1","1545","1","2","""event"",""trial"",""time""
""fullscreenenter"",""1"",""2674""
","
","
","""event"",""trial"",""time""
""fullscreenenter"",""1"",""2674""
","
","","","","","","1258.5","<p> <b> That's right! </b> You will only have 4 seconds to make each choice. </p>","","0","comp_answer","","","","","","","","","","","","","",""
"comp-q","72","431222","0.0-8.0-6.0-0.2","1545","1","2","""event"",""trial"",""time""
""fullscreenenter"",""1"",""2674""
","
","
","""event"",""trial"",""time""
""fullscreenenter"",""1"",""2674""
","
","","","","","","814.6000000238419","<p> <b> True or False? </b> </p><p> You should use the '1', '2', and '3' keys to make your choices. </p>","","0","comp_question","","","","","","","","","","","true","","",""
"comp-q","73","437204","0.0-8.0-6.0-1.2","1545","1","2","""event"",""trial"",""time""
""fullscreenenter"",""1"",""2674""
","
","
","""event"",""trial"",""time""
""fullscreenenter"",""1"",""2674""
","
","","","","","","1123.8999999761581","<p> <b> That's right! </b> You should use the '1', '2', and '3' keys to make each choice. </p>","","0","comp_answer","","","","","","","","","","","","","",""
"learning-instructions","74","447093","0.0-8.0-7.0-0.0","1545","1","2","""event"",""trial"",""time""
""fullscreenenter"",""1"",""2674""
","
","
","""event"",""trial"",""time""
""fullscreenenter"",""1"",""2674""
","
","","","","","","1396","<p> It's now time to start the real game. </p>Do your best, because the points you earn in the next rounds will influence your bonus payment. </p>","","0","instructions","","","","","","","","","","","","","",""
"preload","75","454608","0.0-9.0-0.0","1545","1","2","""event"",""trial"",""time""
""fullscreenenter"",""1"",""2674""
","
","
","""event"",""trial"",""time""
""fullscreenenter"",""1"",""2674""
","
","true","false","[]","[]","[]","","","","","","","","","","","","","","","","","","",""
"learning-instructions","76","462687","0.0-9.0-1.0-0.0","1545","1","2","""event"",""trial"",""time""
""fullscreenenter"",""1"",""2674""
","
","
","""event"",""trial"",""time""
""fullscreenenter"",""1"",""2674""
","
","","","","","","1579.0999999642372","<p> Your goal in this round is to buy different types of fruits. </p><p> You will try to purchase many fruits from different stores. </p></div>","","0","instructions","","","","","","","","","","","","","",""
"learning-instructions","77","472915","0.0-9.0-1.0-0.1","1545","1","2","""event"",""trial"",""time""
""fullscreenenter"",""1"",""2674""
","
","
","""event"",""trial"",""time""
""fullscreenenter"",""1"",""2674""
","
","","","","","","1722.300000011921","<p> On each turn, you will see a picture of a fruit and three different stores.  </p><p> You need to select the store where you can buy that fruit.  </p>","","0","instructions","","","","","","","","","","","","","",""
"learning-instructions","78","481669","0.0-9.0-1.0-0.2","1545","1","2","""event"",""trial"",""time""
""fullscreenenter"",""1"",""2674""
","
","
","""event"",""trial"",""time""
""fullscreenenter"",""1"",""2674""
","
","","","","","","1363.5999999642372","<p> You can select the store on the left by pressing 1, the store in the middle by pressing 2, and the store on the right by pressing 3. </p><br><div class=""choice-instructions-grid""> <div class=""choice-option""><img src=""images/fruit_choice1.png"" class=""choice-option-img"" stage=""instructions"" position=""0"" ><div class=""choice-option-text""> Press ""1."" </div></div><div class=""choice-option""><img src=""images/fruit_choice2.png"" class=""choice-option-img"" stage=""instructions"" position=""1"" ><div class=""choice-option-text""> Press ""2."" </div></div><div class=""choice-option""><img src=""images/fruit_choice3.png"" class=""choice-option-img"" stage=""instructions"" position=""2"" ><div class=""choice-option-text""> Press ""3."" </div></div></div>","","0","instructions","","","","","","","","","","","","","",""
"learning-instructions","79","487911","0.0-9.0-1.0-0.3","1545","1","2","""event"",""trial"",""time""
""fullscreenenter"",""1"",""2674""
","
","
","""event"",""trial"",""time""
""fullscreenenter"",""1"",""2674""
","
","","","","","","1295.300000011921","<p> If you find the fruit in the store you chose, you will get to buy and eat it! </p><div style='float: center;'><img src='images/check.png' width = '200' height = '200'></img>","","0","instructions","","","","","","","","","","","","","",""
"learning-instructions","80","493575","0.0-9.0-1.0-0.4","1545","1","2","""event"",""trial"",""time""
""fullscreenenter"",""1"",""2674""
","
","
","""event"",""trial"",""time""
""fullscreenenter"",""1"",""2674""
","
","","","","","","1201.2000000476837","<p> But, if the fruit is not in that store, you will be hungry. </p><div style='float: center;'><img src='images/x.png' width = '200' height = '200'></img>","","0","instructions","","","","","","","","","","","","","",""
"learning-instructions","81","504624","0.0-9.0-1.0-0.5","1545","1","2","""event"",""trial"",""time""
""fullscreenenter"",""1"",""2674""
","
","
","""event"",""trial"",""time""
""fullscreenenter"",""1"",""2674""
","
","","","","","","1263.1000000238419","<p> Importantly, each fruit is more likely to be found in one of the stores. </p><p> If you choose the correct store, you will be more likely to be able to buy the fruit! </p>","","0","instructions","","","","","","","","","","","","","",""
"learning-instructions","82","515770","0.0-9.0-1.0-0.6","1545","1","2","""event"",""trial"",""time""
""fullscreenenter"",""1"",""2674""
","
","
","""event"",""trial"",""time""
""fullscreenenter"",""1"",""2674""
","
","","","","","","688.8000000119209","<p> However, even if you choose the best store for the fruit, the store might not have it sometimes. </p><p> Similarly, even if you choose the <i>wrong</i> store, it might still have the fruit.","","0","instructions","","","","","","","","","","","","","",""
"learning-instructions","83","529026","0.0-9.0-1.0-0.7","1545","1","2","""event"",""trial"",""time""
""fullscreenenter"",""1"",""2674""
","
","
","""event"",""trial"",""time""
""fullscreenenter"",""1"",""2674""
","
","","","","","","1070.800000011921","<p> Try to choose the best store for each fruit, because you will <b> WIN </b> 1 point for each fruit you eat and <b>LOSE</b> 1 point each time you are hungry. </p><p> Your bonus payment will depend on your total number of points.","","0","instructions","","","","","","","","","","","","","",""
"learning-instructions","84","538905","0.0-9.0-1.0-0.8","1545","1","2","""event"",""trial"",""time""
""fullscreenenter"",""1"",""2674""
","
","
","""event"",""trial"",""time""
""fullscreenenter"",""1"",""2674""
","
","","","","","","1682.300000011921","<p> The position of each store will change throughout the round. </p><p> The store's position <i> does not </i> influence how likely you are to find the fruit. </p>","","0","instructions","","","","","","","","","","","","","",""
"learning-instructions","85","549607","0.0-9.0-1.0-0.9","1545","1","2","""event"",""trial"",""time""
""fullscreenenter"",""1"",""2674""
","
","
","""event"",""trial"",""time""
""fullscreenenter"",""1"",""2674""
","
","","","","","","1409.7999999523163","<p> You will have 4 seconds to make each choice. Try to respond before time runs out! </p><p> You will lose 1 point each time you do not make a response. </p>","","0","instructions","","","","","","","","","","","","","",""
"html-keyboard-response","86","550221","0.0-9.0-2.0-0.0","1545","1","2","""event"",""trial"",""time""
""fullscreenenter"",""1"",""2674""
","
","
","""event"",""trial"",""time""
""fullscreenenter"",""1"",""2674""
","
","","","","","","null","<div style=""font-size:60px;"">+</div>","null","","fixation","","","","","","","","","","","","","",""
"learning-trial","87","554239","0.0-9.0-2.0-1.0","1545","1","2","""event"",""trial"",""time""
""fullscreenenter"",""1"",""2674""
","
","
","""event"",""trial"",""time""
""fullscreenenter"",""1"",""2674""
","
","","","","","","1445.1000000238419","images/orange3.png","","","learning","images/fruit_choice1.png","images/fruit_choice2.png","images/fruit_choice3.png","[0,1,2]","0","0","2","images/fruit_choice2.png","-1","fruit","","orange","1","0"
"html-keyboard-response","88","554753","0.0-9.0-2.0-0.1","1545","1","2","""event"",""trial"",""time""
""fullscreenenter"",""1"",""2674""
","
","
","""event"",""trial"",""time""
""fullscreenenter"",""1"",""2674""
","
","","","","","","null","<div style=""font-size:60px;"">+</div>","null","","fixation","","","","","","","","","","","","","",""
"learning-trial","89","558769","0.0-9.0-2.0-1.1","1545","1","2","""event"",""trial"",""time""
""fullscreenenter"",""1"",""2674""
","
","
","""event"",""trial"",""time""
""fullscreenenter"",""1"",""2674""
","
","","","","","","1922.699999988079","images/banana3.png","","","learning","images/fruit_choice3.png","images/fruit_choice1.png","images/fruit_choice2.png","[2,0,1]","2","0","2","images/fruit_choice1.png","-1","fruit","","banana","1","0"
"html-keyboard-response","90","559277","0.0-9.0-2.0-0.2","1545","1","2","""event"",""trial"",""time""
""fullscreenenter"",""1"",""2674""
","
","
","""event"",""trial"",""time""
""fullscreenenter"",""1"",""2674""
","
","","","","","","null","<div style=""font-size:60px;"">+</div>","null","","fixation","","","","","","","","","","","","","",""
"learning-trial","91","563291","0.0-9.0-2.0-1.2","1545","1","2","""event"",""trial"",""time""
""fullscreenenter"",""1"",""2674""
","
","
","""event"",""trial"",""time""
""fullscreenenter"",""1"",""2674""
","
","","","","","","1418.1000000238419","images/apple1.png","","","learning","images/fruit_choice1.png","images/fruit_choice3.png","images/fruit_choice2.png","[0,2,1]","1","2","3","images/fruit_choice2.png","1","fruit","","apple","1","0"
"html-keyboard-response","92","563803","0.0-9.0-2.0-0.3","1545","1","2","""event"",""trial"",""time""
""fullscreenenter"",""1"",""2674""
","
","
","""event"",""trial"",""time""
""fullscreenenter"",""1"",""2674""
","
","","","","","","null","<div style=""font-size:60px;"">+</div>","null","","fixation","","","","","","","","","","","","","",""
"learning-trial","93","567814","0.0-9.0-2.0-1.3","1545","1","2","""event"",""trial"",""time""
""fullscreenenter"",""1"",""2674""
","
","
","""event"",""trial"",""time""
""fullscreenenter"",""1"",""2674""
","
","","","","","","1722.8999999761581","images/banana2.png","","","learning","images/fruit_choice1.png","images/fruit_choice2.png","images/fruit_choice3.png","[0,1,2]","2","2","2","images/fruit_choice2.png","-1","fruit","","banana","1","0"
"html-keyboard-response","94","568326","0.0-9.0-2.0-0.4","1545","1","2","""event"",""trial"",""time""
""fullscreenenter"",""1"",""2674""
","
","
","""event"",""trial"",""time""
""fullscreenenter"",""1"",""2674""
","
","","","","","","null","<div style=""font-size:60px;"">+</div>","null","","fixation","","","","","","","","","","","","","",""
"learning-trial","95","572335","0.0-9.0-2.0-1.4","1545","1","2","""event"",""trial"",""time""
""fullscreenenter"",""1"",""2674""
","
","
","""event"",""trial"",""time""
""fullscreenenter"",""1"",""2674""
","
","","","","","","2023.9000000357628","images/apple2.png","","","learning","images/fruit_choice2.png","images/fruit_choice3.png","images/fruit_choice1.png","[1,2,0]","1","0","3","images/fruit_choice1.png","-1","fruit","","apple","1","0"
"html-keyboard-response","96","572846","0.0-9.0-2.0-0.5","1545","1","2","""event"",""trial"",""time""
""fullscreenenter"",""1"",""2674""
","
","
","""event"",""trial"",""time""
""fullscreenenter"",""1"",""2674""
","
","","","","","","null","<div style=""font-size:60px;"">+</div>","null","","fixation","","","","","","","","","","","","","",""
"learning-trial","97","576854","0.0-9.0-2.0-1.5","1545","1","2","""event"",""trial"",""time""
""fullscreenenter"",""1"",""2674""
","
","
","""event"",""trial"",""time""
""fullscreenenter"",""1"",""2674""
","
","","","","","","1945.8999999761581","images/banana2.png","","","learning","images/fruit_choice3.png","images/fruit_choice1.png","images/fruit_choice2.png","[2,0,1]","2","0","1","images/fruit_choice3.png","1","fruit","","banana","1","0"
"html-keyboard-response","98","577360","0.0-9.0-2.0-0.6","1545","1","2","""event"",""trial"",""time""
""fullscreenenter"",""1"",""2674""
","
","
","""event"",""trial"",""time""
""fullscreenenter"",""1"",""2674""
","
","","","","","","null","<div style=""font-size:60px;"">+</div>","null","","fixation","","","","","","","","","","","","","",""
"learning-trial","99","581364","0.0-9.0-2.0-1.6","1545","1","2","""event"",""trial"",""time""
""fullscreenenter"",""1"",""2674""
","
","
","""event"",""trial"",""time""
""fullscreenenter"",""1"",""2674""
","
","","","","","","2168.899999976158","images/apple2.png","","","learning","images/fruit_choice2.png","images/fruit_choice1.png","images/fruit_choice3.png","[1,0,2]","1","0","3","images/fruit_choice3.png","-1","fruit","","apple","1","0"
"html-keyboard-response","100","581866","0.0-9.0-2.0-0.7","1545","1","2","""event"",""trial"",""time""
""fullscreenenter"",""1"",""2674""
","
","
","""event"",""trial"",""time""
""fullscreenenter"",""1"",""2674""
","
","","","","","","null","<div style=""font-size:60px;"">+</div>","null","","fixation","","","","","","","","","","","","","",""
"learning-trial","101","585869","0.0-9.0-2.0-1.7","1545","1","2","""event"",""trial"",""time""
""fullscreenenter"",""1"",""2674""
","
","
","""event"",""trial"",""time""
""fullscreenenter"",""1"",""2674""
","
","","","","","","1834.699999988079","images/banana2.png","","","learning","images/fruit_choice3.png","images/fruit_choice2.png","images/fruit_choice1.png","[2,1,0]","2","0","1","images/fruit_choice3.png","1","fruit","","banana","1","0"
"html-keyboard-response","102","586370","0.0-9.0-2.0-0.8","1545","1","2","""event"",""trial"",""time""
""fullscreenenter"",""1"",""2674""
","
","
","""event"",""trial"",""time""
""fullscreenenter"",""1"",""2674""
","
","","","","","","null","<div style=""font-size:60px;"">+</div>","null","","fixation","","","","","","","","","","","","","",""
"learning-trial","103","590373","0.0-9.0-2.0-1.8","1545","1","2","""event"",""trial"",""time""
""fullscreenenter"",""1"",""2674""
","
","
","""event"",""trial"",""time""
""fullscreenenter"",""1"",""2674""
","
","","","","","","2075.199999988079","images/orange3.png","","","learning","images/fruit_choice2.png","images/fruit_choice1.png","images/fruit_choice3.png","[1,0,2]","0","1","2","images/fruit_choice1.png","1","fruit","","orange","1","0"
"html-keyboard-response","104","590876","0.0-9.0-2.0-0.9","1545","1","2","""event"",""trial"",""time""
""fullscreenenter"",""1"",""2674""
","
","
","""event"",""trial"",""time""
""fullscreenenter"",""1"",""2674""
","
","","","","","","null","<div style=""font-size:60px;"">+</div>","null","","fixation","","","","","","","","","","","","","",""
"learning-trial","105","594879","0.0-9.0-2.0-1.9","1545","1","2","""event"",""trial"",""time""
""fullscreenenter"",""1"",""2674""
","
","
","""event"",""trial"",""time""
""fullscreenenter"",""1"",""2674""
","
","","","","","","1895.6000000238419","images/orange4.png","","","learning","images/fruit_choice3.png","images/fruit_choice2.png","images/fruit_choice1.png","[2,1,0]","0","2","3","images/fruit_choice1.png","1","fruit","","orange","1","0"
"html-keyboard-response","106","595382","0.0-9.0-2.0-0.10","1545","1","2","""event"",""trial"",""time""
""fullscreenenter"",""1"",""2674""
","
","
","""event"",""trial"",""time""
""fullscreenenter"",""1"",""2674""
","
","","","","","","null","<div style=""font-size:60px;"">+</div>","null","","fixation","","","","","","","","","","","","","",""
"learning-trial","107","599385","0.0-9.0-2.0-1.10","1545","1","2","""event"",""trial"",""time""
""fullscreenenter"",""1"",""2674""
","
","
","""event"",""trial"",""time""
""fullscreenenter"",""1"",""2674""
","
","","","","","","1313.9000000357628","images/orange5.png","","","learning","images/fruit_choice3.png","images/fruit_choice1.png","images/fruit_choice2.png","[2,0,1]","0","1","2","images/fruit_choice1.png","1","fruit","","orange","1","0"
"html-keyboard-response","108","599887","0.0-9.0-2.0-0.11","1545","1","2","""event"",""trial"",""time""
""fullscreenenter"",""1"",""2674""
","
","
","""event"",""trial"",""time""
""fullscreenenter"",""1"",""2674""
","
","","","","","","null","<div style=""font-size:60px;"">+</div>","null","","fixation","","","","","","","","","","","","","",""
"learning-trial","109","603891","0.0-9.0-2.0-1.11","1545","1","2","""event"",""trial"",""time""
""fullscreenenter"",""1"",""2674""
","
","
","""event"",""trial"",""time""
""fullscreenenter"",""1"",""2674""
","
","","","","","","1286.300000011921","images/orange5.png","","","learning","images/fruit_choice1.png","images/fruit_choice2.png","images/fruit_choice3.png","[0,1,2]","0","0","1","images/fruit_choice1.png","-1","fruit","","orange","1","0"
"html-keyboard-response","110","604393","0.0-9.0-2.0-0.12","1545","1","2","""event"",""trial"",""time""
""fullscreenenter"",""1"",""2674""
","
","
","""event"",""trial"",""time""
""fullscreenenter"",""1"",""2674""
","
","","","","","","null","<div style=""font-size:60px;"">+</div>","null","","fixation","","","","","","","","","","","","","",""
"learning-trial","111","608396","0.0-9.0-2.0-1.12","1545","1","2","""event"",""trial"",""time""
""fullscreenenter"",""1"",""2674""
","
","
","""event"",""trial"",""time""
""fullscreenenter"",""1"",""2674""
","
","","","","","","2204.900000035763","images/banana1.png","","","learning","images/fruit_choice1.png","images/fruit_choice3.png","images/fruit_choice2.png","[0,2,1]","2","1","2","images/fruit_choice3.png","1","fruit","","banana","1","0"
"html-keyboard-response","112","608897","0.0-9.0-2.0-0.13","1545","1","2","""event"",""trial"",""time""
""fullscreenenter"",""1"",""2674""
","
","
","""event"",""trial"",""time""
""fullscreenenter"",""1"",""2674""
","
","","","","","","null","<div style=""font-size:60px;"">+</div>","null","","fixation","","","","","","","","","","","","","",""
"learning-trial","113","612900","0.0-9.0-2.0-1.13","1545","1","2","""event"",""trial"",""time""
""fullscreenenter"",""1"",""2674""
","
","
","""event"",""trial"",""time""
""fullscreenenter"",""1"",""2674""
","
","","","","","","1810.3999999761581","images/banana3.png","","","learning","images/fruit_choice3.png","images/fruit_choice2.png","images/fruit_choice1.png","[2,1,0]","2","0","1","images/fruit_choice3.png","1","fruit","","banana","1","0"
"html-keyboard-response","114","613402","0.0-9.0-2.0-0.14","1545","1","2","""event"",""trial"",""time""
""fullscreenenter"",""1"",""2674""
","
","
","""event"",""trial"",""time""
""fullscreenenter"",""1"",""2674""
","
","","","","","","null","<div style=""font-size:60px;"">+</div>","null","","fixation","","","","","","","","","","","","","",""
"learning-trial","115","617405","0.0-9.0-2.0-1.14","1545","1","2","""event"",""trial"",""time""
""fullscreenenter"",""1"",""2674""
","
","
","""event"",""trial"",""time""
""fullscreenenter"",""1"",""2674""
","
","","","","","","1463.2999999523163","images/orange5.png","","","learning","images/fruit_choice3.png","images/fruit_choice2.png","images/fruit_choice1.png","[2,1,0]","0","2","3","images/fruit_choice1.png","1","fruit","","orange","1","0"
"html-keyboard-response","116","617907","0.0-9.0-2.0-0.15","1545","1","2","""event"",""trial"",""time""
""fullscreenenter"",""1"",""2674""
","
","
","""event"",""trial"",""time""
""fullscreenenter"",""1"",""2674""
","
","","","","","","null","<div style=""font-size:60px;"">+</div>","null","","fixation","","","","","","","","","","","","","",""
"learning-trial","117","621910","0.0-9.0-2.0-1.15","1545","1","2","""event"",""trial"",""time""
""fullscreenenter"",""1"",""2674""
","
","
","""event"",""trial"",""time""
""fullscreenenter"",""1"",""2674""
","
","","","","","","2156.5","images/banana3.png","","","learning","images/fruit_choice2.png","images/fruit_choice3.png","images/fruit_choice1.png","[1,2,0]","2","1","2","images/fruit_choice3.png","1","fruit","","banana","1","0"
"html-keyboard-response","118","622412","0.0-9.0-2.0-0.16","1545","1","2","""event"",""trial"",""time""
""fullscreenenter"",""1"",""2674""
","
","
","""event"",""trial"",""time""
""fullscreenenter"",""1"",""2674""
","
","","","","","","null","<div style=""font-size:60px;"">+</div>","null","","fixation","","","","","","","","","","","","","",""
"learning-trial","119","626415","0.0-9.0-2.0-1.16","1545","1","2","""event"",""trial"",""time""
""fullscreenenter"",""1"",""2674""
","
","
","""event"",""trial"",""time""
""fullscreenenter"",""1"",""2674""
","
","","","","","","2129.899999976158","images/orange3.png","","","learning","images/fruit_choice3.png","images/fruit_choice1.png","images/fruit_choice2.png","[2,0,1]","0","1","1","images/fruit_choice3.png","-1","fruit","","orange","1","0"
"html-keyboard-response","120","626917","0.0-9.0-2.0-0.17","1545","1","2","""event"",""trial"",""time""
""fullscreenenter"",""1"",""2674""
","
","
","""event"",""trial"",""time""
""fullscreenenter"",""1"",""2674""
","
","","","","","","null","<div style=""font-size:60px;"">+</div>","null","","fixation","","","","","","","","","","","","","",""
"learning-trial","121","630920","0.0-9.0-2.0-1.17","1545","1","2","""event"",""trial"",""time""
""fullscreenenter"",""1"",""2674""
","
","
","""event"",""trial"",""time""
""fullscreenenter"",""1"",""2674""
","
","","","","","","1716.9000000357628","images/apple2.png","","","learning","images/fruit_choice1.png","images/fruit_choice3.png","images/fruit_choice2.png","[0,2,1]","1","2","3","images/fruit_choice2.png","1","fruit","","apple","1","0"
"html-keyboard-response","122","631421","0.0-9.0-2.0-0.18","1545","1","2","""event"",""trial"",""time""
""fullscreenenter"",""1"",""2674""
","
","
","""event"",""trial"",""time""
""fullscreenenter"",""1"",""2674""
","
","","","","","","null","<div style=""font-size:60px;"">+</div>","null","","fixation","","","","","","","","","","","","","",""
"learning-trial","123","635424","0.0-9.0-2.0-1.18","1545","1","2","""event"",""trial"",""time""
""fullscreenenter"",""1"",""2674""
","
","
","""event"",""trial"",""time""
""fullscreenenter"",""1"",""2674""
","
","","","","","","2215","images/orange5.png","","","learning","images/fruit_choice2.png","images/fruit_choice3.png","images/fruit_choice1.png","[1,2,0]","0","2","3","images/fruit_choice1.png","1","fruit","","orange","1","0"
"html-keyboard-response","124","635925","0.0-9.0-2.0-0.19","1545","1","2","""event"",""trial"",""time""
""fullscreenenter"",""1"",""2674""
","
","
","""event"",""trial"",""time""
""fullscreenenter"",""1"",""2674""
","
","","","","","","null","<div style=""font-size:60px;"">+</div>","null","","fixation","","","","","","","","","","","","","",""
"learning-trial","125","639929","0.0-9.0-2.0-1.19","1545","1","2","""event"",""trial"",""time""
""fullscreenenter"",""1"",""2674""
","
","
","""event"",""trial"",""time""
""fullscreenenter"",""1"",""2674""
","
","","","","","","1799.6000000238419","images/banana3.png","","","learning","images/fruit_choice3.png","images/fruit_choice1.png","images/fruit_choice2.png","[2,0,1]","2","0","1","images/fruit_choice3.png","1","fruit","","banana","1","0"
"html-keyboard-response","126","640430","0.0-9.0-2.0-0.20","1545","1","2","""event"",""trial"",""time""
""fullscreenenter"",""1"",""2674""
","
","
","""event"",""trial"",""time""
""fullscreenenter"",""1"",""2674""
","
","","","","","","null","<div style=""font-size:60px;"">+</div>","null","","fixation","","","","","","","","","","","","","",""
"learning-trial","127","644434","0.0-9.0-2.0-1.20","1545","1","2","""event"",""trial"",""time""
""fullscreenenter"",""1"",""2674""
","
","
","""event"",""trial"",""time""
""fullscreenenter"",""1"",""2674""
","
","","","","","","1413.300000011921","images/banana1.png","","","learning","images/fruit_choice2.png","images/fruit_choice1.png","images/fruit_choice3.png","[1,0,2]","2","2","3","images/fruit_choice3.png","1","fruit","","banana","1","0"
"html-keyboard-response","128","644936","0.0-9.0-2.0-0.21","1545","1","2","""event"",""trial"",""time""
""fullscreenenter"",""1"",""2674""
","
","
","""event"",""trial"",""time""
""fullscreenenter"",""1"",""2674""
","
","","","","","","null","<div style=""font-size:60px;"">+</div>","null","","fixation","","","","","","","","","","","","","",""
"learning-trial","129","648939","0.0-9.0-2.0-1.21","1545","1","2","""event"",""trial"",""time""
""fullscreenenter"",""1"",""2674""
","
","
","""event"",""trial"",""time""
""fullscreenenter"",""1"",""2674""
","
","","","","","","1486.2999999523163","images/apple1.png","","","learning","images/fruit_choice3.png","images/fruit_choice2.png","images/fruit_choice1.png","[2,1,0]","1","1","2","images/fruit_choice2.png","1","fruit","","apple","1","0"
"html-keyboard-response","130","649440","0.0-9.0-2.0-0.22","1545","1","2","""event"",""trial"",""time""
""fullscreenenter"",""1"",""2674""
","
","
","""event"",""trial"",""time""
""fullscreenenter"",""1"",""2674""
","
","","","","","","null","<div style=""font-size:60px;"">+</div>","null","","fixation","","","","","","","","","","","","","",""
"learning-trial","131","653443","0.0-9.0-2.0-1.22","1545","1","2","""event"",""trial"",""time""
""fullscreenenter"",""1"",""2674""
","
","
","""event"",""trial"",""time""
""fullscreenenter"",""1"",""2674""
","
","","","","","","1183.5","images/orange3.png","","","learning","images/fruit_choice2.png","images/fruit_choice3.png","images/fruit_choice1.png","[1,2,0]","0","2","3","images/fruit_choice1.png","1","fruit","","orange","1","0"
"html-keyboard-response","132","653945","0.0-9.0-2.0-0.23","1545","1","2","""event"",""trial"",""time""
""fullscreenenter"",""1"",""2674""
","
","
","""event"",""trial"",""time""
""fullscreenenter"",""1"",""2674""
","
","","","","","","null","<div style=""font-size:60px;"">+</div>","null","","fixation","","","","","","","","","","","","","",""
"learning-trial","133","657949","0.0-9.0-2.0-1.23","1545","1","2","""event"",""trial"",""time""
""fullscreenenter"",""1"",""2674""
","
","
","""event"",""trial"",""time""
""fullscreenenter"",""1"",""2674""
","
","","","","","","2226.099999964237","images/apple1.png","","","learning","images/fruit_choice2.png","images/fruit_choice3.png","images/fruit_choice1.png","[1,2,0]","1","0","1","images/fruit_choice2.png","-1","fruit","","apple","1","0"
"html-keyboard-response","134","658450","0.0-9.0-2.0-0.24","1545","1","2","""event"",""trial"",""time""
""fullscreenenter"",""1"",""2674""
","
","
","""event"",""trial"",""time""
""fullscreenenter"",""1"",""2674""
","
","","","","","","null","<div style=""font-size:60px;"">+</div>","null","","fixation","","","","","","","","","","","","","",""
"learning-trial","135","662454","0.0-9.0-2.0-1.24","1545","1","2","""event"",""trial"",""time""
""fullscreenenter"",""1"",""2674""
","
","
","""event"",""trial"",""time""
""fullscreenenter"",""1"",""2674""
","
","","","","","","1150.5999999642372","images/apple3.png","","","learning","images/fruit_choice1.png","images/fruit_choice3.png","images/fruit_choice2.png","[0,2,1]","1","2","3","images/fruit_choice2.png","1","fruit","","apple","1","0"
"html-keyboard-response","136","662955","0.0-9.0-2.0-0.25","1545","1","2","""event"",""trial"",""time""
""fullscreenenter"",""1"",""2674""
","
","
","""event"",""trial"",""time""
""fullscreenenter"",""1"",""2674""
","
","","","","","","null","<div style=""font-size:60px;"">+</div>","null","","fixation","","","","","","","","","","","","","",""
"learning-trial","137","666957","0.0-9.0-2.0-1.25","1545","1","2","""event"",""trial"",""time""
""fullscreenenter"",""1"",""2674""
","
","
","""event"",""trial"",""time""
""fullscreenenter"",""1"",""2674""
","
","","","","","","1357.4000000357628","images/banana1.png","","","learning","images/fruit_choice3.png","images/fruit_choice1.png","images/fruit_choice2.png","[2,0,1]","2","0","1","images/fruit_choice3.png","1","fruit","","banana","1","0"
"html-keyboard-response","138","667459","0.0-9.0-2.0-0.26","1545","1","2","""event"",""trial"",""time""
""fullscreenenter"",""1"",""2674""
","
","
","""event"",""trial"",""time""
""fullscreenenter"",""1"",""2674""
","
","","","","","","null","<div style=""font-size:60px;"">+</div>","null","","fixation","","","","","","","","","","","","","",""
"learning-trial","139","671463","0.0-9.0-2.0-1.26","1545","1","2","""event"",""trial"",""time""
""fullscreenenter"",""1"",""2674""
","
","
","""event"",""trial"",""time""
""fullscreenenter"",""1"",""2674""
","
","","","","","","746.5999999642372","images/orange5.png","","","learning","images/fruit_choice3.png","images/fruit_choice1.png","images/fruit_choice2.png","[2,0,1]","0","1","2","images/fruit_choice1.png","1","fruit","","orange","1","0"
"html-keyboard-response","140","671965","0.0-9.0-2.0-0.27","1545","1","2","""event"",""trial"",""time""
""fullscreenenter"",""1"",""2674""
","
","
","""event"",""trial"",""time""
""fullscreenenter"",""1"",""2674""
","
","","","","","","null","<div style=""font-size:60px;"">+</div>","null","","fixation","","","","","","","","","","","","","",""
"learning-trial","141","675968","0.0-9.0-2.0-1.27","1545","1","2","""event"",""trial"",""time""
""fullscreenenter"",""1"",""2674""
","
","
","""event"",""trial"",""time""
""fullscreenenter"",""1"",""2674""
","
","","","","","","1362.7000000476837","images/apple1.png","","","learning","images/fruit_choice2.png","images/fruit_choice3.png","images/fruit_choice1.png","[1,2,0]","1","0","1","images/fruit_choice2.png","1","fruit","","apple","1","0"
"html-keyboard-response","142","676470","0.0-9.0-2.0-0.28","1545","1","2","""event"",""trial"",""time""
""fullscreenenter"",""1"",""2674""
","
","
","""event"",""trial"",""time""
""fullscreenenter"",""1"",""2674""
","
","","","","","","null","<div style=""font-size:60px;"">+</div>","null","","fixation","","","","","","","","","","","","","",""
"learning-trial","143","680474","0.0-9.0-2.0-1.28","1545","1","2","""event"",""trial"",""time""
""fullscreenenter"",""1"",""2674""
","
","
","""event"",""trial"",""time""
""fullscreenenter"",""1"",""2674""
","
","","","","","","984.6000000238419","images/orange5.png","","","learning","images/fruit_choice2.png","images/fruit_choice1.png","images/fruit_choice3.png","[1,0,2]","0","1","2","images/fruit_choice1.png","1","fruit","","orange","1","0"
"html-keyboard-response","144","680976","0.0-9.0-2.0-0.29","1545","1","2","""event"",""trial"",""time""
""fullscreenenter"",""1"",""2674""
","
","
","""event"",""trial"",""time""
""fullscreenenter"",""1"",""2674""
","
","","","","","","null","<div style=""font-size:60px;"">+</div>","null","","fixation","","","","","","","","","","","","","",""
"learning-trial","145","684979","0.0-9.0-2.0-1.29","1545","1","2","""event"",""trial"",""time""
""fullscreenenter"",""1"",""2674""
","
","
","""event"",""trial"",""time""
""fullscreenenter"",""1"",""2674""
","
","","","","","","1611.5999999642372","images/apple3.png","","","learning","images/fruit_choice2.png","images/fruit_choice3.png","images/fruit_choice1.png","[1,2,0]","1","0","1","images/fruit_choice2.png","1","fruit","","apple","1","0"
"html-keyboard-response","146","685481","0.0-9.0-2.0-0.30","1545","1","2","""event"",""trial"",""time""
""fullscreenenter"",""1"",""2674""
","
","
","""event"",""trial"",""time""
""fullscreenenter"",""1"",""2674""
","
","","","","","","null","<div style=""font-size:60px;"">+</div>","null","","fixation","","","","","","","","","","","","","",""
"learning-trial","147","689486","0.0-9.0-2.0-1.30","1545","1","2","""event"",""trial"",""time""
""fullscreenenter"",""1"",""2674""
","
","
","""event"",""trial"",""time""
""fullscreenenter"",""1"",""2674""
","
","","","","","","1038.5","images/apple2.png","","","learning","images/fruit_choice2.png","images/fruit_choice1.png","images/fruit_choice3.png","[1,0,2]","1","0","1","images/fruit_choice2.png","1","fruit","","apple","1","0"
"html-keyboard-response","148","690002","0.0-9.0-2.0-0.31","1545","1","2","""event"",""trial"",""time""
""fullscreenenter"",""1"",""2674""
","
","
","""event"",""trial"",""time""
""fullscreenenter"",""1"",""2674""
","
","","","","","","null","<div style=""font-size:60px;"">+</div>","null","","fixation","","","","","","","","","","","","","",""
"learning-trial","149","694005","0.0-9.0-2.0-1.31","1545","1","2","""event"",""trial"",""time""
""fullscreenenter"",""1"",""2674""
","
","
","""event"",""trial"",""time""
""fullscreenenter"",""1"",""2674""
","
","","","","","","998.3000000119209","images/apple2.png","","","learning","images/fruit_choice1.png","images/fruit_choice3.png","images/fruit_choice2.png","[0,2,1]","1","2","3","images/fruit_choice2.png","-1","fruit","","apple","1","0"
"html-keyboard-response","150","694507","0.0-9.0-2.0-0.32","1545","1","2","""event"",""trial"",""time""
""fullscreenenter"",""1"",""2674""
","
","
","""event"",""trial"",""time""
""fullscreenenter"",""1"",""2674""
","
","","","","","","null","<div style=""font-size:60px;"">+</div>","null","","fixation","","","","","","","","","","","","","",""
"learning-trial","151","698511","0.0-9.0-2.0-1.32","1545","1","2","""event"",""trial"",""time""
""fullscreenenter"",""1"",""2674""
","
","
","""event"",""trial"",""time""
""fullscreenenter"",""1"",""2674""
","
","","","","","","982.5999999642372","images/orange4.png","","","learning","images/fruit_choice1.png","images/fruit_choice2.png","images/fruit_choice3.png","[0,1,2]","0","0","1","images/fruit_choice1.png","1","fruit","","orange","1","0"
"html-keyboard-response","152","699013","0.0-9.0-2.0-0.33","1545","1","2","""event"",""trial"",""time""
""fullscreenenter"",""1"",""2674""
","
","
","""event"",""trial"",""time""
""fullscreenenter"",""1"",""2674""
","
","","","","","","null","<div style=""font-size:60px;"">+</div>","null","","fixation","","","","","","","","","","","","","",""
"learning-trial","153","703016","0.0-9.0-2.0-1.33","1545","1","2","""event"",""trial"",""time""
""fullscreenenter"",""1"",""2674""
","
","
","""event"",""trial"",""time""
""fullscreenenter"",""1"",""2674""
","
","","","","","","1270.4000000357628","images/apple3.png","","","learning","images/fruit_choice3.png","images/fruit_choice2.png","images/fruit_choice1.png","[2,1,0]","1","1","2","images/fruit_choice2.png","1","fruit","","apple","1","0"
"html-keyboard-response","154","703518","0.0-9.0-2.0-0.34","1545","1","2","""event"",""trial"",""time""
""fullscreenenter"",""1"",""2674""
","
","
","""event"",""trial"",""time""
""fullscreenenter"",""1"",""2674""
","
","","","","","","null","<div style=""font-size:60px;"">+</div>","null","","fixation","","","","","","","","","","","","","",""
"learning-trial","155","707521","0.0-9.0-2.0-1.34","1545","1","2","""event"",""trial"",""time""
""fullscreenenter"",""1"",""2674""
","
","
","""event"",""trial"",""time""
""fullscreenenter"",""1"",""2674""
","
","","","","","","920.3000000119209","images/apple1.png","","","learning","images/fruit_choice2.png","images/fruit_choice3.png","images/fruit_choice1.png","[1,2,0]","1","0","1","images/fruit_choice2.png","1","fruit","","apple","1","0"
"html-keyboard-response","156","708023","0.0-9.0-2.0-0.35","1545","1","2","""event"",""trial"",""time""
""fullscreenenter"",""1"",""2674""
","
","
","""event"",""trial"",""time""
""fullscreenenter"",""1"",""2674""
","
","","","","","","null","<div style=""font-size:60px;"">+</div>","null","","fixation","","","","","","","","","","","","","",""
"learning-trial","157","712025","0.0-9.0-2.0-1.35","1545","1","2","""event"",""trial"",""time""
""fullscreenenter"",""1"",""2674""
","
","
","""event"",""trial"",""time""
""fullscreenenter"",""1"",""2674""
","
","","","","","","1298.4000000357628","images/apple2.png","","","learning","images/fruit_choice2.png","images/fruit_choice1.png","images/fruit_choice3.png","[1,0,2]","1","0","1","images/fruit_choice2.png","1","fruit","","apple","1","0"
"html-keyboard-response","158","712527","0.0-9.0-2.0-0.36","1545","1","2","""event"",""trial"",""time""
""fullscreenenter"",""1"",""2674""
","
","
","""event"",""trial"",""time""
""fullscreenenter"",""1"",""2674""
","
","","","","","","null","<div style=""font-size:60px;"">+</div>","null","","fixation","","","","","","","","","","","","","",""
"learning-trial","159","716530","0.0-9.0-2.0-1.36","1545","1","2","""event"",""trial"",""time""
""fullscreenenter"",""1"",""2674""
","
","
","""event"",""trial"",""time""
""fullscreenenter"",""1"",""2674""
","
","","","","","","1497","images/banana2.png","","","learning","images/fruit_choice1.png","images/fruit_choice2.png","images/fruit_choice3.png","[0,1,2]","2","2","3","images/fruit_choice3.png","1","fruit","","banana","1","0"
"html-keyboard-response","160","717031","0.0-9.0-2.0-0.37","1545","1","2","""event"",""trial"",""time""
""fullscreenenter"",""1"",""2674""
","
","
","""event"",""trial"",""time""
""fullscreenenter"",""1"",""2674""
","
","","","","","","null","<div style=""font-size:60px;"">+</div>","null","","fixation","","","","","","","","","","","","","",""
"learning-trial","161","721035","0.0-9.0-2.0-1.37","1545","1","2","""event"",""trial"",""time""
""fullscreenenter"",""1"",""2674""
","
","
","""event"",""trial"",""time""
""fullscreenenter"",""1"",""2674""
","
","","","","","","1177.300000011921","images/orange3.png","","","learning","images/fruit_choice3.png","images/fruit_choice2.png","images/fruit_choice1.png","[2,1,0]","0","2","3","images/fruit_choice1.png","1","fruit","","orange","1","0"
"html-keyboard-response","162","721536","0.0-9.0-2.0-0.38","1545","1","2","""event"",""trial"",""time""
""fullscreenenter"",""1"",""2674""
","
","
","""event"",""trial"",""time""
""fullscreenenter"",""1"",""2674""
","
","","","","","","null","<div style=""font-size:60px;"">+</div>","null","","fixation","","","","","","","","","","","","","",""
"learning-trial","163","725538","0.0-9.0-2.0-1.38","1545","1","2","""event"",""trial"",""time""
""fullscreenenter"",""1"",""2674""
","
","
","""event"",""trial"",""time""
""fullscreenenter"",""1"",""2674""
","
","","","","","","1885.4000000357628","images/apple2.png","","","learning","images/fruit_choice1.png","images/fruit_choice3.png","images/fruit_choice2.png","[0,2,1]","1","2","3","images/fruit_choice2.png","1","fruit","","apple","1","0"
"html-keyboard-response","164","726040","0.0-9.0-2.0-0.39","1545","1","2","""event"",""trial"",""time""
""fullscreenenter"",""1"",""2674""
","
","
","""event"",""trial"",""time""
""fullscreenenter"",""1"",""2674""
","
","","","","","","null","<div style=""font-size:60px;"">+</div>","null","","fixation","","","","","","","","","","","","","",""
"learning-trial","165","730043","0.0-9.0-2.0-1.39","1545","1","2","""event"",""trial"",""time""
""fullscreenenter"",""1"",""2674""
","
","
","""event"",""trial"",""time""
""fullscreenenter"",""1"",""2674""
","
","","","","","","916.8999999761581","images/orange3.png","","","learning","images/fruit_choice1.png","images/fruit_choice3.png","images/fruit_choice2.png","[0,2,1]","0","0","1","images/fruit_choice1.png","1","fruit","","orange","1","0"
"html-keyboard-response","166","730544","0.0-9.0-2.0-0.40","1545","1","2","""event"",""trial"",""time""
""fullscreenenter"",""1"",""2674""
","
","
","""event"",""trial"",""time""
""fullscreenenter"",""1"",""2674""
","
","","","","","","null","<div style=""font-size:60px;"">+</div>","null","","fixation","","","","","","","","","","","","","",""
"learning-trial","167","734548","0.0-9.0-2.0-1.40","1545","1","2","""event"",""trial"",""time""
""fullscreenenter"",""1"",""2674""
","
","
","""event"",""trial"",""time""
""fullscreenenter"",""1"",""2674""
","
","","","","","","1023.5","images/apple3.png","","","learning","images/fruit_choice2.png","images/fruit_choice1.png","images/fruit_choice3.png","[1,0,2]","1","0","1","images/fruit_choice2.png","1","fruit","","apple","1","0"
"html-keyboard-response","168","735050","0.0-9.0-2.0-0.41","1545","1","2","""event"",""trial"",""time""
""fullscreenenter"",""1"",""2674""
","
","
","""event"",""trial"",""time""
""fullscreenenter"",""1"",""2674""
","
","","","","","","null","<div style=""font-size:60px;"">+</div>","null","","fixation","","","","","","","","","","","","","",""
"learning-trial","169","739055","0.0-9.0-2.0-1.41","1545","1","2","""event"",""trial"",""time""
""fullscreenenter"",""1"",""2674""
","
","
","""event"",""trial"",""time""
""fullscreenenter"",""1"",""2674""
","
","","","","","","1444.4000000357628","images/banana1.png","","","learning","images/fruit_choice1.png","images/fruit_choice2.png","images/fruit_choice3.png","[0,1,2]","2","2","3","images/fruit_choice3.png","1","fruit","","banana","1","0"
"html-keyboard-response","170","739556","0.0-9.0-2.0-0.42","1545","1","2","""event"",""trial"",""time""
""fullscreenenter"",""1"",""2674""
","
","
","""event"",""trial"",""time""
""fullscreenenter"",""1"",""2674""
","
","","","","","","null","<div style=""font-size:60px;"">+</div>","null","","fixation","","","","","","","","","","","","","",""
"learning-trial","171","743559","0.0-9.0-2.0-1.42","1545","1","2","""event"",""trial"",""time""
""fullscreenenter"",""1"",""2674""
","
","
","""event"",""trial"",""time""
""fullscreenenter"",""1"",""2674""
","
","","","","","","1122.199999988079","images/banana3.png","","","learning","images/fruit_choice2.png","images/fruit_choice3.png","images/fruit_choice1.png","[1,2,0]","2","1","2","images/fruit_choice3.png","1","fruit","","banana","1","0"
"html-keyboard-response","172","744061","0.0-9.0-2.0-0.43","1545","1","2","""event"",""trial"",""time""
""fullscreenenter"",""1"",""2674""
","
","
","""event"",""trial"",""time""
""fullscreenenter"",""1"",""2674""
","
","","","","","","null","<div style=""font-size:60px;"">+</div>","null","","fixation","","","","","","","","","","","","","",""
"learning-trial","173","748064","0.0-9.0-2.0-1.43","1545","1","2","""event"",""trial"",""time""
""fullscreenenter"",""1"",""2674""
","
","
","""event"",""trial"",""time""
""fullscreenenter"",""1"",""2674""
","
","","","","","","1031.800000011921","images/banana3.png","","","learning","images/fruit_choice3.png","images/fruit_choice1.png","images/fruit_choice2.png","[2,0,1]","2","0","1","images/fruit_choice3.png","1","fruit","","banana","1","0"
"html-keyboard-response","174","748566","0.0-9.0-2.0-0.44","1545","1","2","""event"",""trial"",""time""
""fullscreenenter"",""1"",""2674""
","
","
","""event"",""trial"",""time""
""fullscreenenter"",""1"",""2674""
","
","","","","","","null","<div style=""font-size:60px;"">+</div>","null","","fixation","","","","","","","","","","","","","",""
"learning-trial","175","752569","0.0-9.0-2.0-1.44","1545","1","2","""event"",""trial"",""time""
""fullscreenenter"",""1"",""2674""
","
","
","""event"",""trial"",""time""
""fullscreenenter"",""1"",""2674""
","
","","","","","","962.1999999880791","images/banana2.png","","","learning","images/fruit_choice1.png","images/fruit_choice3.png","images/fruit_choice2.png","[0,2,1]","2","1","2","images/fruit_choice3.png","1","fruit","","banana","1","0"
"html-keyboard-response","176","753071","0.0-9.0-2.0-0.45","1545","1","2","""event"",""trial"",""time""
""fullscreenenter"",""1"",""2674""
","
","
","""event"",""trial"",""time""
""fullscreenenter"",""1"",""2674""
","
","","","","","","null","<div style=""font-size:60px;"">+</div>","null","","fixation","","","","","","","","","","","","","",""
"learning-trial","177","757074","0.0-9.0-2.0-1.45","1545","1","2","""event"",""trial"",""time""
""fullscreenenter"",""1"",""2674""
","
","
","""event"",""trial"",""time""
""fullscreenenter"",""1"",""2674""
","
","","","","","","2022.0999999642372","images/apple1.png","","","learning","images/fruit_choice3.png","images/fruit_choice2.png","images/fruit_choice1.png","[2,1,0]","1","1","2","images/fruit_choice2.png","1","fruit","","apple","1","0"
"html-keyboard-response","178","757576","0.0-9.0-2.0-0.46","1545","1","2","""event"",""trial"",""time""
""fullscreenenter"",""1"",""2674""
","
","
","""event"",""trial"",""time""
""fullscreenenter"",""1"",""2674""
","
","","","","","","null","<div style=""font-size:60px;"">+</div>","null","","fixation","","","","","","","","","","","","","",""
"learning-trial","179","761579","0.0-9.0-2.0-1.46","1545","1","2","""event"",""trial"",""time""
""fullscreenenter"",""1"",""2674""
","
","
","""event"",""trial"",""time""
""fullscreenenter"",""1"",""2674""
","
","","","","","","868.8000000119209","images/banana1.png","","","learning","images/fruit_choice2.png","images/fruit_choice3.png","images/fruit_choice1.png","[1,2,0]","2","1","2","images/fruit_choice3.png","1","fruit","","banana","1","0"
"html-keyboard-response","180","762081","0.0-9.0-2.0-0.47","1545","1","2","""event"",""trial"",""time""
""fullscreenenter"",""1"",""2674""
","
","
","""event"",""trial"",""time""
""fullscreenenter"",""1"",""2674""
","
","","","","","","null","<div style=""font-size:60px;"">+</div>","null","","fixation","","","","","","","","","","","","","",""
"learning-trial","181","766084","0.0-9.0-2.0-1.47","1545","1","2","""event"",""trial"",""time""
""fullscreenenter"",""1"",""2674""
","
","
","""event"",""trial"",""time""
""fullscreenenter"",""1"",""2674""
","
","","","","","","1107.699999988079","images/orange4.png","","","learning","images/fruit_choice2.png","images/fruit_choice1.png","images/fruit_choice3.png","[1,0,2]","0","1","2","images/fruit_choice1.png","1","fruit","","orange","1","0"
"html-keyboard-response","182","766585","0.0-9.0-2.0-0.48","1545","1","2","""event"",""trial"",""time""
""fullscreenenter"",""1"",""2674""
","
","
","""event"",""trial"",""time""
""fullscreenenter"",""1"",""2674""
","
","","","","","","null","<div style=""font-size:60px;"">+</div>","null","","fixation","","","","","","","","","","","","","",""
"learning-trial","183","770588","0.0-9.0-2.0-1.48","1545","1","2","""event"",""trial"",""time""
""fullscreenenter"",""1"",""2674""
","
","
","""event"",""trial"",""time""
""fullscreenenter"",""1"",""2674""
","
","","","","","","1628.800000011921","images/apple1.png","","","learning","images/fruit_choice3.png","images/fruit_choice2.png","images/fruit_choice1.png","[2,1,0]","1","1","2","images/fruit_choice2.png","1","fruit","","apple","1","0"
"html-keyboard-response","184","771089","0.0-9.0-2.0-0.49","1545","1","2","""event"",""trial"",""time""
""fullscreenenter"",""1"",""2674""
","
","
","""event"",""trial"",""time""
""fullscreenenter"",""1"",""2674""
","
","","","","","","null","<div style=""font-size:60px;"">+</div>","null","","fixation","","","","","","","","","","","","","",""
"learning-trial","185","775092","0.0-9.0-2.0-1.49","1545","1","2","""event"",""trial"",""time""
""fullscreenenter"",""1"",""2674""
","
","
","""event"",""trial"",""time""
""fullscreenenter"",""1"",""2674""
","
","","","","","","950.5999999642372","images/orange4.png","","","learning","images/fruit_choice1.png","images/fruit_choice2.png","images/fruit_choice3.png","[0,1,2]","0","0","1","images/fruit_choice1.png","1","fruit","","orange","1","0"
"html-keyboard-response","186","775593","0.0-9.0-2.0-0.50","1545","1","2","""event"",""trial"",""time""
""fullscreenenter"",""1"",""2674""
","
","
","""event"",""trial"",""time""
""fullscreenenter"",""1"",""2674""
","
","","","","","","null","<div style=""font-size:60px;"">+</div>","null","","fixation","","","","","","","","","","","","","",""
"learning-trial","187","779597","0.0-9.0-2.0-1.50","1545","1","2","""event"",""trial"",""time""
""fullscreenenter"",""1"",""2674""
","
","
","""event"",""trial"",""time""
""fullscreenenter"",""1"",""2674""
","
","","","","","","1886.4000000357628","images/banana3.png","","","learning","images/fruit_choice2.png","images/fruit_choice3.png","images/fruit_choice1.png","[1,2,0]","2","1","2","images/fruit_choice3.png","1","fruit","","banana","1","0"
"html-keyboard-response","188","780099","0.0-9.0-2.0-0.51","1545","1","2","""event"",""trial"",""time""
""fullscreenenter"",""1"",""2674""
","
","
","""event"",""trial"",""time""
""fullscreenenter"",""1"",""2674""
","
","","","","","","null","<div style=""font-size:60px;"">+</div>","null","","fixation","","","","","","","","","","","","","",""
"learning-trial","189","784113","0.0-9.0-2.0-1.51","1545","1","2","""event"",""trial"",""time""
""fullscreenenter"",""1"",""2674""
","
","
","""event"",""trial"",""time""
""fullscreenenter"",""1"",""2674""
","
","","","","","","842.5","images/apple1.png","","","learning","images/fruit_choice3.png","images/fruit_choice1.png","images/fruit_choice2.png","[2,0,1]","1","2","3","images/fruit_choice2.png","1","fruit","","apple","1","0"
"html-keyboard-response","190","784615","0.0-9.0-2.0-0.52","1545","1","2","""event"",""trial"",""time""
""fullscreenenter"",""1"",""2674""
","
","
","""event"",""trial"",""time""
""fullscreenenter"",""1"",""2674""
","
","","","","","","null","<div style=""font-size:60px;"">+</div>","null","","fixation","","","","","","","","","","","","","",""
"learning-trial","191","788618","0.0-9.0-2.0-1.52","1545","1","2","""event"",""trial"",""time""
""fullscreenenter"",""1"",""2674""
","
","
","""event"",""trial"",""time""
""fullscreenenter"",""1"",""2674""
","
","","","","","","1439.3999999761581","images/apple3.png","","","learning","images/fruit_choice3.png","images/fruit_choice1.png","images/fruit_choice2.png","[2,0,1]","1","2","1","images/fruit_choice3.png","-1","fruit","","apple","1","0"
"html-keyboard-response","192","789119","0.0-9.0-2.0-0.53","1545","1","2","""event"",""trial"",""time""
""fullscreenenter"",""1"",""2674""
","
","
","""event"",""trial"",""time""
""fullscreenenter"",""1"",""2674""
","
","","","","","","null","<div style=""font-size:60px;"">+</div>","null","","fixation","","","","","","","","","","","","","",""
"learning-trial","193","793122","0.0-9.0-2.0-1.53","1545","1","2","""event"",""trial"",""time""
""fullscreenenter"",""1"",""2674""
","
","
","""event"",""trial"",""time""
""fullscreenenter"",""1"",""2674""
","
","","","","","","886.5","images/orange5.png","","","learning","images/fruit_choice2.png","images/fruit_choice1.png","images/fruit_choice3.png","[1,0,2]","0","1","2","images/fruit_choice1.png","1","fruit","","orange","1","0"
"html-keyboard-response","194","793624","0.0-9.0-2.0-0.54","1545","1","2","""event"",""trial"",""time""
""fullscreenenter"",""1"",""2674""
","
","
","""event"",""trial"",""time""
""fullscreenenter"",""1"",""2674""
","
","","","","","","null","<div style=""font-size:60px;"">+</div>","null","","fixation","","","","","","","","","","","","","",""
"learning-trial","195","797626","0.0-9.0-2.0-1.54","1545","1","2","""event"",""trial"",""time""
""fullscreenenter"",""1"",""2674""
","
","
","""event"",""trial"",""time""
""fullscreenenter"",""1"",""2674""
","
","","","","","","1039.4000000357628","images/banana1.png","","","learning","images/fruit_choice3.png","images/fruit_choice1.png","images/fruit_choice2.png","[2,0,1]","2","0","1","images/fruit_choice3.png","1","fruit","","banana","1","0"
"html-keyboard-response","196","798128","0.0-9.0-2.0-0.55","1545","1","2","""event"",""trial"",""time""
""fullscreenenter"",""1"",""2674""
","
","
","""event"",""trial"",""time""
""fullscreenenter"",""1"",""2674""
","
","","","","","","null","<div style=""font-size:60px;"">+</div>","null","","fixation","","","","","","","","","","","","","",""
"learning-trial","197","802131","0.0-9.0-2.0-1.55","1545","1","2","""event"",""trial"",""time""
""fullscreenenter"",""1"",""2674""
","
","
","""event"",""trial"",""time""
""fullscreenenter"",""1"",""2674""
","
","","","","","","934","images/apple2.png","","","learning","images/fruit_choice2.png","images/fruit_choice3.png","images/fruit_choice1.png","[1,2,0]","1","0","1","images/fruit_choice2.png","1","fruit","","apple","1","0"
"html-keyboard-response","198","802632","0.0-9.0-2.0-0.56","1545","1","2","""event"",""trial"",""time""
""fullscreenenter"",""1"",""2674""
","
","
","""event"",""trial"",""time""
""fullscreenenter"",""1"",""2674""
","
","","","","","","null","<div style=""font-size:60px;"">+</div>","null","","fixation","","","","","","","","","","","","","",""
"learning-trial","199","806636","0.0-9.0-2.0-1.56","1545","1","2","""event"",""trial"",""time""
""fullscreenenter"",""1"",""2674""
","
","
","""event"",""trial"",""time""
""fullscreenenter"",""1"",""2674""
","
","","","","","","1137.699999988079","images/banana1.png","","","learning","images/fruit_choice1.png","images/fruit_choice2.png","images/fruit_choice3.png","[0,1,2]","2","2","3","images/fruit_choice3.png","1","fruit","","banana","1","0"
"html-keyboard-response","200","807138","0.0-9.0-2.0-0.57","1545","1","2","""event"",""trial"",""time""
""fullscreenenter"",""1"",""2674""
","
","
","""event"",""trial"",""time""
""fullscreenenter"",""1"",""2674""
","
","","","","","","null","<div style=""font-size:60px;"">+</div>","null","","fixation","","","","","","","","","","","","","",""
"learning-trial","201","811141","0.0-9.0-2.0-1.57","1545","1","2","""event"",""trial"",""time""
""fullscreenenter"",""1"",""2674""
","
","
","""event"",""trial"",""time""
""fullscreenenter"",""1"",""2674""
","
","","","","","","1061.5","images/banana2.png","","","learning","images/fruit_choice3.png","images/fruit_choice1.png","images/fruit_choice2.png","[2,0,1]","2","0","1","images/fruit_choice3.png","1","fruit","","banana","1","0"
"html-keyboard-response","202","811643","0.0-9.0-2.0-0.58","1545","1","2","""event"",""trial"",""time""
""fullscreenenter"",""1"",""2674""
","
","
","""event"",""trial"",""time""
""fullscreenenter"",""1"",""2674""
","
","","","","","","null","<div style=""font-size:60px;"">+</div>","null","","fixation","","","","","","","","","","","","","",""
"learning-trial","203","815645","0.0-9.0-2.0-1.58","1545","1","2","""event"",""trial"",""time""
""fullscreenenter"",""1"",""2674""
","
","
","""event"",""trial"",""time""
""fullscreenenter"",""1"",""2674""
","
","","","","","","931.4000000357628","images/apple3.png","","","learning","images/fruit_choice2.png","images/fruit_choice3.png","images/fruit_choice1.png","[1,2,0]","1","0","1","images/fruit_choice2.png","1","fruit","","apple","1","0"
"html-keyboard-response","204","816147","0.0-9.0-2.0-0.59","1545","1","2","""event"",""trial"",""time""
""fullscreenenter"",""1"",""2674""
","
","
","""event"",""trial"",""time""
""fullscreenenter"",""1"",""2674""
","
","","","","","","null","<div style=""font-size:60px;"">+</div>","null","","fixation","","","","","","","","","","","","","",""
"learning-trial","205","820150","0.0-9.0-2.0-1.59","1545","1","2","""event"",""trial"",""time""
""fullscreenenter"",""1"",""2674""
","
","
","""event"",""trial"",""time""
""fullscreenenter"",""1"",""2674""
","
","","","","","","799.5","images/orange3.png","","","learning","images/fruit_choice1.png","images/fruit_choice2.png","images/fruit_choice3.png","[0,1,2]","0","0","1","images/fruit_choice1.png","1","fruit","","orange","1","0"
"html-keyboard-response","206","820651","0.0-9.0-2.0-0.60","1545","1","2","""event"",""trial"",""time""
""fullscreenenter"",""1"",""2674""
","
","
","""event"",""trial"",""time""
""fullscreenenter"",""1"",""2674""
","
","","","","","","null","<div style=""font-size:60px;"">+</div>","null","","fixation","","","","","","","","","","","","","",""
"learning-trial","207","824655","0.0-9.0-2.0-1.60","1545","1","2","""event"",""trial"",""time""
""fullscreenenter"",""1"",""2674""
","
","
","""event"",""trial"",""time""
""fullscreenenter"",""1"",""2674""
","
","","","","","","871.6999999880791","images/orange4.png","","","learning","images/fruit_choice3.png","images/fruit_choice2.png","images/fruit_choice1.png","[2,1,0]","0","2","3","images/fruit_choice1.png","1","fruit","","orange","1","0"
"html-keyboard-response","208","825156","0.0-9.0-2.0-0.61","1545","1","2","""event"",""trial"",""time""
""fullscreenenter"",""1"",""2674""
","
","
","""event"",""trial"",""time""
""fullscreenenter"",""1"",""2674""
","
","","","","","","null","<div style=""font-size:60px;"">+</div>","null","","fixation","","","","","","","","","","","","","",""
"learning-trial","209","829160","0.0-9.0-2.0-1.61","1545","1","2","""event"",""trial"",""time""
""fullscreenenter"",""1"",""2674""
","
","
","""event"",""trial"",""time""
""fullscreenenter"",""1"",""2674""
","
","","","","","","1280.7000000476837","images/banana3.png","","","learning","images/fruit_choice3.png","images/fruit_choice1.png","images/fruit_choice2.png","[2,0,1]","2","0","1","images/fruit_choice3.png","1","fruit","","banana","1","0"
"html-keyboard-response","210","829661","0.0-9.0-2.0-0.62","1545","1","2","""event"",""trial"",""time""
""fullscreenenter"",""1"",""2674""
","
","
","""event"",""trial"",""time""
""fullscreenenter"",""1"",""2674""
","
","","","","","","null","<div style=""font-size:60px;"">+</div>","null","","fixation","","","","","","","","","","","","","",""
"learning-trial","211","833665","0.0-9.0-2.0-1.62","1545","1","2","""event"",""trial"",""time""
""fullscreenenter"",""1"",""2674""
","
","
","""event"",""trial"",""time""
""fullscreenenter"",""1"",""2674""
","
","","","","","","913.1000000238419","images/banana2.png","","","learning","images/fruit_choice1.png","images/fruit_choice2.png","images/fruit_choice3.png","[0,1,2]","2","2","3","images/fruit_choice3.png","1","fruit","","banana","1","0"
"html-keyboard-response","212","834166","0.0-9.0-2.0-0.63","1545","1","2","""event"",""trial"",""time""
""fullscreenenter"",""1"",""2674""
","
","
","""event"",""trial"",""time""
""fullscreenenter"",""1"",""2674""
","
","","","","","","null","<div style=""font-size:60px;"">+</div>","null","","fixation","","","","","","","","","","","","","",""
"learning-trial","213","838170","0.0-9.0-2.0-1.63","1545","1","2","""event"",""trial"",""time""
""fullscreenenter"",""1"",""2674""
","
","
","""event"",""trial"",""time""
""fullscreenenter"",""1"",""2674""
","
","","","","","","952.3000000119209","images/orange5.png","","","learning","images/fruit_choice3.png","images/fruit_choice2.png","images/fruit_choice1.png","[2,1,0]","0","2","3","images/fruit_choice1.png","1","fruit","","orange","1","0"
"html-keyboard-response","214","838672","0.0-9.0-2.0-0.64","1545","1","2","""event"",""trial"",""time""
""fullscreenenter"",""1"",""2674""
","
","
","""event"",""trial"",""time""
""fullscreenenter"",""1"",""2674""
","
","","","","","","null","<div style=""font-size:60px;"">+</div>","null","","fixation","","","","","","","","","","","","","",""
"learning-trial","215","842675","0.0-9.0-2.0-1.64","1545","1","2","""event"",""trial"",""time""
""fullscreenenter"",""1"",""2674""
","
","
","""event"",""trial"",""time""
""fullscreenenter"",""1"",""2674""
","
","","","","","","873.6000000238419","images/orange4.png","","","learning","images/fruit_choice3.png","images/fruit_choice2.png","images/fruit_choice1.png","[2,1,0]","0","2","3","images/fruit_choice1.png","1","fruit","","orange","1","0"
"html-keyboard-response","216","843176","0.0-9.0-2.0-0.65","1545","1","2","""event"",""trial"",""time""
""fullscreenenter"",""1"",""2674""
","
","
","""event"",""trial"",""time""
""fullscreenenter"",""1"",""2674""
","
","","","","","","null","<div style=""font-size:60px;"">+</div>","null","","fixation","","","","","","","","","","","","","",""
"learning-trial","217","847187","0.0-9.0-2.0-1.65","1545","1","2","""event"",""trial"",""time""
""fullscreenenter"",""1"",""2674""
","
","
","""event"",""trial"",""time""
""fullscreenenter"",""1"",""2674""
","
","","","","","","987.1000000238419","images/apple3.png","","","learning","images/fruit_choice2.png","images/fruit_choice1.png","images/fruit_choice3.png","[1,0,2]","1","0","1","images/fruit_choice2.png","-1","fruit","","apple","1","0"
"html-keyboard-response","218","847695","0.0-9.0-2.0-0.66","1545","1","2","""event"",""trial"",""time""
""fullscreenenter"",""1"",""2674""
","
","
","""event"",""trial"",""time""
""fullscreenenter"",""1"",""2674""
","
","","","","","","null","<div style=""font-size:60px;"">+</div>","null","","fixation","","","","","","","","","","","","","",""
"learning-trial","219","851698","0.0-9.0-2.0-1.66","1545","1","2","""event"",""trial"",""time""
""fullscreenenter"",""1"",""2674""
","
","
","""event"",""trial"",""time""
""fullscreenenter"",""1"",""2674""
","
","","","","","","849","images/apple3.png","","","learning","images/fruit_choice1.png","images/fruit_choice2.png","images/fruit_choice3.png","[0,1,2]","1","1","2","images/fruit_choice2.png","1","fruit","","apple","1","0"
"html-keyboard-response","220","852200","0.0-9.0-2.0-0.67","1545","1","2","""event"",""trial"",""time""
""fullscreenenter"",""1"",""2674""
","
","
","""event"",""trial"",""time""
""fullscreenenter"",""1"",""2674""
","
","","","","","","null","<div style=""font-size:60px;"">+</div>","null","","fixation","","","","","","","","","","","","","",""
"learning-trial","221","856203","0.0-9.0-2.0-1.67","1545","1","2","""event"",""trial"",""time""
""fullscreenenter"",""1"",""2674""
","
","
","""event"",""trial"",""time""
""fullscreenenter"",""1"",""2674""
","
","","","","","","845.6000000238419","images/orange4.png","","","learning","images/fruit_choice3.png","images/fruit_choice1.png","images/fruit_choice2.png","[2,0,1]","0","1","2","images/fruit_choice1.png","1","fruit","","orange","1","0"
"html-keyboard-response","222","856704","0.0-9.0-2.0-0.68","1545","1","2","""event"",""trial"",""time""
""fullscreenenter"",""1"",""2674""
","
","
","""event"",""trial"",""time""
""fullscreenenter"",""1"",""2674""
","
","","","","","","null","<div style=""font-size:60px;"">+</div>","null","","fixation","","","","","","","","","","","","","",""
"learning-trial","223","860707","0.0-9.0-2.0-1.68","1545","1","2","""event"",""trial"",""time""
""fullscreenenter"",""1"",""2674""
","
","
","""event"",""trial"",""time""
""fullscreenenter"",""1"",""2674""
","
","","","","","","1058.8999999761581","images/orange4.png","","","learning","images/fruit_choice1.png","images/fruit_choice2.png","images/fruit_choice3.png","[0,1,2]","0","0","1","images/fruit_choice1.png","1","fruit","","orange","1","0"
"html-keyboard-response","224","861210","0.0-9.0-2.0-0.69","1545","1","2","""event"",""trial"",""time""
""fullscreenenter"",""1"",""2674""
","
","
","""event"",""trial"",""time""
""fullscreenenter"",""1"",""2674""
","
","","","","","","null","<div style=""font-size:60px;"">+</div>","null","","fixation","","","","","","","","","","","","","",""
"learning-trial","225","865214","0.0-9.0-2.0-1.69","1545","1","2","""event"",""trial"",""time""
""fullscreenenter"",""1"",""2674""
","
","
","""event"",""trial"",""time""
""fullscreenenter"",""1"",""2674""
","
","","","","","","761.6000000238419","images/orange3.png","","","learning","images/fruit_choice1.png","images/fruit_choice2.png","images/fruit_choice3.png","[0,1,2]","0","0","1","images/fruit_choice1.png","1","fruit","","orange","1","0"
"html-keyboard-response","226","865715","0.0-9.0-2.0-0.70","1545","1","2","""event"",""trial"",""time""
""fullscreenenter"",""1"",""2674""
","
","
","""event"",""trial"",""time""
""fullscreenenter"",""1"",""2674""
","
","","","","","","null","<div style=""font-size:60px;"">+</div>","null","","fixation","","","","","","","","","","","","","",""
"learning-trial","227","869719","0.0-9.0-2.0-1.70","1545","1","2","""event"",""trial"",""time""
""fullscreenenter"",""1"",""2674""
","
","
","""event"",""trial"",""time""
""fullscreenenter"",""1"",""2674""
","
","","","","","","1108.300000011921","images/banana2.png","","","learning","images/fruit_choice3.png","images/fruit_choice1.png","images/fruit_choice2.png","[2,0,1]","2","0","1","images/fruit_choice3.png","1","fruit","","banana","1","0"
"html-keyboard-response","228","870220","0.0-9.0-2.0-0.71","1545","1","2","""event"",""trial"",""time""
""fullscreenenter"",""1"",""2674""
","
","
","""event"",""trial"",""time""
""fullscreenenter"",""1"",""2674""
","
","","","","","","null","<div style=""font-size:60px;"">+</div>","null","","fixation","","","","","","","","","","","","","",""
"learning-trial","229","874223","0.0-9.0-2.0-1.71","1545","1","2","""event"",""trial"",""time""
""fullscreenenter"",""1"",""2674""
","
","
","""event"",""trial"",""time""
""fullscreenenter"",""1"",""2674""
","
","","","","","","825.5","images/banana1.png","","","learning","images/fruit_choice3.png","images/fruit_choice1.png","images/fruit_choice2.png","[2,0,1]","2","0","1","images/fruit_choice3.png","1","fruit","","banana","1","0"
"html-button-response","230","879218","0.0-9.0-3.0","1545","1","2","""event"",""trial"",""time""
""fullscreenenter"",""1"",""2674""
","
","
","""event"",""trial"",""time""
""fullscreenenter"",""1"",""2674""
","
","","","","","","4992.199999988079","<p> You have completed the round! <p> In this round, you earned 50 points! </p>","0","","break","","","","","","","","","","","","","",""
"html-button-response","231","882082","0.0-10.0","1545","1","2","""event"",""trial"",""time""
""fullscreenenter"",""1"",""2674""
","
","
","""event"",""trial"",""time""
""fullscreenenter"",""1"",""2674""
","
","","","","","","2862.599999964237","<p> Now it's time to play another round. </p>","0","","transition_screen","","","","","","","","","","","","","",""
"preload","232","897324","0.0-11.0-0.0","1545","1","2","""event"",""trial"",""time""
""fullscreenenter"",""1"",""2674""
","
","
","""event"",""trial"",""time""
""fullscreenenter"",""1"",""2674""
","
","true","false","[]","[]","[]","","","","","","","","","","","","","","","","","","",""
"learning-instructions","233","911804","0.0-11.0-1.0-0.0","1545","1","2","""event"",""trial"",""time""
""fullscreenenter"",""1"",""2674""
","
","
","""event"",""trial"",""time""
""fullscreenenter"",""1"",""2674""
","
","","","","","","1751.699999988079","<p> Your goal in this round is to return farm animals to the barns where they live. </p><p>  Different animals wandered away from different barns! </p></div>","","0","instructions","","","","","","","","","","","","","",""
"learning-instructions","234","922984","0.0-11.0-1.0-0.1","1545","1","2","""event"",""trial"",""time""
""fullscreenenter"",""1"",""2674""
","
","
","""event"",""trial"",""time""
""fullscreenenter"",""1"",""2674""
","
","","","","","","2557.800000011921","<p> On each turn, you will see a picture of a farm animal and three different barns.  </p><p> You need to select the barn where each animal lives.  </p>","","0","instructions","","","","","","","","","","","","","",""
"learning-instructions","235","932172","0.0-11.0-1.0-0.2","1545","1","2","""event"",""trial"",""time""
""fullscreenenter"",""1"",""2674""
","
","
","""event"",""trial"",""time""
""fullscreenenter"",""1"",""2674""
","
","","","","","","1997","<p> You can select the barn on the left by pressing 1, the barn in the middle by pressing 2, and the barn on the right by pressing 3. </p><br><div class=""choice-instructions-grid""> <div class=""choice-option""><img src=""images/animals_choice1.png"" class=""choice-option-img"" stage=""instructions"" position=""0"" ><div class=""choice-option-text""> Press ""1."" </div></div><div class=""choice-option""><img src=""images/animals_choice2.png"" class=""choice-option-img"" stage=""instructions"" position=""1"" ><div class=""choice-option-text""> Press ""2."" </div></div><div class=""choice-option""><img src=""images/animals_choice3.png"" class=""choice-option-img"" stage=""instructions"" position=""2"" ><div class=""choice-option-text""> Press ""3."" </div></div></div>","","0","instructions","","","","","","","","","","","","","",""
"learning-instructions","236","940625","0.0-11.0-1.0-0.3","1545","1","2","""event"",""trial"",""time""
""fullscreenenter"",""1"",""2674""
","
","
","""event"",""trial"",""time""
""fullscreenenter"",""1"",""2674""
","
","","","","","","3311.199999988079","<p> If you return the farm animal to the correct barn, it will usually be happy! </p><div style='float: center;'><img src='images/check.png' width = '200' height = '200'></img>","","0","instructions","","","","","","","","","","","","","",""
