"trial_type","trial_index","time_elapsed","internal_node_id","subject_id","condition","task_version","interactions","blur_events","focus_events","fullscreenenter_events","fullscreenexit_events","success","timeout","failed_images","failed_audio","failed_video","rt","stimulus","response","button_pressed","task_part","left_choice","middle_choice","right_choice","choice_positions","correct_response","correct_position","key_press","option_selected","points","task_block","correct","stim_cat","block_condition","block_number"
"pavlovia","0","9","0.0-0.0","1713","2","2","""event"",""trial"",""time""
""fullscreenenter"",""1"",""4616""
","
","
","""event"",""trial"",""time""
""fullscreenenter"",""1"",""4616""
","
","","","","","","","","","","","","","","","","","","","","","","","",""
"fullscreen","1","5558","0.0-1.0","1713","2","2","""event"",""trial"",""time""
""fullscreenenter"",""1"",""4616""
","
","
","""event"",""trial"",""time""
""fullscreenenter"",""1"",""4616""
","
","true","","","","","","","","","","","","","","","","","","","","","","",""
"preload","2","36941","0.0-2.0","1713","2","2","""event"",""trial"",""time""
""fullscreenenter"",""1"",""4616""
","
","
","""event"",""trial"",""time""
""fullscreenenter"",""1"",""4616""
","
","true","false","[]","[]","[]","","","","","","","","","","","","","","","","","","",""
"audio-keyboard-response","3","41587","0.0-3.0","1713","2","2","""event"",""trial"",""time""
""fullscreenenter"",""1"",""4616""
","
","
","""event"",""trial"",""time""
""fullscreenenter"",""1"",""4616""
","
","","","","","","4638.185941043083","audio/beep_loop.wav"," ","","","","","","","","","","","","","","","",""
"audio-button-response","4","43801","0.0-4.0","1713","2","2","""event"",""trial"",""time""
""fullscreenenter"",""1"",""4616""
","
","
","""event"",""trial"",""time""
""fullscreenenter"",""1"",""4616""
","
","","","","","","2209","audio/shark.wav","4","","","","","","","","","","","","","","","",""
"audio-button-response","5","46189","0.0-5.0","1713","2","2","""event"",""trial"",""time""
""fullscreenenter"",""1"",""4616""
","
","
","""event"",""trial"",""time""
""fullscreenenter"",""1"",""4616""
","
","","","","","","1390","audio/turtle.wav","1","","","","","","","","","","","","","","","",""
"preload","6","54059","0.0-6.0","1713","2","2","""event"",""trial"",""time""
""fullscreenenter"",""1"",""4616""
","
","
","""event"",""trial"",""time""
""fullscreenenter"",""1"",""4616""
","
","true","false","[]","[]","[]","","","","","","","","","","","","","","","","","","",""
"html-keyboard-response","7","57715","0.0-7.0","1713","2","2","""event"",""trial"",""time""
""fullscreenenter"",""1"",""4616""
","
","
","""event"",""trial"",""time""
""fullscreenenter"",""1"",""4616""
","
","","","","","","3655.4000000953674","Welcome to the experiment. Press any key to begin and to advance the instructions."," ","","","","","","","","","","","","","","","",""
"learning-instructions","8","66554","0.0-8.0-0.0-0.0","1713","2","2","""event"",""trial"",""time""
""fullscreenenter"",""1"",""4616""
","
","
","""event"",""trial"",""time""
""fullscreenenter"",""1"",""4616""
","
","","","","","","1085.2000000476837","<p> Welcome! Today you are going to play 6 different rounds of a decision-making game. </p><p> Use the mouse to click next to continue. </p>","","0","instructions","","","","","","","","","","","","","",""
"learning-instructions","9","70420","0.0-8.0-0.0-0.1","1713","2","2","""event"",""trial"",""time""
""fullscreenenter"",""1"",""4616""
","
","
","""event"",""trial"",""time""
""fullscreenenter"",""1"",""4616""
","
","","","","","","862.1000001430511","<p> You will start with a practice round to learn the rules. </p>","","0","instructions","","","","","","","","","","","","","",""
"learning-instructions","10","79588","0.0-8.0-0.0-0.2","1713","2","2","""event"",""trial"",""time""
""fullscreenenter"",""1"",""4616""
","
","
","""event"",""trial"",""time""
""fullscreenenter"",""1"",""4616""
","
","","","","","","1420","<p> Your goal in this round is to deliver sports equipment to three different parks. </p><p> You will need to deliver many types of equipment. </p></div>","","0","instructions","","","","","","","","","","","","","",""
"learning-instructions","11","90659","0.0-8.0-0.0-0.3","1713","2","2","""event"",""trial"",""time""
""fullscreenenter"",""1"",""4616""
","
","
","""event"",""trial"",""time""
""fullscreenenter"",""1"",""4616""
","
","","","","","","2580.4000000953674","<p> On each turn, you will see one piece of sports equipment and three different parks.  </p><p> You need to select which park to deliver the equipment to.  </p>","","0","instructions","","","","","","","","","","","","","",""
"learning-instructions","12","105511","0.0-8.0-0.0-0.4","1713","2","2","""event"",""trial"",""time""
""fullscreenenter"",""1"",""4616""
","
","
","""event"",""trial"",""time""
""fullscreenenter"",""1"",""4616""
","
","","","","","","1572.6000001430511","<p> You can select the park on the left by pressing the '1' key on your keyboard. <br>You can select the park in the middle by pressing the '2' key on your keyboard. <br>You can select the park on the right by pressing the '3' key on your keyboard.  </p><br><div class=""choice-instructions-grid""> <div class=""choice-option""><img src=""images/park1.png"" class=""choice-option-img"" stage=""instructions"" position=""0"" ><div class=""choice-option-text""> Press ""1."" </div></div><div class=""choice-option""><img src=""images/park2.png"" class=""choice-option-img"" stage=""instructions"" position=""1"" ><div class=""choice-option-text""> Press ""2."" </div></div><div class=""choice-option""><img src=""images/park3.png"" class=""choice-option-img"" stage=""instructions"" position=""2"" ><div class=""choice-option-text""> Press ""3."" </div></div></div>","","0","instructions","","","","","","","","","","","","","",""
"learning-instructions","13","111879","0.0-8.0-0.0-0.5","1713","2","2","""event"",""trial"",""time""
""fullscreenenter"",""1"",""4616""
","
","
","""event"",""trial"",""time""
""fullscreenenter"",""1"",""4616""
","
","","","","","","990.4000000953674","<p> If the kids in the park you chose like the equipment, they will be very happy! </p><div style='float: center;'><img src='images/check.png' width = '200' height = '200'></img>","","0","instructions","","","","","","","","","","","","","",""
"learning-instructions","14","118121","0.0-8.0-0.0-0.6","1713","2","2","""event"",""trial"",""time""
""fullscreenenter"",""1"",""4616""
","
","
","""event"",""trial"",""time""
""fullscreenenter"",""1"",""4616""
","
","","","","","","652.7999999523163","<p> But, if the kids in the park you chose do not like the equipment, they will be sad. </p><div style='float: center;'><img src='images/x.png' width = '200' height = '200'></img>","","0","instructions","","","","","","","","","","","","","",""
"learning-instructions","15","125946","0.0-8.0-0.0-0.7","1713","2","2","""event"",""trial"",""time""
""fullscreenenter"",""1"",""4616""
","
","
","""event"",""trial"",""time""
""fullscreenenter"",""1"",""4616""
","
","","","","","","1387.5999999046326","<p> Importantly, the kids in each park like some pieces of sports equipment more than others. </p>","","0","instructions","","","","","","","","","","","","","",""
"learning-instructions","16","132720","0.0-8.0-0.0-0.8","1713","2","2","""event"",""trial"",""time""
""fullscreenenter"",""1"",""4616""
","
","
","""event"",""trial"",""time""
""fullscreenenter"",""1"",""4616""
","
","","","","","","711.0999999046326","<p> If you choose the best park for each piece of equipment, the kids there will usually be happy. </p>","","0","instructions","","","","","","","","","","","","","",""
"learning-instructions","17","140064","0.0-8.0-0.0-0.9","1713","2","2","""event"",""trial"",""time""
""fullscreenenter"",""1"",""4616""
","
","
","""event"",""trial"",""time""
""fullscreenenter"",""1"",""4616""
","
","","","","","","695.9000000953674","<p> However, even if you choose the best park for the equipment, the kids may sometimes be sad. </p>","","0","instructions","","","","","","","","","","","","","",""
"learning-instructions","18","148487","0.0-8.0-0.0-0.10","1713","2","2","""event"",""trial"",""time""
""fullscreenenter"",""1"",""4616""
","
","
","""event"",""trial"",""time""
""fullscreenenter"",""1"",""4616""
","
","","","","","","1178.6000001430511","<p> Similarly, even if you choose the <i>wrong</i> park for the equipment, the kids may still be happy sometimes.","","0","instructions","","","","","","","","","","","","","",""
"learning-instructions","19","154412","0.0-8.0-0.0-0.11","1713","2","2","""event"",""trial"",""time""
""fullscreenenter"",""1"",""4616""
","
","
","""event"",""trial"",""time""
""fullscreenenter"",""1"",""4616""
","
","","","","","","872.2999999523163","<p> For example, the best park for this soccer ball is this one.<div style='float: center;'><img src='images/i1.png' width = '500' height = '268'></img>","","0","instructions","","","","","","","","","","","","","",""
"learning-instructions","20","160488","0.0-8.0-0.0-0.12","1713","2","2","""event"",""trial"",""time""
""fullscreenenter"",""1"",""4616""
","
","
","""event"",""trial"",""time""
""fullscreenenter"",""1"",""4616""
","
","","","","","","790.2999999523163","<p> Let's see what happens if you choose this park for the soccer ball five times.","","0","instructions","","","","","","","","","","","","","",""
"learning-instructions","21","163262","0.0-8.0-0.0-0.13","1713","2","2","""event"",""trial"",""time""
""fullscreenenter"",""1"",""4616""
","
","
","""event"",""trial"",""time""
""fullscreenenter"",""1"",""4616""
","
","","","","","","603.5999999046326","<p> The kids are happy.<div style='float: left;'><img src='images/i2.png' width = '640' height = '360'></img>","","0","instructions","","","","","","","","","","","","","",""
"learning-instructions","22","165896","0.0-8.0-0.0-0.14","1713","2","2","""event"",""trial"",""time""
""fullscreenenter"",""1"",""4616""
","
","
","""event"",""trial"",""time""
""fullscreenenter"",""1"",""4616""
","
","","","","","","466.60000014305115","<p> The kids are happy.<div style='float: left;'><img src='images/i3.png' width = '640' height = '360'></img>","","0","instructions","","","","","","","","","","","","","",""
"learning-instructions","23","168458","0.0-8.0-0.0-0.15","1713","2","2","""event"",""trial"",""time""
""fullscreenenter"",""1"",""4616""
","
","
","""event"",""trial"",""time""
""fullscreenenter"",""1"",""4616""
","
","","","","","","398.89999985694885","<p> The kids are happy.<div style='float: left;'><img src='images/i4.png' width = '640' height = '360'></img>","","0","instructions","","","","","","","","","","","","","",""
"learning-instructions","24","171116","0.0-8.0-0.0-0.16","1713","2","2","""event"",""trial"",""time""
""fullscreenenter"",""1"",""4616""
","
","
","""event"",""trial"",""time""
""fullscreenenter"",""1"",""4616""
","
","","","","","","446.40000009536743","<p> The kids are sad.<div style='float: left;'><img src='images/i5.png' width = '640' height = '360'></img>","","0","instructions","","","","","","","","","","","","","",""
"learning-instructions","25","173949","0.0-8.0-0.0-0.17","1713","2","2","""event"",""trial"",""time""
""fullscreenenter"",""1"",""4616""
","
","
","""event"",""trial"",""time""
""fullscreenenter"",""1"",""4616""
","
","","","","","","660","<p> The kids are happy.<div style='float: left;'><img src='images/i6.png' width = '640' height = '360'></img>","","0","instructions","","","","","","","","","","","","","",""
"learning-instructions","26","181948","0.0-8.0-0.0-0.18","1713","2","2","""event"",""trial"",""time""
""fullscreenenter"",""1"",""4616""
","
","
","""event"",""trial"",""time""
""fullscreenenter"",""1"",""4616""
","
","","","","","","710.6999998092651","<p> As you can see, selecting that park for the soccer ball made the kids happy most of the time, but not all the time.","","0","instructions","","","","","","","","","","","","","",""
"learning-instructions","27","188736","0.0-8.0-0.0-0.19","1713","2","2","""event"",""trial"",""time""
""fullscreenenter"",""1"",""4616""
","
","
","""event"",""trial"",""time""
""fullscreenenter"",""1"",""4616""
","
","","","","","","787.5999999046326","<p> Now let's see what happens if you choose a DIFFERENT park for the soccer ball 5 times.","","0","instructions","","","","","","","","","","","","","",""
"learning-instructions","28","191348","0.0-8.0-0.0-0.20","1713","2","2","""event"",""trial"",""time""
""fullscreenenter"",""1"",""4616""
","
","
","""event"",""trial"",""time""
""fullscreenenter"",""1"",""4616""
","
","","","","","","409.2000000476837","<p> The kids are sad.<div style='float: left;'><img src='images/i7.png' width = '640' height = '360'></img>","","0","instructions","","","","","","","","","","","","","",""
"learning-instructions","29","193920","0.0-8.0-0.0-0.21","1713","2","2","""event"",""trial"",""time""
""fullscreenenter"",""1"",""4616""
","
","
","""event"",""trial"",""time""
""fullscreenenter"",""1"",""4616""
","
","","","","","","371.39999985694885","<p> The kids are sad.<div style='float: left;'><img src='images/i8.png' width = '640' height = '360'></img>","","0","instructions","","","","","","","","","","","","","",""
"learning-instructions","30","196578","0.0-8.0-0.0-0.22","1713","2","2","""event"",""trial"",""time""
""fullscreenenter"",""1"",""4616""
","
","
","""event"",""trial"",""time""
""fullscreenenter"",""1"",""4616""
","
","","","","","","489.5","<p> The kids are happy.<div style='float: left;'><img src='images/i9.png' width = '640' height = '360'></img>","","0","instructions","","","","","","","","","","","","","",""
"learning-instructions","31","199143","0.0-8.0-0.0-0.23","1713","2","2","""event"",""trial"",""time""
""fullscreenenter"",""1"",""4616""
","
","
","""event"",""trial"",""time""
""fullscreenenter"",""1"",""4616""
","
","","","","","","364.40000009536743","<p> The kids are sad.<div style='float: left;'><img src='images/i10.png' width = '640' height = '360'></img>","","0","instructions","","","","","","","","","","","","","",""
"learning-instructions","32","201764","0.0-8.0-0.0-0.24","1713","2","2","""event"",""trial"",""time""
""fullscreenenter"",""1"",""4616""
","
","
","""event"",""trial"",""time""
""fullscreenenter"",""1"",""4616""
","
","","","","","","404.7999999523163","<p> The kids are sad.<div style='float: left;'><img src='images/i11.png' width = '640' height = '360'></img>","","0","instructions","","","","","","","","","","","","","",""
"learning-instructions","33","210849","0.0-8.0-0.0-0.25","1713","2","2","""event"",""trial"",""time""
""fullscreenenter"",""1"",""4616""
","
","
","""event"",""trial"",""time""
""fullscreenenter"",""1"",""4616""
","
","","","","","","951.3000001907349","<p> As you can see, selecting the wrong park for the soccer ball made the kids sad most of the time, but not all the time.","","0","instructions","","","","","","","","","","","","","",""
"learning-instructions","34","220491","0.0-8.0-0.0-0.26","1713","2","2","""event"",""trial"",""time""
""fullscreenenter"",""1"",""4616""
","
","
","""event"",""trial"",""time""
""fullscreenenter"",""1"",""4616""
","
","","","","","","532.2000000476837","<p> The different pieces of equipment belong in different parks. You need to try to learn which is the best park for each piece of equipment.","","0","instructions","","","","","","","","","","","","","",""
"learning-instructions","35","237518","0.0-8.0-0.0-0.27","1713","2","2","""event"",""trial"",""time""
""fullscreenenter"",""1"",""4616""
","
","
","""event"",""trial"",""time""
""fullscreenenter"",""1"",""4616""
","
","","","","","","639.8999998569489","<p> Try to choose the best park for each piece of equipment, because you will <b> WIN </b> 1 point for each time you make the kids happy and <b>LOSE</b> 1 point for each time you make them sad. </p><p> Remember, if you make the best choice, you will win 1 point most of the time, but not all the time. </p>","","0","instructions","","","","","","","","","","","","","",""
"learning-instructions","36","244338","0.0-8.0-0.0-0.28","1713","2","2","""event"",""trial"",""time""
""fullscreenenter"",""1"",""4616""
","
","
","""event"",""trial"",""time""
""fullscreenenter"",""1"",""4616""
","
","","","","","","1330","<p> This is just a practice round, but in the real game, your bonus payment will depend on your total number of points.","","0","instructions","","","","","","","","","","","","","",""
"learning-instructions","37","255558","0.0-8.0-0.0-0.29","1713","2","2","""event"",""trial"",""time""
""fullscreenenter"",""1"",""4616""
","
","
","""event"",""trial"",""time""
""fullscreenenter"",""1"",""4616""
","
","","","","","","890.7000000476837","<p> The position where each park appears will change throughout the game. </p><p> The position where the park appears <i> does not </i> influence how likely the kids are to be happy or sad. </p>","","0","instructions","","","","","","","","","","","","","",""
"learning-instructions","38","266222","0.0-8.0-0.0-0.30","1713","2","2","""event"",""trial"",""time""
""fullscreenenter"",""1"",""4616""
","
","
","""event"",""trial"",""time""
""fullscreenenter"",""1"",""4616""
","
","","","","","","424.19999980926514","<p> You will have 4 seconds to make each choice. Try to respond before time runs out! </p><p> You will lose 1 point each time you do not make a response. </p>","","0","instructions","","","","","","","","","","","","","",""
"learning-instructions","39","273692","0.0-8.0-0.0-0.31","1713","2","2","""event"",""trial"",""time""
""fullscreenenter"",""1"",""4616""
","
","
","""event"",""trial"",""time""
""fullscreenenter"",""1"",""4616""
","
","","","","","","692.2999999523163","<p> Remember, you should use the 1, 2, and 3 keys to select the park for each piece of equipment. </p><br><div class=""choice-instructions-grid""> <div class=""choice-option""><img src=""images/park1.png"" class=""choice-option-img"" stage=""instructions"" position=""0"" ><div class=""choice-option-text""> Press ""1."" </div></div><div class=""choice-option""><img src=""images/park2.png"" class=""choice-option-img"" stage=""instructions"" position=""1"" ><div class=""choice-option-text""> Press ""2."" </div></div><div class=""choice-option""><img src=""images/park3.png"" class=""choice-option-img"" stage=""instructions"" position=""2"" ><div class=""choice-option-text""> Press ""3."" </div></div></div>","","0","instructions","","","","","","","","","","","","","",""
"html-button-response","40","275084","0.0-8.0-1.0","1713","2","2","""event"",""trial"",""time""
""fullscreenenter"",""1"",""4616""
","
","
","""event"",""trial"",""time""
""fullscreenenter"",""1"",""4616""
","
","","","","","","1283.5","<p> Ready to practice? </p>","0","","","","","","","","","","","","","","","",""
"html-keyboard-response","41","275700","0.0-8.0-2.0-0.0","1713","2","2","""event"",""trial"",""time""
""fullscreenenter"",""1"",""4616""
","
","
","""event"",""trial"",""time""
""fullscreenenter"",""1"",""4616""
","
","","","","","","null","<div style=""font-size:60px;"">+</div>","null","","fixation","","","","","","","","","","","","","",""
"learning-trial","42","279707","0.0-8.0-2.0-1.0","1713","2","2","""event"",""trial"",""time""
""fullscreenenter"",""1"",""4616""
","
","
","""event"",""trial"",""time""
""fullscreenenter"",""1"",""4616""
","
","","","","","","1414.1999998092651","images/ball1.png","","","practice","images/park2.png","images/park3.png","images/park1.png","[1,2,0]","2","1","1","images/park2.png","-1","practice","","","",""
"html-keyboard-response","43","280220","0.0-8.0-2.0-0.1","1713","2","2","""event"",""trial"",""time""
""fullscreenenter"",""1"",""4616""
","
","
","""event"",""trial"",""time""
""fullscreenenter"",""1"",""4616""
","
","","","","","","null","<div style=""font-size:60px;"">+</div>","null","","fixation","","","","","","","","","","","","","",""
"learning-trial","44","284239","0.0-8.0-2.0-1.1","1713","2","2","""event"",""trial"",""time""
""fullscreenenter"",""1"",""4616""
","
","
","""event"",""trial"",""time""
""fullscreenenter"",""1"",""4616""
","
","","","","","","1030.0999999046326","images/ball2.png","","","practice","images/park1.png","images/park2.png","images/park3.png","[0,1,2]","1","1","1","images/park1.png","-1","practice","","","",""
"html-keyboard-response","45","284752","0.0-8.0-2.0-0.2","1713","2","2","""event"",""trial"",""time""
""fullscreenenter"",""1"",""4616""
","
","
","""event"",""trial"",""time""
""fullscreenenter"",""1"",""4616""
","
","","","","","","null","<div style=""font-size:60px;"">+</div>","null","","fixation","","","","","","","","","","","","","",""
"learning-trial","46","288770","0.0-8.0-2.0-1.2","1713","2","2","""event"",""trial"",""time""
""fullscreenenter"",""1"",""4616""
","
","
","""event"",""trial"",""time""
""fullscreenenter"",""1"",""4616""
","
","","","","","","1170.1000001430511","images/racket4.png","","","practice","images/park3.png","images/park1.png","images/park2.png","[2,0,1]","0","1","1","images/park3.png","1","practice","","","",""
"html-keyboard-response","47","289283","0.0-8.0-2.0-0.3","1713","2","2","""event"",""trial"",""time""
""fullscreenenter"",""1"",""4616""
","
","
","""event"",""trial"",""time""
""fullscreenenter"",""1"",""4616""
","
","","","","","","null","<div style=""font-size:60px;"">+</div>","null","","fixation","","","","","","","","","","","","","",""
"learning-trial","48","293291","0.0-8.0-2.0-1.3","1713","2","2","""event"",""trial"",""time""
""fullscreenenter"",""1"",""4616""
","
","
","""event"",""trial"",""time""
""fullscreenenter"",""1"",""4616""
","
","","","","","","1317.6999998092651","images/ball3.png","","","practice","images/park1.png","images/park2.png","images/park3.png","[0,1,2]","0","0","2","images/park2.png","-1","practice","","","",""
"html-keyboard-response","49","293806","0.0-8.0-2.0-0.4","1713","2","2","""event"",""trial"",""time""
""fullscreenenter"",""1"",""4616""
","
","
","""event"",""trial"",""time""
""fullscreenenter"",""1"",""4616""
","
","","","","","","null","<div style=""font-size:60px;"">+</div>","null","","fixation","","","","","","","","","","","","","",""
"learning-trial","50","297815","0.0-8.0-2.0-1.4","1713","2","2","""event"",""trial"",""time""
""fullscreenenter"",""1"",""4616""
","
","
","""event"",""trial"",""time""
""fullscreenenter"",""1"",""4616""
","
","","","","","","1083.7999999523163","images/racket4.png","","","practice","images/park1.png","images/park3.png","images/park2.png","[0,2,1]","0","0","2","images/park3.png","-1","practice","","","",""
"html-keyboard-response","51","298331","0.0-8.0-2.0-0.5","1713","2","2","""event"",""trial"",""time""
""fullscreenenter"",""1"",""4616""
","
","
","""event"",""trial"",""time""
""fullscreenenter"",""1"",""4616""
","
","","","","","","null","<div style=""font-size:60px;"">+</div>","null","","fixation","","","","","","","","","","","","","",""
"learning-trial","52","302349","0.0-8.0-2.0-1.5","1713","2","2","""event"",""trial"",""time""
""fullscreenenter"",""1"",""4616""
","
","
","""event"",""trial"",""time""
""fullscreenenter"",""1"",""4616""
","
","","","","","","1485.8999998569489","images/ball4.png","","","practice","images/park3.png","images/park2.png","images/park1.png","[2,1,0]","1","1","1","images/park3.png","-1","practice","","","",""
"html-keyboard-response","53","302860","0.0-8.0-2.0-0.6","1713","2","2","""event"",""trial"",""time""
""fullscreenenter"",""1"",""4616""
","
","
","""event"",""trial"",""time""
""fullscreenenter"",""1"",""4616""
","
","","","","","","null","<div style=""font-size:60px;"">+</div>","null","","fixation","","","","","","","","","","","","","",""
"learning-trial","54","306864","0.0-8.0-2.0-1.6","1713","2","2","""event"",""trial"",""time""
""fullscreenenter"",""1"",""4616""
","
","
","""event"",""trial"",""time""
""fullscreenenter"",""1"",""4616""
","
","","","","","","804.5","images/ball4.png","","","practice","images/park1.png","images/park2.png","images/park3.png","[0,1,2]","1","1","2","images/park2.png","-1","practice","","","",""
"html-keyboard-response","55","307367","0.0-8.0-2.0-0.7","1713","2","2","""event"",""trial"",""time""
""fullscreenenter"",""1"",""4616""
","
","
","""event"",""trial"",""time""
""fullscreenenter"",""1"",""4616""
","
","","","","","","null","<div style=""font-size:60px;"">+</div>","null","","fixation","","","","","","","","","","","","","",""
"learning-trial","56","311374","0.0-8.0-2.0-1.7","1713","2","2","""event"",""trial"",""time""
""fullscreenenter"",""1"",""4616""
","
","
","""event"",""trial"",""time""
""fullscreenenter"",""1"",""4616""
","
","","","","","","1823.5999999046326","images/racket3.png","","","practice","images/park2.png","images/park3.png","images/park1.png","[1,2,0]","2","1","1","images/park2.png","-1","practice","","","",""
"html-keyboard-response","57","311876","0.0-8.0-2.0-0.8","1713","2","2","""event"",""trial"",""time""
""fullscreenenter"",""1"",""4616""
","
","
","""event"",""trial"",""time""
""fullscreenenter"",""1"",""4616""
","
","","","","","","null","<div style=""font-size:60px;"">+</div>","null","","fixation","","","","","","","","","","","","","",""
"learning-trial","58","315878","0.0-8.0-2.0-1.8","1713","2","2","""event"",""trial"",""time""
""fullscreenenter"",""1"",""4616""
","
","
","""event"",""trial"",""time""
""fullscreenenter"",""1"",""4616""
","
","","","","","","1429.0999999046326","images/racket3.png","","","practice","images/park2.png","images/park3.png","images/park1.png","[1,2,0]","2","1","1","images/park2.png","-1","practice","","","",""
"html-keyboard-response","59","316381","0.0-8.0-2.0-0.9","1713","2","2","""event"",""trial"",""time""
""fullscreenenter"",""1"",""4616""
","
","
","""event"",""trial"",""time""
""fullscreenenter"",""1"",""4616""
","
","","","","","","null","<div style=""font-size:60px;"">+</div>","null","","fixation","","","","","","","","","","","","","",""
"learning-trial","60","320388","0.0-8.0-2.0-1.9","1713","2","2","""event"",""trial"",""time""
""fullscreenenter"",""1"",""4616""
","
","
","""event"",""trial"",""time""
""fullscreenenter"",""1"",""4616""
","
","","","","","","1734.8000001907349","images/ball2.png","","","practice","images/park1.png","images/park2.png","images/park3.png","[0,1,2]","1","1","3","images/park3.png","-1","practice","","","",""
"html-keyboard-response","61","320891","0.0-8.0-2.0-0.10","1713","2","2","""event"",""trial"",""time""
""fullscreenenter"",""1"",""4616""
","
","
","""event"",""trial"",""time""
""fullscreenenter"",""1"",""4616""
","
","","","","","","null","<div style=""font-size:60px;"">+</div>","null","","fixation","","","","","","","","","","","","","",""
"learning-trial","62","324895","0.0-8.0-2.0-1.10","1713","2","2","""event"",""trial"",""time""
""fullscreenenter"",""1"",""4616""
","
","
","""event"",""trial"",""time""
""fullscreenenter"",""1"",""4616""
","
","","","","","","1553.8000001907349","images/ball1.png","","","practice","images/park1.png","images/park3.png","images/park2.png","[0,2,1]","2","1","2","images/park3.png","1","practice","","","",""
"html-keyboard-response","63","325398","0.0-8.0-2.0-0.11","1713","2","2","""event"",""trial"",""time""
""fullscreenenter"",""1"",""4616""
","
","
","""event"",""trial"",""time""
""fullscreenenter"",""1"",""4616""
","
","","","","","","null","<div style=""font-size:60px;"">+</div>","null","","fixation","","","","","","","","","","","","","",""
"learning-trial","64","329404","0.0-8.0-2.0-1.11","1713","2","2","""event"",""trial"",""time""
""fullscreenenter"",""1"",""4616""
","
","
","""event"",""trial"",""time""
""fullscreenenter"",""1"",""4616""
","
","","","","","","1337.0999999046326","images/ball3.png","","","practice","images/park2.png","images/park3.png","images/park1.png","[1,2,0]","0","2","2","images/park3.png","-1","practice","","","",""
"html-button-response","65","331819","0.0-8.0-3.0","1713","2","2","""event"",""trial"",""time""
""fullscreenenter"",""1"",""4616""
","
","
","""event"",""trial"",""time""
""fullscreenenter"",""1"",""4616""
","
","","","","","","2410.399999856949","<p> You earned -8 points in the practice round! </p>","0","","break","","","","","","","","","","","","","",""
"learning-instructions","66","340154","0.0-8.0-4.0-0.0","1713","2","2","""event"",""trial"",""time""
""fullscreenenter"",""1"",""4616""
","
","
","""event"",""trial"",""time""
""fullscreenenter"",""1"",""4616""
","
","","","","","","507.39999985694885","<p> It's almost time to start the real game. </p><p> Before you start, we're going to ask you a few questions about how the game works. </p>","","0","instructions","","","","","","","","","","","","","",""
"preload","67","341627","0.0-8.0-5.0","1713","2","2","""event"",""trial"",""time""
""fullscreenenter"",""1"",""4616""
","
","
","""event"",""trial"",""time""
""fullscreenenter"",""1"",""4616""
","
","true","false","[]","[]","[]","","","","","","","","","","","","","","","","","","",""
"comp-q","68","348245","0.0-8.0-6.0-0.0","1713","2","2","""event"",""trial"",""time""
""fullscreenenter"",""1"",""4616""
","
","
","""event"",""trial"",""time""
""fullscreenenter"",""1"",""4616""
","
","","","","","","1156.6000001430511","<p> <b> True or False? </b> </p><p> If you choose the best option, you will always earn 1 point. </p>","","1","comp_question","","","","","","","","","","","true","","",""
"comp-q","69","355456","0.0-8.0-6.0-1.0","1713","2","2","""event"",""trial"",""time""
""fullscreenenter"",""1"",""4616""
","
","
","""event"",""trial"",""time""
""fullscreenenter"",""1"",""4616""
","
","","","","","","1538.9000000953674","<p><b> That's right! </b> Sometimes you will lose 1 point, even if you choose the best option. </p>","","0","comp_answer","","","","","","","","","","","","","",""
"comp-q","70","360682","0.0-8.0-6.0-0.1","1713","2","2","""event"",""trial"",""time""
""fullscreenenter"",""1"",""4616""
","
","
","""event"",""trial"",""time""
""fullscreenenter"",""1"",""4616""
","
","","","","","","585.4000000953674","<p> <b> True or False? </b> </p><p> You will have as much time as you want to make each choice. </p>","","1","comp_question","","","","","","","","","","","true","","",""
"comp-q","71","366387","0.0-8.0-6.0-1.1","1713","2","2","""event"",""trial"",""time""
""fullscreenenter"",""1"",""4616""
","
","
","""event"",""trial"",""time""
""fullscreenenter"",""1"",""4616""
","
","","","","","","890.5999999046326","<p> <b> That's right! </b> You will only have 4 seconds to make each choice. </p>","","0","comp_answer","","","","","","","","","","","","","",""
"comp-q","72","373207","0.0-8.0-6.0-0.2","1713","2","2","""event"",""trial"",""time""
""fullscreenenter"",""1"",""4616""
","
","
","""event"",""trial"",""time""
""fullscreenenter"",""1"",""4616""
","
","","","","","","659.7999999523163","<p> <b> True or False? </b> </p><p> You should use the '1', '2', and '3' keys to make your choices. </p>","","0","comp_question","","","","","","","","","","","true","","",""
"comp-q","73","378661","0.0-8.0-6.0-1.2","1713","2","2","""event"",""trial"",""time""
""fullscreenenter"",""1"",""4616""
","
","
","""event"",""trial"",""time""
""fullscreenenter"",""1"",""4616""
","
","","","","","","613.2000000476837","<p> <b> That's right! </b> You should use the '1', '2', and '3' keys to make each choice. </p>","","0","comp_answer","","","","","","","","","","","","","",""
"learning-instructions","74","388043","0.0-8.0-7.0-0.0","1713","2","2","""event"",""trial"",""time""
""fullscreenenter"",""1"",""4616""
","
","
","""event"",""trial"",""time""
""fullscreenenter"",""1"",""4616""
","
","","","","","","875.3999998569489","<p> It's now time to start the real game. </p>Do your best, because the points you earn in the next rounds will influence your bonus payment. </p>","","0","instructions","","","","","","","","","","","","","",""
"preload","75","405289","0.0-9.0-0.0","1713","2","2","""event"",""trial"",""time""
""fullscreenenter"",""1"",""4616""
","
","
","""event"",""trial"",""time""
""fullscreenenter"",""1"",""4616""
","
","true","false","[]","[]","[]","","","","","","","","","","","","","","","","","","",""
"learning-instructions","76","412713","0.0-9.0-1.0-0.0","1713","2","2","""event"",""trial"",""time""
""fullscreenenter"",""1"",""4616""
","
","
","""event"",""trial"",""time""
""fullscreenenter"",""1"",""4616""
","
","","","","","","923.9000000953674","<p> Your goal in this round is to buy different types of fruits. </p><p> You will try to purchase many fruits from different stores. </p></div>","","0","instructions","","","","","","","","","","","","","",""
"learning-instructions","77","421582","0.0-9.0-1.0-0.1","1713","2","2","""event"",""trial"",""time""
""fullscreenenter"",""1"",""4616""
","
","
","""event"",""trial"",""time""
""fullscreenenter"",""1"",""4616""
","
","","","","","","384.2999999523163","<p> On each turn, you will see a picture of a fruit and three different stores.  </p><p> You need to select the store where you can buy that fruit.  </p>","","0","instructions","","","","","","","","","","","","","",""
"learning-instructions","78","430060","0.0-9.0-1.0-0.2","1713","2","2","""event"",""trial"",""time""
""fullscreenenter"",""1"",""4616""
","
","
","""event"",""trial"",""time""
""fullscreenenter"",""1"",""4616""
","
","","","","","","1090.6000001430511","<p> You can select the store on the left by pressing 1, the store in the middle by pressing 2, and the store on the right by pressing 3. </p><br><div class=""choice-instructions-grid""> <div class=""choice-option""><img src=""images/fruit_choice1.png"" class=""choice-option-img"" stage=""instructions"" position=""0"" ><div class=""choice-option-text""> Press ""1."" </div></div><div class=""choice-option""><img src=""images/fruit_choice2.png"" class=""choice-option-img"" stage=""instructions"" position=""1"" ><div class=""choice-option-text""> Press ""2."" </div></div><div class=""choice-option""><img src=""images/fruit_choice3.png"" class=""choice-option-img"" stage=""instructions"" position=""2"" ><div class=""choice-option-text""> Press ""3."" </div></div></div>","","0","instructions","","","","","","","","","","","","","",""
"learning-instructions","79","435643","0.0-9.0-1.0-0.3","1713","2","2","""event"",""trial"",""time""
""fullscreenenter"",""1"",""4616""
","
","
","""event"",""trial"",""time""
""fullscreenenter"",""1"",""4616""
","
","","","","","","624.7999999523163","<p> If you find the fruit in the store you chose, you will get to buy and eat it! </p><div style='float: center;'><img src='images/check.png' width = '200' height = '200'></img>","","0","instructions","","","","","","","","","","","","","",""
"learning-instructions","80","440825","0.0-9.0-1.0-0.4","1713","2","2","""event"",""trial"",""time""
""fullscreenenter"",""1"",""4616""
","
","
","""event"",""trial"",""time""
""fullscreenenter"",""1"",""4616""
","
","","","","","","706.2999999523163","<p> But, if the fruit is not in that store, you will be hungry. </p><div style='float: center;'><img src='images/x.png' width = '200' height = '200'></img>","","0","instructions","","","","","","","","","","","","","",""
"learning-instructions","81","451200","0.0-9.0-1.0-0.5","1713","2","2","""event"",""trial"",""time""
""fullscreenenter"",""1"",""4616""
","
","
","""event"",""trial"",""time""
""fullscreenenter"",""1"",""4616""
","
","","","","","","592.0999999046326","<p> Importantly, each fruit is more likely to be found in one of the stores. </p><p> If you choose the correct store, you will be more likely to be able to buy the fruit! </p>","","0","instructions","","","","","","","","","","","","","",""
"learning-instructions","82","462083","0.0-9.0-1.0-0.6","1713","2","2","""event"",""trial"",""time""
""fullscreenenter"",""1"",""4616""
","
","
","""event"",""trial"",""time""
""fullscreenenter"",""1"",""4616""
","
","","","","","","435.2000000476837","<p> However, even if you choose the best store for the fruit, the store might not have it sometimes. </p><p> Similarly, even if you choose the <i>wrong</i> store, it might still have the fruit.","","0","instructions","","","","","","","","","","","","","",""
"learning-instructions","83","474880","0.0-9.0-1.0-0.7","1713","2","2","""event"",""trial"",""time""
""fullscreenenter"",""1"",""4616""
","
","
","""event"",""trial"",""time""
""fullscreenenter"",""1"",""4616""
","
","","","","","","601.6999998092651","<p> Try to choose the best store for each fruit, because you will <b> WIN </b> 1 point for each fruit you eat and <b>LOSE</b> 1 point each time you are hungry. </p><p> Your bonus payment will depend on your total number of points.","","0","instructions","","","","","","","","","","","","","",""
"learning-instructions","84","483596","0.0-9.0-1.0-0.8","1713","2","2","""event"",""trial"",""time""
""fullscreenenter"",""1"",""4616""
","
","
","""event"",""trial"",""time""
""fullscreenenter"",""1"",""4616""
","
","","","","","","497.89999985694885","<p> The position of each store will change throughout the round. </p><p> The store's position <i> does not </i> influence how likely you are to find the fruit. </p>","","0","instructions","","","","","","","","","","","","","",""
"learning-instructions","85","493565","0.0-9.0-1.0-0.9","1713","2","2","""event"",""trial"",""time""
""fullscreenenter"",""1"",""4616""
","
","
","""event"",""trial"",""time""
""fullscreenenter"",""1"",""4616""
","
","","","","","","667.0999999046326","<p> You will have 4 seconds to make each choice. Try to respond before time runs out! </p><p> You will lose 1 point each time you do not make a response. </p>","","0","instructions","","","","","","","","","","","","","",""
"html-keyboard-response","86","494181","0.0-9.0-2.0-0.0","1713","2","2","""event"",""trial"",""time""
""fullscreenenter"",""1"",""4616""
","
","
","""event"",""trial"",""time""
""fullscreenenter"",""1"",""4616""
","
","","","","","","null","<div style=""font-size:60px;"">+</div>","null","","fixation","","","","","","","","","","","","","",""
"learning-trial","87","498184","0.0-9.0-2.0-1.0","1713","2","2","""event"",""trial"",""time""
""fullscreenenter"",""1"",""4616""
","
","
","""event"",""trial"",""time""
""fullscreenenter"",""1"",""4616""
","
","","","","","","882.3999998569489","images/apple5.png","","","learning","images/fruit_choice1.png","images/fruit_choice2.png","images/fruit_choice3.png","[0,1,2]","0","0","1","images/fruit_choice1.png","-1","fruit","","apple","2","0"
"html-keyboard-response","88","498697","0.0-9.0-2.0-0.1","1713","2","2","""event"",""trial"",""time""
""fullscreenenter"",""1"",""4616""
","
","
","""event"",""trial"",""time""
""fullscreenenter"",""1"",""4616""
","
","","","","","","null","<div style=""font-size:60px;"">+</div>","null","","fixation","","","","","","","","","","","","","",""
"learning-trial","89","502711","0.0-9.0-2.0-1.1","1713","2","2","""event"",""trial"",""time""
""fullscreenenter"",""1"",""4616""
","
","
","""event"",""trial"",""time""
""fullscreenenter"",""1"",""4616""
","
","","","","","","861.2999999523163","images/straw1.png","","","learning","images/fruit_choice1.png","images/fruit_choice3.png","images/fruit_choice2.png","[0,2,1]","1","2","1","images/fruit_choice1.png","-1","fruit","","straw","2","0"
"html-keyboard-response","90","503223","0.0-9.0-2.0-0.2","1713","2","2","""event"",""trial"",""time""
""fullscreenenter"",""1"",""4616""
","
","
","""event"",""trial"",""time""
""fullscreenenter"",""1"",""4616""
","
","","","","","","null","<div style=""font-size:60px;"">+</div>","null","","fixation","","","","","","","","","","","","","",""
"learning-trial","91","507228","0.0-9.0-2.0-1.2","1713","2","2","""event"",""trial"",""time""
""fullscreenenter"",""1"",""4616""
","
","
","""event"",""trial"",""time""
""fullscreenenter"",""1"",""4616""
","
","","","","","","931.8999998569489","images/straw1.png","","","learning","images/fruit_choice2.png","images/fruit_choice3.png","images/fruit_choice1.png","[1,2,0]","1","0","1","images/fruit_choice2.png","1","fruit","","straw","2","0"
"html-keyboard-response","92","507744","0.0-9.0-2.0-0.3","1713","2","2","""event"",""trial"",""time""
""fullscreenenter"",""1"",""4616""
","
","
","""event"",""trial"",""time""
""fullscreenenter"",""1"",""4616""
","
","","","","","","null","<div style=""font-size:60px;"">+</div>","null","","fixation","","","","","","","","","","","","","",""
"learning-trial","93","511765","0.0-9.0-2.0-1.3","1713","2","2","""event"",""trial"",""time""
""fullscreenenter"",""1"",""4616""
","
","
","""event"",""trial"",""time""
""fullscreenenter"",""1"",""4616""
","
","","","","","","1033.7000000476837","images/straw4.png","","","learning","images/fruit_choice2.png","images/fruit_choice3.png","images/fruit_choice1.png","[1,2,0]","2","1","1","images/fruit_choice2.png","-1","fruit","","straw","2","0"
"html-keyboard-response","94","512281","0.0-9.0-2.0-0.4","1713","2","2","""event"",""trial"",""time""
""fullscreenenter"",""1"",""4616""
","
","
","""event"",""trial"",""time""
""fullscreenenter"",""1"",""4616""
","
","","","","","","null","<div style=""font-size:60px;"">+</div>","null","","fixation","","","","","","","","","","","","","",""
"learning-trial","95","516297","0.0-9.0-2.0-1.4","1713","2","2","""event"",""trial"",""time""
""fullscreenenter"",""1"",""4616""
","
","
","""event"",""trial"",""time""
""fullscreenenter"",""1"",""4616""
","
","","","","","","961.2999999523163","images/straw4.png","","","learning","images/fruit_choice3.png","images/fruit_choice1.png","images/fruit_choice2.png","[2,0,1]","2","0","3","images/fruit_choice2.png","-1","fruit","","straw","2","0"
"html-keyboard-response","96","516807","0.0-9.0-2.0-0.5","1713","2","2","""event"",""trial"",""time""
""fullscreenenter"",""1"",""4616""
","
","
","""event"",""trial"",""time""
""fullscreenenter"",""1"",""4616""
","
","","","","","","null","<div style=""font-size:60px;"">+</div>","null","","fixation","","","","","","","","","","","","","",""
"learning-trial","97","520826","0.0-9.0-2.0-1.5","1713","2","2","""event"",""trial"",""time""
""fullscreenenter"",""1"",""4616""
","
","
","""event"",""trial"",""time""
""fullscreenenter"",""1"",""4616""
","
","","","","","","1161.2999999523163","images/banana3.png","","","learning","images/fruit_choice1.png","images/fruit_choice2.png","images/fruit_choice3.png","[0,1,2]","1","1","1","images/fruit_choice1.png","-1","fruit","","banana","2","0"
"html-keyboard-response","98","521342","0.0-9.0-2.0-0.6","1713","2","2","""event"",""trial"",""time""
""fullscreenenter"",""1"",""4616""
","
","
","""event"",""trial"",""time""
""fullscreenenter"",""1"",""4616""
","
","","","","","","null","<div style=""font-size:60px;"">+</div>","null","","fixation","","","","","","","","","","","","","",""
"learning-trial","99","525350","0.0-9.0-2.0-1.6","1713","2","2","""event"",""trial"",""time""
""fullscreenenter"",""1"",""4616""
","
","
","""event"",""trial"",""time""
""fullscreenenter"",""1"",""4616""
","
","","","","","","1008.3999998569489","images/apple1.png","","","learning","images/fruit_choice1.png","images/fruit_choice3.png","images/fruit_choice2.png","[0,2,1]","2","1","2","images/fruit_choice3.png","1","fruit","","apple","2","0"
"html-keyboard-response","100","525853","0.0-9.0-2.0-0.7","1713","2","2","""event"",""trial"",""time""
""fullscreenenter"",""1"",""4616""
","
","
","""event"",""trial"",""time""
""fullscreenenter"",""1"",""4616""
","
","","","","","","null","<div style=""font-size:60px;"">+</div>","null","","fixation","","","","","","","","","","","","","",""
"learning-trial","101","529856","0.0-9.0-2.0-1.7","1713","2","2","""event"",""trial"",""time""
""fullscreenenter"",""1"",""4616""
","
","
","""event"",""trial"",""time""
""fullscreenenter"",""1"",""4616""
","
","","","","","","1441.8999998569489","images/straw1.png","","","learning","images/fruit_choice3.png","images/fruit_choice1.png","images/fruit_choice2.png","[2,0,1]","1","2","2","images/fruit_choice1.png","-1","fruit","","straw","2","0"
"html-keyboard-response","102","530358","0.0-9.0-2.0-0.8","1713","2","2","""event"",""trial"",""time""
""fullscreenenter"",""1"",""4616""
","
","
","""event"",""trial"",""time""
""fullscreenenter"",""1"",""4616""
","
","","","","","","null","<div style=""font-size:60px;"">+</div>","null","","fixation","","","","","","","","","","","","","",""
"learning-trial","103","534366","0.0-9.0-2.0-1.8","1713","2","2","""event"",""trial"",""time""
""fullscreenenter"",""1"",""4616""
","
","
","""event"",""trial"",""time""
""fullscreenenter"",""1"",""4616""
","
","","","","","","1509.4000000953674","images/banana5.png","","","learning","images/fruit_choice1.png","images/fruit_choice3.png","images/fruit_choice2.png","[0,2,1]","2","1","3","images/fruit_choice2.png","-1","fruit","","banana","2","0"
"html-keyboard-response","104","534868","0.0-9.0-2.0-0.9","1713","2","2","""event"",""trial"",""time""
""fullscreenenter"",""1"",""4616""
","
","
","""event"",""trial"",""time""
""fullscreenenter"",""1"",""4616""
","
","","","","","","null","<div style=""font-size:60px;"">+</div>","null","","fixation","","","","","","","","","","","","","",""
"learning-trial","105","538871","0.0-9.0-2.0-1.9","1713","2","2","""event"",""trial"",""time""
""fullscreenenter"",""1"",""4616""
","
","
","""event"",""trial"",""time""
""fullscreenenter"",""1"",""4616""
","
","","","","","","1532.3000001907349","images/apple5.png","","","learning","images/fruit_choice3.png","images/fruit_choice1.png","images/fruit_choice2.png","[2,0,1]","0","1","1","images/fruit_choice3.png","-1","fruit","","apple","2","0"
"html-keyboard-response","106","539373","0.0-9.0-2.0-0.10","1713","2","2","""event"",""trial"",""time""
""fullscreenenter"",""1"",""4616""
","
","
","""event"",""trial"",""time""
""fullscreenenter"",""1"",""4616""
","
","","","","","","null","<div style=""font-size:60px;"">+</div>","null","","fixation","","","","","","","","","","","","","",""
"learning-trial","107","543379","0.0-9.0-2.0-1.10","1713","2","2","""event"",""trial"",""time""
""fullscreenenter"",""1"",""4616""
","
","
","""event"",""trial"",""time""
""fullscreenenter"",""1"",""4616""
","
","","","","","","884.2000000476837","images/apple5.png","","","learning","images/fruit_choice2.png","images/fruit_choice3.png","images/fruit_choice1.png","[1,2,0]","0","2","1","images/fruit_choice2.png","-1","fruit","","apple","2","0"
"html-keyboard-response","108","543882","0.0-9.0-2.0-0.11","1713","2","2","""event"",""trial"",""time""
""fullscreenenter"",""1"",""4616""
","
","
","""event"",""trial"",""time""
""fullscreenenter"",""1"",""4616""
","
","","","","","","null","<div style=""font-size:60px;"">+</div>","null","","fixation","","","","","","","","","","","","","",""
"learning-trial","109","547886","0.0-9.0-2.0-1.11","1713","2","2","""event"",""trial"",""time""
""fullscreenenter"",""1"",""4616""
","
","
","""event"",""trial"",""time""
""fullscreenenter"",""1"",""4616""
","
","","","","","","1220.6999998092651","images/banana5.png","","","learning","images/fruit_choice3.png","images/fruit_choice1.png","images/fruit_choice2.png","[2,0,1]","2","0","2","images/fruit_choice1.png","-1","fruit","","banana","2","0"
"html-keyboard-response","110","548388","0.0-9.0-2.0-0.12","1713","2","2","""event"",""trial"",""time""
""fullscreenenter"",""1"",""4616""
","
","
","""event"",""trial"",""time""
""fullscreenenter"",""1"",""4616""
","
","","","","","","null","<div style=""font-size:60px;"">+</div>","null","","fixation","","","","","","","","","","","","","",""
"learning-trial","111","552395","0.0-9.0-2.0-1.12","1713","2","2","""event"",""trial"",""time""
""fullscreenenter"",""1"",""4616""
","
","
","""event"",""trial"",""time""
""fullscreenenter"",""1"",""4616""
","
","","","","","","1241.7999999523163","images/straw1.png","","","learning","images/fruit_choice2.png","images/fruit_choice1.png","images/fruit_choice3.png","[1,0,2]","1","0","1","images/fruit_choice2.png","-1","fruit","","straw","2","0"
"html-keyboard-response","112","552898","0.0-9.0-2.0-0.13","1713","2","2","""event"",""trial"",""time""
""fullscreenenter"",""1"",""4616""
","
","
","""event"",""trial"",""time""
""fullscreenenter"",""1"",""4616""
","
","","","","","","null","<div style=""font-size:60px;"">+</div>","null","","fixation","","","","","","","","","","","","","",""
"learning-trial","113","556902","0.0-9.0-2.0-1.13","1713","2","2","""event"",""trial"",""time""
""fullscreenenter"",""1"",""4616""
","
","
","""event"",""trial"",""time""
""fullscreenenter"",""1"",""4616""
","
","","","","","","1025.2999999523163","images/straw1.png","","","learning","images/fruit_choice2.png","images/fruit_choice1.png","images/fruit_choice3.png","[1,0,2]","1","0","3","images/fruit_choice3.png","1","fruit","","straw","2","0"
"html-keyboard-response","114","557404","0.0-9.0-2.0-0.14","1713","2","2","""event"",""trial"",""time""
""fullscreenenter"",""1"",""4616""
","
","
","""event"",""trial"",""time""
""fullscreenenter"",""1"",""4616""
","
","","","","","","null","<div style=""font-size:60px;"">+</div>","null","","fixation","","","","","","","","","","","","","",""
"learning-trial","115","561411","0.0-9.0-2.0-1.14","1713","2","2","""event"",""trial"",""time""
""fullscreenenter"",""1"",""4616""
","
","
","""event"",""trial"",""time""
""fullscreenenter"",""1"",""4616""
","
","","","","","","710","images/straw4.png","","","learning","images/fruit_choice2.png","images/fruit_choice1.png","images/fruit_choice3.png","[1,0,2]","2","2","3","images/fruit_choice3.png","1","fruit","","straw","2","0"
"html-keyboard-response","116","561914","0.0-9.0-2.0-0.15","1713","2","2","""event"",""trial"",""time""
""fullscreenenter"",""1"",""4616""
","
","
","""event"",""trial"",""time""
""fullscreenenter"",""1"",""4616""
","
","","","","","","null","<div style=""font-size:60px;"">+</div>","null","","fixation","","","","","","","","","","","","","",""
"learning-trial","117","565918","0.0-9.0-2.0-1.15","1713","2","2","""event"",""trial"",""time""
""fullscreenenter"",""1"",""4616""
","
","
","""event"",""trial"",""time""
""fullscreenenter"",""1"",""4616""
","
","","","","","","1087.5999999046326","images/apple3.png","","","learning","images/fruit_choice3.png","images/fruit_choice1.png","images/fruit_choice2.png","[2,0,1]","1","2","2","images/fruit_choice1.png","-1","fruit","","apple","2","0"
"html-keyboard-response","118","566421","0.0-9.0-2.0-0.16","1713","2","2","""event"",""trial"",""time""
""fullscreenenter"",""1"",""4616""
","
","
","""event"",""trial"",""time""
""fullscreenenter"",""1"",""4616""
","
","","","","","","null","<div style=""font-size:60px;"">+</div>","null","","fixation","","","","","","","","","","","","","",""
"learning-trial","119","570428","0.0-9.0-2.0-1.16","1713","2","2","""event"",""trial"",""time""
""fullscreenenter"",""1"",""4616""
","
","
","""event"",""trial"",""time""
""fullscreenenter"",""1"",""4616""
","
","","","","","","1673.7000000476837","images/banana4.png","","","learning","images/fruit_choice1.png","images/fruit_choice3.png","images/fruit_choice2.png","[0,2,1]","0","0","3","images/fruit_choice2.png","-1","fruit","","banana","2","0"
"html-keyboard-response","120","570931","0.0-9.0-2.0-0.17","1713","2","2","""event"",""trial"",""time""
""fullscreenenter"",""1"",""4616""
","
","
","""event"",""trial"",""time""
""fullscreenenter"",""1"",""4616""
","
","","","","","","null","<div style=""font-size:60px;"">+</div>","null","","fixation","","","","","","","","","","","","","",""
"learning-trial","121","574935","0.0-9.0-2.0-1.17","1713","2","2","""event"",""trial"",""time""
""fullscreenenter"",""1"",""4616""
","
","
","""event"",""trial"",""time""
""fullscreenenter"",""1"",""4616""
","
","","","","","","550.6999998092651","images/banana4.png","","","learning","images/fruit_choice1.png","images/fruit_choice2.png","images/fruit_choice3.png","[0,1,2]","0","0","2","images/fruit_choice2.png","-1","fruit","","banana","2","0"
"html-keyboard-response","122","575436","0.0-9.0-2.0-0.18","1713","2","2","""event"",""trial"",""time""
""fullscreenenter"",""1"",""4616""
","
","
","""event"",""trial"",""time""
""fullscreenenter"",""1"",""4616""
","
","","","","","","null","<div style=""font-size:60px;"">+</div>","null","","fixation","","","","","","","","","","","","","",""
"learning-trial","123","579440","0.0-9.0-2.0-1.18","1713","2","2","""event"",""trial"",""time""
""fullscreenenter"",""1"",""4616""
","
","
","""event"",""trial"",""time""
""fullscreenenter"",""1"",""4616""
","
","","","","","","1609.2000000476837","images/apple1.png","","","learning","images/fruit_choice3.png","images/fruit_choice1.png","images/fruit_choice2.png","[2,0,1]","2","0","1","images/fruit_choice3.png","1","fruit","","apple","2","0"
"html-keyboard-response","124","579944","0.0-9.0-2.0-0.19","1713","2","2","""event"",""trial"",""time""
""fullscreenenter"",""1"",""4616""
","
","
","""event"",""trial"",""time""
""fullscreenenter"",""1"",""4616""
","
","","","","","","null","<div style=""font-size:60px;"">+</div>","null","","fixation","","","","","","","","","","","","","",""
"learning-trial","125","583950","0.0-9.0-2.0-1.19","1713","2","2","""event"",""trial"",""time""
""fullscreenenter"",""1"",""4616""
","
","
","""event"",""trial"",""time""
""fullscreenenter"",""1"",""4616""
","
","","","","","","985.2999999523163","images/straw2.png","","","learning","images/fruit_choice2.png","images/fruit_choice1.png","images/fruit_choice3.png","[1,0,2]","0","1","3","images/fruit_choice3.png","1","fruit","","straw","2","0"
"html-keyboard-response","126","584453","0.0-9.0-2.0-0.20","1713","2","2","""event"",""trial"",""time""
""fullscreenenter"",""1"",""4616""
","
","
","""event"",""trial"",""time""
""fullscreenenter"",""1"",""4616""
","
","","","","","","null","<div style=""font-size:60px;"">+</div>","null","","fixation","","","","","","","","","","","","","",""
"learning-trial","127","588459","0.0-9.0-2.0-1.20","1713","2","2","""event"",""trial"",""time""
""fullscreenenter"",""1"",""4616""
","
","
","""event"",""trial"",""time""
""fullscreenenter"",""1"",""4616""
","
","","","","","","1174.3000001907349","images/banana3.png","","","learning","images/fruit_choice2.png","images/fruit_choice3.png","images/fruit_choice1.png","[1,2,0]","1","0","3","images/fruit_choice1.png","-1","fruit","","banana","2","0"
"html-keyboard-response","128","588962","0.0-9.0-2.0-0.21","1713","2","2","""event"",""trial"",""time""
""fullscreenenter"",""1"",""4616""
","
","
","""event"",""trial"",""time""
""fullscreenenter"",""1"",""4616""
","
","","","","","","null","<div style=""font-size:60px;"">+</div>","null","","fixation","","","","","","","","","","","","","",""
"learning-trial","129","592969","0.0-9.0-2.0-1.21","1713","2","2","""event"",""trial"",""time""
""fullscreenenter"",""1"",""4616""
","
","
","""event"",""trial"",""time""
""fullscreenenter"",""1"",""4616""
","
","","","","","","815.0999999046326","images/banana3.png","","","learning","images/fruit_choice2.png","images/fruit_choice3.png","images/fruit_choice1.png","[1,2,0]","1","0","2","images/fruit_choice3.png","-1","fruit","","banana","2","0"
"html-keyboard-response","130","593471","0.0-9.0-2.0-0.22","1713","2","2","""event"",""trial"",""time""
""fullscreenenter"",""1"",""4616""
","
","
","""event"",""trial"",""time""
""fullscreenenter"",""1"",""4616""
","
","","","","","","null","<div style=""font-size:60px;"">+</div>","null","","fixation","","","","","","","","","","","","","",""
"learning-trial","131","597478","0.0-9.0-2.0-1.22","1713","2","2","""event"",""trial"",""time""
""fullscreenenter"",""1"",""4616""
","
","
","""event"",""trial"",""time""
""fullscreenenter"",""1"",""4616""
","
","","","","","","1389.7999999523163","images/banana5.png","","","learning","images/fruit_choice1.png","images/fruit_choice2.png","images/fruit_choice3.png","[0,1,2]","2","2","2","images/fruit_choice2.png","1","fruit","","banana","2","0"
"html-keyboard-response","132","597981","0.0-9.0-2.0-0.23","1713","2","2","""event"",""trial"",""time""
""fullscreenenter"",""1"",""4616""
","
","
","""event"",""trial"",""time""
""fullscreenenter"",""1"",""4616""
","
","","","","","","null","<div style=""font-size:60px;"">+</div>","null","","fixation","","","","","","","","","","","","","",""
"learning-trial","133","601987","0.0-9.0-2.0-1.23","1713","2","2","""event"",""trial"",""time""
""fullscreenenter"",""1"",""4616""
","
","
","""event"",""trial"",""time""
""fullscreenenter"",""1"",""4616""
","
","","","","","","2242.7999999523163","images/apple3.png","","","learning","images/fruit_choice3.png","images/fruit_choice2.png","images/fruit_choice1.png","[2,1,0]","1","1","1","images/fruit_choice3.png","-1","fruit","","apple","2","0"
"html-keyboard-response","134","602490","0.0-9.0-2.0-0.24","1713","2","2","""event"",""trial"",""time""
""fullscreenenter"",""1"",""4616""
","
","
","""event"",""trial"",""time""
""fullscreenenter"",""1"",""4616""
","
","","","","","","null","<div style=""font-size:60px;"">+</div>","null","","fixation","","","","","","","","","","","","","",""
"learning-trial","135","606496","0.0-9.0-2.0-1.24","1713","2","2","""event"",""trial"",""time""
""fullscreenenter"",""1"",""4616""
","
","
","""event"",""trial"",""time""
""fullscreenenter"",""1"",""4616""
","
","","","","","","1305.9000000953674","images/apple5.png","","","learning","images/fruit_choice1.png","images/fruit_choice2.png","images/fruit_choice3.png","[0,1,2]","0","0","1","images/fruit_choice1.png","1","fruit","","apple","2","0"
"html-keyboard-response","136","606999","0.0-9.0-2.0-0.25","1713","2","2","""event"",""trial"",""time""
""fullscreenenter"",""1"",""4616""
","
","
","""event"",""trial"",""time""
""fullscreenenter"",""1"",""4616""
","
","","","","","","null","<div style=""font-size:60px;"">+</div>","null","","fixation","","","","","","","","","","","","","",""
"learning-trial","137","611005","0.0-9.0-2.0-1.25","1713","2","2","""event"",""trial"",""time""
""fullscreenenter"",""1"",""4616""
","
","
","""event"",""trial"",""time""
""fullscreenenter"",""1"",""4616""
","
","","","","","","1185.7000000476837","images/straw4.png","","","learning","images/fruit_choice2.png","images/fruit_choice1.png","images/fruit_choice3.png","[1,0,2]","2","2","3","images/fruit_choice3.png","1","fruit","","straw","2","0"
"html-keyboard-response","138","611508","0.0-9.0-2.0-0.26","1713","2","2","""event"",""trial"",""time""
""fullscreenenter"",""1"",""4616""
","
","
","""event"",""trial"",""time""
""fullscreenenter"",""1"",""4616""
","
","","","","","","null","<div style=""font-size:60px;"">+</div>","null","","fixation","","","","","","","","","","","","","",""
"learning-trial","139","615514","0.0-9.0-2.0-1.26","1713","2","2","""event"",""trial"",""time""
""fullscreenenter"",""1"",""4616""
","
","
","""event"",""trial"",""time""
""fullscreenenter"",""1"",""4616""
","
","","","","","","1465.2999999523163","images/apple1.png","","","learning","images/fruit_choice2.png","images/fruit_choice1.png","images/fruit_choice3.png","[1,0,2]","2","2","2","images/fruit_choice1.png","-1","fruit","","apple","2","0"
"html-keyboard-response","140","616018","0.0-9.0-2.0-0.27","1713","2","2","""event"",""trial"",""time""
""fullscreenenter"",""1"",""4616""
","
","
","""event"",""trial"",""time""
""fullscreenenter"",""1"",""4616""
","
","","","","","","null","<div style=""font-size:60px;"">+</div>","null","","fixation","","","","","","","","","","","","","",""
"learning-trial","141","620022","0.0-9.0-2.0-1.27","1713","2","2","""event"",""trial"",""time""
""fullscreenenter"",""1"",""4616""
","
","
","""event"",""trial"",""time""
""fullscreenenter"",""1"",""4616""
","
","","","","","","1773.7999999523163","images/banana3.png","","","learning","images/fruit_choice3.png","images/fruit_choice1.png","images/fruit_choice2.png","[2,0,1]","1","2","1","images/fruit_choice3.png","-1","fruit","","banana","2","0"
"html-keyboard-response","142","620524","0.0-9.0-2.0-0.28","1713","2","2","""event"",""trial"",""time""
""fullscreenenter"",""1"",""4616""
","
","
","""event"",""trial"",""time""
""fullscreenenter"",""1"",""4616""
","
","","","","","","null","<div style=""font-size:60px;"">+</div>","null","","fixation","","","","","","","","","","","","","",""
"learning-trial","143","624530","0.0-9.0-2.0-1.28","1713","2","2","""event"",""trial"",""time""
""fullscreenenter"",""1"",""4616""
","
","
","""event"",""trial"",""time""
""fullscreenenter"",""1"",""4616""
","
","","","","","","1443.1000001430511","images/apple1.png","","","learning","images/fruit_choice3.png","images/fruit_choice1.png","images/fruit_choice2.png","[2,0,1]","2","0","1","images/fruit_choice3.png","1","fruit","","apple","2","0"
"html-keyboard-response","144","625033","0.0-9.0-2.0-0.29","1713","2","2","""event"",""trial"",""time""
""fullscreenenter"",""1"",""4616""
","
","
","""event"",""trial"",""time""
""fullscreenenter"",""1"",""4616""
","
","","","","","","null","<div style=""font-size:60px;"">+</div>","null","","fixation","","","","","","","","","","","","","",""
"learning-trial","145","629039","0.0-9.0-2.0-1.29","1713","2","2","""event"",""trial"",""time""
""fullscreenenter"",""1"",""4616""
","
","
","""event"",""trial"",""time""
""fullscreenenter"",""1"",""4616""
","
","","","","","","1259.8000001907349","images/banana5.png","","","learning","images/fruit_choice1.png","images/fruit_choice3.png","images/fruit_choice2.png","[0,2,1]","2","1","1","images/fruit_choice1.png","-1","fruit","","banana","2","0"
"html-keyboard-response","146","629542","0.0-9.0-2.0-0.30","1713","2","2","""event"",""trial"",""time""
""fullscreenenter"",""1"",""4616""
","
","
","""event"",""trial"",""time""
""fullscreenenter"",""1"",""4616""
","
","","","","","","null","<div style=""font-size:60px;"">+</div>","null","","fixation","","","","","","","","","","","","","",""
"learning-trial","147","633548","0.0-9.0-2.0-1.30","1713","2","2","""event"",""trial"",""time""
""fullscreenenter"",""1"",""4616""
","
","
","""event"",""trial"",""time""
""fullscreenenter"",""1"",""4616""
","
","","","","","","893.1000001430511","images/banana4.png","","","learning","images/fruit_choice3.png","images/fruit_choice1.png","images/fruit_choice2.png","[2,0,1]","0","1","3","images/fruit_choice2.png","-1","fruit","","banana","2","0"
"html-keyboard-response","148","634051","0.0-9.0-2.0-0.31","1713","2","2","""event"",""trial"",""time""
""fullscreenenter"",""1"",""4616""
","
","
","""event"",""trial"",""time""
""fullscreenenter"",""1"",""4616""
","
","","","","","","null","<div style=""font-size:60px;"">+</div>","null","","fixation","","","","","","","","","","","","","",""
"learning-trial","149","638057","0.0-9.0-2.0-1.31","1713","2","2","""event"",""trial"",""time""
""fullscreenenter"",""1"",""4616""
","
","
","""event"",""trial"",""time""
""fullscreenenter"",""1"",""4616""
","
","","","","","","1121","images/straw1.png","","","learning","images/fruit_choice2.png","images/fruit_choice3.png","images/fruit_choice1.png","[1,2,0]","1","0","2","images/fruit_choice3.png","-1","fruit","","straw","2","0"
"html-keyboard-response","150","638558","0.0-9.0-2.0-0.32","1713","2","2","""event"",""trial"",""time""
""fullscreenenter"",""1"",""4616""
","
","
","""event"",""trial"",""time""
""fullscreenenter"",""1"",""4616""
","
","","","","","","null","<div style=""font-size:60px;"">+</div>","null","","fixation","","","","","","","","","","","","","",""
"learning-trial","151","642562","0.0-9.0-2.0-1.32","1713","2","2","""event"",""trial"",""time""
""fullscreenenter"",""1"",""4616""
","
","
","""event"",""trial"",""time""
""fullscreenenter"",""1"",""4616""
","
","","","","","","1895.6000001430511","images/straw2.png","","","learning","images/fruit_choice1.png","images/fruit_choice2.png","images/fruit_choice3.png","[0,1,2]","0","0","3","images/fruit_choice3.png","-1","fruit","","straw","2","0"
"html-keyboard-response","152","643064","0.0-9.0-2.0-0.33","1713","2","2","""event"",""trial"",""time""
""fullscreenenter"",""1"",""4616""
","
","
","""event"",""trial"",""time""
""fullscreenenter"",""1"",""4616""
","
","","","","","","null","<div style=""font-size:60px;"">+</div>","null","","fixation","","","","","","","","","","","","","",""
"learning-trial","153","647070","0.0-9.0-2.0-1.33","1713","2","2","""event"",""trial"",""time""
""fullscreenenter"",""1"",""4616""
","
","
","""event"",""trial"",""time""
""fullscreenenter"",""1"",""4616""
","
","","","","","","1394.5","images/banana4.png","","","learning","images/fruit_choice2.png","images/fruit_choice3.png","images/fruit_choice1.png","[1,2,0]","0","2","1","images/fruit_choice2.png","1","fruit","","banana","2","0"
"html-keyboard-response","154","647573","0.0-9.0-2.0-0.34","1713","2","2","""event"",""trial"",""time""
""fullscreenenter"",""1"",""4616""
","
","
","""event"",""trial"",""time""
""fullscreenenter"",""1"",""4616""
","
","","","","","","null","<div style=""font-size:60px;"">+</div>","null","","fixation","","","","","","","","","","","","","",""
"learning-trial","155","651579","0.0-9.0-2.0-1.34","1713","2","2","""event"",""trial"",""time""
""fullscreenenter"",""1"",""4616""
","
","
","""event"",""trial"",""time""
""fullscreenenter"",""1"",""4616""
","
","","","","","","936.8000001907349","images/straw4.png","","","learning","images/fruit_choice3.png","images/fruit_choice2.png","images/fruit_choice1.png","[2,1,0]","2","0","1","images/fruit_choice3.png","1","fruit","","straw","2","0"
"html-keyboard-response","156","652081","0.0-9.0-2.0-0.35","1713","2","2","""event"",""trial"",""time""
""fullscreenenter"",""1"",""4616""
","
","
","""event"",""trial"",""time""
""fullscreenenter"",""1"",""4616""
","
","","","","","","null","<div style=""font-size:60px;"">+</div>","null","","fixation","","","","","","","","","","","","","",""
"learning-trial","157","656088","0.0-9.0-2.0-1.35","1713","2","2","""event"",""trial"",""time""
""fullscreenenter"",""1"",""4616""
","
","
","""event"",""trial"",""time""
""fullscreenenter"",""1"",""4616""
","
","","","","","","1919.6999998092651","images/apple1.png","","","learning","images/fruit_choice3.png","images/fruit_choice2.png","images/fruit_choice1.png","[2,1,0]","2","0","1","images/fruit_choice3.png","1","fruit","","apple","2","0"
"html-keyboard-response","158","656591","0.0-9.0-2.0-0.36","1713","2","2","""event"",""trial"",""time""
""fullscreenenter"",""1"",""4616""
","
","
","""event"",""trial"",""time""
""fullscreenenter"",""1"",""4616""
","
","","","","","","null","<div style=""font-size:60px;"">+</div>","null","","fixation","","","","","","","","","","","","","",""
"learning-trial","159","660607","0.0-9.0-2.0-1.36","1713","2","2","""event"",""trial"",""time""
""fullscreenenter"",""1"",""4616""
","
","
","""event"",""trial"",""time""
""fullscreenenter"",""1"",""4616""
","
","","","","","","1671.2999999523163","images/banana3.png","","","learning","images/fruit_choice3.png","images/fruit_choice2.png","images/fruit_choice1.png","[2,1,0]","1","1","2","images/fruit_choice2.png","-1","fruit","","banana","2","0"
"html-keyboard-response","160","661111","0.0-9.0-2.0-0.37","1713","2","2","""event"",""trial"",""time""
""fullscreenenter"",""1"",""4616""
","
","
","""event"",""trial"",""time""
""fullscreenenter"",""1"",""4616""
","
","","","","","","null","<div style=""font-size:60px;"">+</div>","null","","fixation","","","","","","","","","","","","","",""
"learning-trial","161","665117","0.0-9.0-2.0-1.37","1713","2","2","""event"",""trial"",""time""
""fullscreenenter"",""1"",""4616""
","
","
","""event"",""trial"",""time""
""fullscreenenter"",""1"",""4616""
","
","","","","","","1168.1000001430511","images/banana4.png","","","learning","images/fruit_choice3.png","images/fruit_choice2.png","images/fruit_choice1.png","[2,1,0]","0","2","3","images/fruit_choice1.png","1","fruit","","banana","2","0"
"html-keyboard-response","162","665621","0.0-9.0-2.0-0.38","1713","2","2","""event"",""trial"",""time""
""fullscreenenter"",""1"",""4616""
","
","
","""event"",""trial"",""time""
""fullscreenenter"",""1"",""4616""
","
","","","","","","null","<div style=""font-size:60px;"">+</div>","null","","fixation","","","","","","","","","","","","","",""
"learning-trial","163","669626","0.0-9.0-2.0-1.38","1713","2","2","""event"",""trial"",""time""
""fullscreenenter"",""1"",""4616""
","
","
","""event"",""trial"",""time""
""fullscreenenter"",""1"",""4616""
","
","","","","","","995.0999999046326","images/apple1.png","","","learning","images/fruit_choice3.png","images/fruit_choice1.png","images/fruit_choice2.png","[2,0,1]","2","0","1","images/fruit_choice3.png","1","fruit","","apple","2","0"
"html-keyboard-response","164","670128","0.0-9.0-2.0-0.39","1713","2","2","""event"",""trial"",""time""
""fullscreenenter"",""1"",""4616""
","
","
","""event"",""trial"",""time""
""fullscreenenter"",""1"",""4616""
","
","","","","","","null","<div style=""font-size:60px;"">+</div>","null","","fixation","","","","","","","","","","","","","",""
"learning-trial","165","674134","0.0-9.0-2.0-1.39","1713","2","2","""event"",""trial"",""time""
""fullscreenenter"",""1"",""4616""
","
","
","""event"",""trial"",""time""
""fullscreenenter"",""1"",""4616""
","
","","","","","","807.1000001430511","images/banana5.png","","","learning","images/fruit_choice1.png","images/fruit_choice3.png","images/fruit_choice2.png","[0,2,1]","2","1","1","images/fruit_choice1.png","-1","fruit","","banana","2","0"
"html-keyboard-response","166","674638","0.0-9.0-2.0-0.40","1713","2","2","""event"",""trial"",""time""
""fullscreenenter"",""1"",""4616""
","
","
","""event"",""trial"",""time""
""fullscreenenter"",""1"",""4616""
","
","","","","","","null","<div style=""font-size:60px;"">+</div>","null","","fixation","","","","","","","","","","","","","",""
"learning-trial","167","678644","0.0-9.0-2.0-1.40","1713","2","2","""event"",""trial"",""time""
""fullscreenenter"",""1"",""4616""
","
","
","""event"",""trial"",""time""
""fullscreenenter"",""1"",""4616""
","
","","","","","","958.7000000476837","images/banana3.png","","","learning","images/fruit_choice3.png","images/fruit_choice1.png","images/fruit_choice2.png","[2,0,1]","1","2","2","images/fruit_choice1.png","1","fruit","","banana","2","0"
"html-keyboard-response","168","679147","0.0-9.0-2.0-0.41","1713","2","2","""event"",""trial"",""time""
""fullscreenenter"",""1"",""4616""
","
","
","""event"",""trial"",""time""
""fullscreenenter"",""1"",""4616""
","
","","","","","","null","<div style=""font-size:60px;"">+</div>","null","","fixation","","","","","","","","","","","","","",""
"learning-trial","169","683152","0.0-9.0-2.0-1.41","1713","2","2","""event"",""trial"",""time""
""fullscreenenter"",""1"",""4616""
","
","
","""event"",""trial"",""time""
""fullscreenenter"",""1"",""4616""
","
","","","","","","841.7999999523163","images/apple1.png","","","learning","images/fruit_choice2.png","images/fruit_choice3.png","images/fruit_choice1.png","[1,2,0]","2","1","2","images/fruit_choice3.png","1","fruit","","apple","2","0"
"html-keyboard-response","170","683655","0.0-9.0-2.0-0.42","1713","2","2","""event"",""trial"",""time""
""fullscreenenter"",""1"",""4616""
","
","
","""event"",""trial"",""time""
""fullscreenenter"",""1"",""4616""
","
","","","","","","null","<div style=""font-size:60px;"">+</div>","null","","fixation","","","","","","","","","","","","","",""
"learning-trial","171","687660","0.0-9.0-2.0-1.42","1713","2","2","""event"",""trial"",""time""
""fullscreenenter"",""1"",""4616""
","
","
","""event"",""trial"",""time""
""fullscreenenter"",""1"",""4616""
","
","","","","","","852.7999999523163","images/banana5.png","","","learning","images/fruit_choice1.png","images/fruit_choice3.png","images/fruit_choice2.png","[0,2,1]","2","1","1","images/fruit_choice1.png","-1","fruit","","banana","2","0"
"html-keyboard-response","172","688163","0.0-9.0-2.0-0.43","1713","2","2","""event"",""trial"",""time""
""fullscreenenter"",""1"",""4616""
","
","
","""event"",""trial"",""time""
""fullscreenenter"",""1"",""4616""
","
","","","","","","null","<div style=""font-size:60px;"">+</div>","null","","fixation","","","","","","","","","","","","","",""
"learning-trial","173","692170","0.0-9.0-2.0-1.43","1713","2","2","""event"",""trial"",""time""
""fullscreenenter"",""1"",""4616""
","
","
","""event"",""trial"",""time""
""fullscreenenter"",""1"",""4616""
","
","","","","","","1289.9000000953674","images/apple3.png","","","learning","images/fruit_choice2.png","images/fruit_choice3.png","images/fruit_choice1.png","[1,2,0]","1","0","1","images/fruit_choice2.png","1","fruit","","apple","2","0"
"html-keyboard-response","174","692674","0.0-9.0-2.0-0.44","1713","2","2","""event"",""trial"",""time""
""fullscreenenter"",""1"",""4616""
","
","
","""event"",""trial"",""time""
""fullscreenenter"",""1"",""4616""
","
","","","","","","null","<div style=""font-size:60px;"">+</div>","null","","fixation","","","","","","","","","","","","","",""
"learning-trial","175","696680","0.0-9.0-2.0-1.44","1713","2","2","""event"",""trial"",""time""
""fullscreenenter"",""1"",""4616""
","
","
","""event"",""trial"",""time""
""fullscreenenter"",""1"",""4616""
","
","","","","","","837.0999999046326","images/apple3.png","","","learning","images/fruit_choice3.png","images/fruit_choice2.png","images/fruit_choice1.png","[2,1,0]","1","1","2","images/fruit_choice2.png","1","fruit","","apple","2","0"
"html-keyboard-response","176","697183","0.0-9.0-2.0-0.45","1713","2","2","""event"",""trial"",""time""
""fullscreenenter"",""1"",""4616""
","
","
","""event"",""trial"",""time""
""fullscreenenter"",""1"",""4616""
","
","","","","","","null","<div style=""font-size:60px;"">+</div>","null","","fixation","","","","","","","","","","","","","",""
"learning-trial","177","701190","0.0-9.0-2.0-1.45","1713","2","2","""event"",""trial"",""time""
""fullscreenenter"",""1"",""4616""
","
","
","""event"",""trial"",""time""
""fullscreenenter"",""1"",""4616""
","
","","","","","","758.2000000476837","images/apple3.png","","","learning","images/fruit_choice1.png","images/fruit_choice2.png","images/fruit_choice3.png","[0,1,2]","1","1","2","images/fruit_choice2.png","1","fruit","","apple","2","0"
"html-keyboard-response","178","701693","0.0-9.0-2.0-0.46","1713","2","2","""event"",""trial"",""time""
""fullscreenenter"",""1"",""4616""
","
","
","""event"",""trial"",""time""
""fullscreenenter"",""1"",""4616""
","
","","","","","","null","<div style=""font-size:60px;"">+</div>","null","","fixation","","","","","","","","","","","","","",""
"learning-trial","179","705696","0.0-9.0-2.0-1.46","1713","2","2","""event"",""trial"",""time""
""fullscreenenter"",""1"",""4616""
","
","
","""event"",""trial"",""time""
""fullscreenenter"",""1"",""4616""
","
","","","","","","782.5999999046326","images/straw2.png","","","learning","images/fruit_choice3.png","images/fruit_choice2.png","images/fruit_choice1.png","[2,1,0]","0","2","1","images/fruit_choice3.png","-1","fruit","","straw","2","0"
"html-keyboard-response","180","706199","0.0-9.0-2.0-0.47","1713","2","2","""event"",""trial"",""time""
""fullscreenenter"",""1"",""4616""
","
","
","""event"",""trial"",""time""
""fullscreenenter"",""1"",""4616""
","
","","","","","","null","<div style=""font-size:60px;"">+</div>","null","","fixation","","","","","","","","","","","","","",""
"learning-trial","181","710206","0.0-9.0-2.0-1.47","1713","2","2","""event"",""trial"",""time""
""fullscreenenter"",""1"",""4616""
","
","
","""event"",""trial"",""time""
""fullscreenenter"",""1"",""4616""
","
","","","","","","558.7999999523163","images/straw2.png","","","learning","images/fruit_choice2.png","images/fruit_choice3.png","images/fruit_choice1.png","[1,2,0]","0","2","1","images/fruit_choice2.png","1","fruit","","straw","2","0"
"html-keyboard-response","182","710710","0.0-9.0-2.0-0.48","1713","2","2","""event"",""trial"",""time""
""fullscreenenter"",""1"",""4616""
","
","
","""event"",""trial"",""time""
""fullscreenenter"",""1"",""4616""
","
","","","","","","null","<div style=""font-size:60px;"">+</div>","null","","fixation","","","","","","","","","","","","","",""
"learning-trial","183","714717","0.0-9.0-2.0-1.48","1713","2","2","""event"",""trial"",""time""
""fullscreenenter"",""1"",""4616""
","
","
","""event"",""trial"",""time""
""fullscreenenter"",""1"",""4616""
","
","","","","","","1765.2999999523163","images/apple5.png","","","learning","images/fruit_choice1.png","images/fruit_choice2.png","images/fruit_choice3.png","[0,1,2]","0","0","1","images/fruit_choice1.png","-1","fruit","","apple","2","0"
"html-keyboard-response","184","715220","0.0-9.0-2.0-0.49","1713","2","2","""event"",""trial"",""time""
""fullscreenenter"",""1"",""4616""
","
","
","""event"",""trial"",""time""
""fullscreenenter"",""1"",""4616""
","
","","","","","","null","<div style=""font-size:60px;"">+</div>","null","","fixation","","","","","","","","","","","","","",""
"learning-trial","185","719227","0.0-9.0-2.0-1.49","1713","2","2","""event"",""trial"",""time""
""fullscreenenter"",""1"",""4616""
","
","
","""event"",""trial"",""time""
""fullscreenenter"",""1"",""4616""
","
","","","","","","470.09999990463257","images/apple5.png","","","learning","images/fruit_choice1.png","images/fruit_choice2.png","images/fruit_choice3.png","[0,1,2]","0","0","2","images/fruit_choice2.png","-1","fruit","","apple","2","0"
"html-keyboard-response","186","719730","0.0-9.0-2.0-0.50","1713","2","2","""event"",""trial"",""time""
""fullscreenenter"",""1"",""4616""
","
","
","""event"",""trial"",""time""
""fullscreenenter"",""1"",""4616""
","
","","","","","","null","<div style=""font-size:60px;"">+</div>","null","","fixation","","","","","","","","","","","","","",""
"learning-trial","187","723733","0.0-9.0-2.0-1.50","1713","2","2","""event"",""trial"",""time""
""fullscreenenter"",""1"",""4616""
","
","
","""event"",""trial"",""time""
""fullscreenenter"",""1"",""4616""
","
","","","","","","1628.5","images/banana4.png","","","learning","images/fruit_choice3.png","images/fruit_choice1.png","images/fruit_choice2.png","[2,0,1]","0","1","1","images/fruit_choice3.png","-1","fruit","","banana","2","0"
"html-keyboard-response","188","724236","0.0-9.0-2.0-0.51","1713","2","2","""event"",""trial"",""time""
""fullscreenenter"",""1"",""4616""
","
","
","""event"",""trial"",""time""
""fullscreenenter"",""1"",""4616""
","
","","","","","","null","<div style=""font-size:60px;"">+</div>","null","","fixation","","","","","","","","","","","","","",""
"learning-trial","189","728243","0.0-9.0-2.0-1.51","1713","2","2","""event"",""trial"",""time""
""fullscreenenter"",""1"",""4616""
","
","
","""event"",""trial"",""time""
""fullscreenenter"",""1"",""4616""
","
","","","","","","1141.5","images/apple5.png","","","learning","images/fruit_choice1.png","images/fruit_choice3.png","images/fruit_choice2.png","[0,2,1]","0","0","1","images/fruit_choice1.png","1","fruit","","apple","2","0"
"html-keyboard-response","190","728745","0.0-9.0-2.0-0.52","1713","2","2","""event"",""trial"",""time""
""fullscreenenter"",""1"",""4616""
","
","
","""event"",""trial"",""time""
""fullscreenenter"",""1"",""4616""
","
","","","","","","null","<div style=""font-size:60px;"">+</div>","null","","fixation","","","","","","","","","","","","","",""
"learning-trial","191","732751","0.0-9.0-2.0-1.52","1713","2","2","""event"",""trial"",""time""
""fullscreenenter"",""1"",""4616""
","
","
","""event"",""trial"",""time""
""fullscreenenter"",""1"",""4616""
","
","","","","","","1133","images/straw2.png","","","learning","images/fruit_choice1.png","images/fruit_choice2.png","images/fruit_choice3.png","[0,1,2]","0","0","3","images/fruit_choice3.png","-1","fruit","","straw","2","0"
"html-keyboard-response","192","733253","0.0-9.0-2.0-0.53","1713","2","2","""event"",""trial"",""time""
""fullscreenenter"",""1"",""4616""
","
","
","""event"",""trial"",""time""
""fullscreenenter"",""1"",""4616""
","
","","","","","","null","<div style=""font-size:60px;"">+</div>","null","","fixation","","","","","","","","","","","","","",""
"learning-trial","193","737259","0.0-9.0-2.0-1.53","1713","2","2","""event"",""trial"",""time""
""fullscreenenter"",""1"",""4616""
","
","
","""event"",""trial"",""time""
""fullscreenenter"",""1"",""4616""
","
","","","","","","1225.5","images/apple3.png","","","learning","images/fruit_choice1.png","images/fruit_choice3.png","images/fruit_choice2.png","[0,2,1]","1","2","3","images/fruit_choice2.png","1","fruit","","apple","2","0"
"html-keyboard-response","194","737762","0.0-9.0-2.0-0.54","1713","2","2","""event"",""trial"",""time""
""fullscreenenter"",""1"",""4616""
","
","
","""event"",""trial"",""time""
""fullscreenenter"",""1"",""4616""
","
","","","","","","null","<div style=""font-size:60px;"">+</div>","null","","fixation","","","","","","","","","","","","","",""
"learning-trial","195","741768","0.0-9.0-2.0-1.54","1713","2","2","""event"",""trial"",""time""
""fullscreenenter"",""1"",""4616""
","
","
","""event"",""trial"",""time""
""fullscreenenter"",""1"",""4616""
","
","","","","","","1294.5","images/straw1.png","","","learning","images/fruit_choice3.png","images/fruit_choice1.png","images/fruit_choice2.png","[2,0,1]","1","2","1","images/fruit_choice3.png","-1","fruit","","straw","2","0"
"html-keyboard-response","196","742270","0.0-9.0-2.0-0.55","1713","2","2","""event"",""trial"",""time""
""fullscreenenter"",""1"",""4616""
","
","
","""event"",""trial"",""time""
""fullscreenenter"",""1"",""4616""
","
","","","","","","null","<div style=""font-size:60px;"">+</div>","null","","fixation","","","","","","","","","","","","","",""
"learning-trial","197","746277","0.0-9.0-2.0-1.55","1713","2","2","""event"",""trial"",""time""
""fullscreenenter"",""1"",""4616""
","
","
","""event"",""trial"",""time""
""fullscreenenter"",""1"",""4616""
","
","","","","","","1008.1000001430511","images/banana4.png","","","learning","images/fruit_choice2.png","images/fruit_choice1.png","images/fruit_choice3.png","[1,0,2]","0","1","2","images/fruit_choice1.png","1","fruit","","banana","2","0"
"html-keyboard-response","198","746780","0.0-9.0-2.0-0.56","1713","2","2","""event"",""trial"",""time""
""fullscreenenter"",""1"",""4616""
","
","
","""event"",""trial"",""time""
""fullscreenenter"",""1"",""4616""
","
","","","","","","null","<div style=""font-size:60px;"">+</div>","null","","fixation","","","","","","","","","","","","","",""
"learning-trial","199","750786","0.0-9.0-2.0-1.56","1713","2","2","""event"",""trial"",""time""
""fullscreenenter"",""1"",""4616""
","
","
","""event"",""trial"",""time""
""fullscreenenter"",""1"",""4616""
","
","","","","","","1102","images/apple1.png","","","learning","images/fruit_choice1.png","images/fruit_choice3.png","images/fruit_choice2.png","[0,2,1]","2","1","2","images/fruit_choice3.png","1","fruit","","apple","2","0"
"html-keyboard-response","200","751289","0.0-9.0-2.0-0.57","1713","2","2","""event"",""trial"",""time""
""fullscreenenter"",""1"",""4616""
","
","
","""event"",""trial"",""time""
""fullscreenenter"",""1"",""4616""
","
","","","","","","null","<div style=""font-size:60px;"">+</div>","null","","fixation","","","","","","","","","","","","","",""
"learning-trial","201","755295","0.0-9.0-2.0-1.57","1713","2","2","""event"",""trial"",""time""
""fullscreenenter"",""1"",""4616""
","
","
","""event"",""trial"",""time""
""fullscreenenter"",""1"",""4616""
","
","","","","","","1445","images/banana3.png","","","learning","images/fruit_choice2.png","images/fruit_choice1.png","images/fruit_choice3.png","[1,0,2]","1","0","2","images/fruit_choice1.png","1","fruit","","banana","2","0"
"html-keyboard-response","202","755798","0.0-9.0-2.0-0.58","1713","2","2","""event"",""trial"",""time""
""fullscreenenter"",""1"",""4616""
","
","
","""event"",""trial"",""time""
""fullscreenenter"",""1"",""4616""
","
","","","","","","null","<div style=""font-size:60px;"">+</div>","null","","fixation","","","","","","","","","","","","","",""
"learning-trial","203","759801","0.0-9.0-2.0-1.58","1713","2","2","""event"",""trial"",""time""
""fullscreenenter"",""1"",""4616""
","
","
","""event"",""trial"",""time""
""fullscreenenter"",""1"",""4616""
","
","","","","","","716.7000000476837","images/banana5.png","","","learning","images/fruit_choice3.png","images/fruit_choice1.png","images/fruit_choice2.png","[2,0,1]","2","0","2","images/fruit_choice1.png","-1","fruit","","banana","2","0"
"html-keyboard-response","204","760303","0.0-9.0-2.0-0.59","1713","2","2","""event"",""trial"",""time""
""fullscreenenter"",""1"",""4616""
","
","
","""event"",""trial"",""time""
""fullscreenenter"",""1"",""4616""
","
","","","","","","null","<div style=""font-size:60px;"">+</div>","null","","fixation","","","","","","","","","","","","","",""
"learning-trial","205","764310","0.0-9.0-2.0-1.59","1713","2","2","""event"",""trial"",""time""
""fullscreenenter"",""1"",""4616""
","
","
","""event"",""trial"",""time""
""fullscreenenter"",""1"",""4616""
","
","","","","","","1108.9000000953674","images/straw2.png","","","learning","images/fruit_choice3.png","images/fruit_choice2.png","images/fruit_choice1.png","[2,1,0]","0","2","2","images/fruit_choice2.png","-1","fruit","","straw","2","0"
"html-keyboard-response","206","764813","0.0-9.0-2.0-0.60","1713","2","2","""event"",""trial"",""time""
""fullscreenenter"",""1"",""4616""
","
","
","""event"",""trial"",""time""
""fullscreenenter"",""1"",""4616""
","
","","","","","","null","<div style=""font-size:60px;"">+</div>","null","","fixation","","","","","","","","","","","","","",""
"learning-trial","207","768818","0.0-9.0-2.0-1.60","1713","2","2","""event"",""trial"",""time""
""fullscreenenter"",""1"",""4616""
","
","
","""event"",""trial"",""time""
""fullscreenenter"",""1"",""4616""
","
","","","","","","1354","images/apple3.png","","","learning","images/fruit_choice3.png","images/fruit_choice2.png","images/fruit_choice1.png","[2,1,0]","1","1","3","images/fruit_choice1.png","-1","fruit","","apple","2","0"
"html-keyboard-response","208","769320","0.0-9.0-2.0-0.61","1713","2","2","""event"",""trial"",""time""
""fullscreenenter"",""1"",""4616""
","
","
","""event"",""trial"",""time""
""fullscreenenter"",""1"",""4616""
","
","","","","","","null","<div style=""font-size:60px;"">+</div>","null","","fixation","","","","","","","","","","","","","",""
"learning-trial","209","773325","0.0-9.0-2.0-1.61","1713","2","2","""event"",""trial"",""time""
""fullscreenenter"",""1"",""4616""
","
","
","""event"",""trial"",""time""
""fullscreenenter"",""1"",""4616""
","
","","","","","","793.2000000476837","images/apple3.png","","","learning","images/fruit_choice3.png","images/fruit_choice1.png","images/fruit_choice2.png","[2,0,1]","1","2","3","images/fruit_choice2.png","1","fruit","","apple","2","0"
"html-keyboard-response","210","773828","0.0-9.0-2.0-0.62","1713","2","2","""event"",""trial"",""time""
""fullscreenenter"",""1"",""4616""
","
","
","""event"",""trial"",""time""
""fullscreenenter"",""1"",""4616""
","
","","","","","","null","<div style=""font-size:60px;"">+</div>","null","","fixation","","","","","","","","","","","","","",""
"learning-trial","211","777846","0.0-9.0-2.0-1.62","1713","2","2","""event"",""trial"",""time""
""fullscreenenter"",""1"",""4616""
","
","
","""event"",""trial"",""time""
""fullscreenenter"",""1"",""4616""
","
","","","","","","1881.3999998569489","images/straw1.png","","","learning","images/fruit_choice1.png","images/fruit_choice2.png","images/fruit_choice3.png","[0,1,2]","1","1","3","images/fruit_choice3.png","-1","fruit","","straw","2","0"
"html-keyboard-response","212","778349","0.0-9.0-2.0-0.63","1713","2","2","""event"",""trial"",""time""
""fullscreenenter"",""1"",""4616""
","
","
","""event"",""trial"",""time""
""fullscreenenter"",""1"",""4616""
","
","","","","","","null","<div style=""font-size:60px;"">+</div>","null","","fixation","","","","","","","","","","","","","",""
"learning-trial","213","782356","0.0-9.0-2.0-1.63","1713","2","2","""event"",""trial"",""time""
""fullscreenenter"",""1"",""4616""
","
","
","""event"",""trial"",""time""
""fullscreenenter"",""1"",""4616""
","
","","","","","","1472","images/straw4.png","","","learning","images/fruit_choice2.png","images/fruit_choice3.png","images/fruit_choice1.png","[1,2,0]","2","1","2","images/fruit_choice3.png","1","fruit","","straw","2","0"
"html-keyboard-response","214","782858","0.0-9.0-2.0-0.64","1713","2","2","""event"",""trial"",""time""
""fullscreenenter"",""1"",""4616""
","
","
","""event"",""trial"",""time""
""fullscreenenter"",""1"",""4616""
","
","","","","","","null","<div style=""font-size:60px;"">+</div>","null","","fixation","","","","","","","","","","","","","",""
"learning-trial","215","786861","0.0-9.0-2.0-1.64","1713","2","2","""event"",""trial"",""time""
""fullscreenenter"",""1"",""4616""
","
","
","""event"",""trial"",""time""
""fullscreenenter"",""1"",""4616""
","
","","","","","","1370.7999999523163","images/straw2.png","","","learning","images/fruit_choice1.png","images/fruit_choice2.png","images/fruit_choice3.png","[0,1,2]","0","0","2","images/fruit_choice2.png","-1","fruit","","straw","2","0"
"html-keyboard-response","216","787364","0.0-9.0-2.0-0.65","1713","2","2","""event"",""trial"",""time""
""fullscreenenter"",""1"",""4616""
","
","
","""event"",""trial"",""time""
""fullscreenenter"",""1"",""4616""
","
","","","","","","null","<div style=""font-size:60px;"">+</div>","null","","fixation","","","","","","","","","","","","","",""
"learning-trial","217","791370","0.0-9.0-2.0-1.65","1713","2","2","""event"",""trial"",""time""
""fullscreenenter"",""1"",""4616""
","
","
","""event"",""trial"",""time""
""fullscreenenter"",""1"",""4616""
","
","","","","","","2071.7999999523163","images/apple5.png","","","learning","images/fruit_choice3.png","images/fruit_choice1.png","images/fruit_choice2.png","[2,0,1]","0","1","2","images/fruit_choice1.png","1","fruit","","apple","2","0"
"html-keyboard-response","218","791873","0.0-9.0-2.0-0.66","1713","2","2","""event"",""trial"",""time""
""fullscreenenter"",""1"",""4616""
","
","
","""event"",""trial"",""time""
""fullscreenenter"",""1"",""4616""
","
","","","","","","null","<div style=""font-size:60px;"">+</div>","null","","fixation","","","","","","","","","","","","","",""
"learning-trial","219","795875","0.0-9.0-2.0-1.66","1713","2","2","""event"",""trial"",""time""
""fullscreenenter"",""1"",""4616""
","
","
","""event"",""trial"",""time""
""fullscreenenter"",""1"",""4616""
","
","","","","","","941.0999999046326","images/banana3.png","","","learning","images/fruit_choice1.png","images/fruit_choice3.png","images/fruit_choice2.png","[0,2,1]","1","2","1","images/fruit_choice1.png","-1","fruit","","banana","2","0"
"html-keyboard-response","220","796377","0.0-9.0-2.0-0.67","1713","2","2","""event"",""trial"",""time""
""fullscreenenter"",""1"",""4616""
","
","
","""event"",""trial"",""time""
""fullscreenenter"",""1"",""4616""
","
","","","","","","null","<div style=""font-size:60px;"">+</div>","null","","fixation","","","","","","","","","","","","","",""
"learning-trial","221","800382","0.0-9.0-2.0-1.67","1713","2","2","""event"",""trial"",""time""
""fullscreenenter"",""1"",""4616""
","
","
","""event"",""trial"",""time""
""fullscreenenter"",""1"",""4616""
","
","","","","","","1366.5999999046326","images/straw4.png","","","learning","images/fruit_choice1.png","images/fruit_choice2.png","images/fruit_choice3.png","[0,1,2]","2","2","3","images/fruit_choice3.png","-1","fruit","","straw","2","0"
"html-keyboard-response","222","800885","0.0-9.0-2.0-0.68","1713","2","2","""event"",""trial"",""time""
""fullscreenenter"",""1"",""4616""
","
","
","""event"",""trial"",""time""
""fullscreenenter"",""1"",""4616""
","
","","","","","","null","<div style=""font-size:60px;"">+</div>","null","","fixation","","","","","","","","","","","","","",""
"learning-trial","223","804887","0.0-9.0-2.0-1.68","1713","2","2","""event"",""trial"",""time""
""fullscreenenter"",""1"",""4616""
","
","
","""event"",""trial"",""time""
""fullscreenenter"",""1"",""4616""
","
","","","","","","579.3999998569489","images/straw4.png","","","learning","images/fruit_choice1.png","images/fruit_choice2.png","images/fruit_choice3.png","[0,1,2]","2","2","2","images/fruit_choice2.png","-1","fruit","","straw","2","0"
"html-keyboard-response","224","805399","0.0-9.0-2.0-0.69","1713","2","2","""event"",""trial"",""time""
""fullscreenenter"",""1"",""4616""
","
","
","""event"",""trial"",""time""
""fullscreenenter"",""1"",""4616""
","
","","","","","","null","<div style=""font-size:60px;"">+</div>","null","","fixation","","","","","","","","","","","","","",""
"learning-trial","225","809406","0.0-9.0-2.0-1.69","1713","2","2","""event"",""trial"",""time""
""fullscreenenter"",""1"",""4616""
","
","
","""event"",""trial"",""time""
""fullscreenenter"",""1"",""4616""
","
","","","","","","897.5999999046326","images/straw2.png","","","learning","images/fruit_choice1.png","images/fruit_choice2.png","images/fruit_choice3.png","[0,1,2]","0","0","2","images/fruit_choice2.png","-1","fruit","","straw","2","0"
"html-keyboard-response","226","809909","0.0-9.0-2.0-0.70","1713","2","2","""event"",""trial"",""time""
""fullscreenenter"",""1"",""4616""
","
","
","""event"",""trial"",""time""
""fullscreenenter"",""1"",""4616""
","
","","","","","","null","<div style=""font-size:60px;"">+</div>","null","","fixation","","","","","","","","","","","","","",""
"learning-trial","227","813912","0.0-9.0-2.0-1.70","1713","2","2","""event"",""trial"",""time""
""fullscreenenter"",""1"",""4616""
","
","
","""event"",""trial"",""time""
""fullscreenenter"",""1"",""4616""
","
","","","","","","935.9000000953674","images/banana5.png","","","learning","images/fruit_choice3.png","images/fruit_choice2.png","images/fruit_choice1.png","[2,1,0]","2","0","3","images/fruit_choice1.png","-1","fruit","","banana","2","0"
"html-keyboard-response","228","814415","0.0-9.0-2.0-0.71","1713","2","2","""event"",""trial"",""time""
""fullscreenenter"",""1"",""4616""
","
","
","""event"",""trial"",""time""
""fullscreenenter"",""1"",""4616""
","
","","","","","","null","<div style=""font-size:60px;"">+</div>","null","","fixation","","","","","","","","","","","","","",""
"learning-trial","229","818421","0.0-9.0-2.0-1.71","1713","2","2","""event"",""trial"",""time""
""fullscreenenter"",""1"",""4616""
","
","
","""event"",""trial"",""time""
""fullscreenenter"",""1"",""4616""
","
","","","","","","902.8999998569489","images/banana4.png","","","learning","images/fruit_choice2.png","images/fruit_choice1.png","images/fruit_choice3.png","[1,0,2]","0","1","2","images/fruit_choice1.png","1","fruit","","banana","2","0"
"html-button-response","230","820151","0.0-9.0-3.0","1713","2","2","""event"",""trial"",""time""
""fullscreenenter"",""1"",""4616""
","
","
","""event"",""trial"",""time""
""fullscreenenter"",""1"",""4616""
","
","","","","","","1725.1000001430511","<p> You have completed the round! <p> In this round, you earned -12 points! </p>","0","","break","","","","","","","","","","","","","",""
"html-button-response","231","821400","0.0-10.0","1713","2","2","""event"",""trial"",""time""
""fullscreenenter"",""1"",""4616""
","
","
","""event"",""trial"",""time""
""fullscreenenter"",""1"",""4616""
","
","","","","","","1248.2000000476837","<p> Now it's time to play another round. </p>","0","","transition_screen","","","","","","","","","","","","","",""
"preload","232","823500","0.0-11.0-0.0","1713","2","2","""event"",""trial"",""time""
""fullscreenenter"",""1"",""4616""
","
","
","""event"",""trial"",""time""
""fullscreenenter"",""1"",""4616""
","
","true","false","[]","[]","[]","","","","","","","","","","","","","","","","","","",""
"learning-instructions","233","832238","0.0-11.0-1.0-0.0","1713","2","2","""event"",""trial"",""time""
""fullscreenenter"",""1"",""4616""
","
","
","""event"",""trial"",""time""
""fullscreenenter"",""1"",""4616""
","
","","","","","","718.4000000953674","<p> Your goal in this round is to deliver furniture to three different buildings. </p><p> You will need to deliver many pieces of furniture. </p></div>","","0","instructions","","","","","","","","","","","","","",""
"learning-instructions","234","840088","0.0-11.0-1.0-0.1","1713","2","2","""event"",""trial"",""time""
""fullscreenenter"",""1"",""4616""
","
","
","""event"",""trial"",""time""
""fullscreenenter"",""1"",""4616""
","
","","","","","","409.2000000476837","<p> On each turn, you will see a picture of a furniture item and three different buildings.  </p><p> You need to select the building that you want to deliver the furniture to.  </p>","","0","instructions","","","","","","","","","","","","","",""
"learning-instructions","235","849590","0.0-11.0-1.0-0.2","1713","2","2","""event"",""trial"",""time""
""fullscreenenter"",""1"",""4616""
","
","
","""event"",""trial"",""time""
""fullscreenenter"",""1"",""4616""
","
","","","","","","1198.5999999046326","<p> You can select the building on the left by pressing 1, the building in the middle by pressing 2, and the building on the right by pressing 3.  </p><br><div class=""choice-instructions-grid""> <div class=""choice-option""><img src=""images/furniture_choice1.png"" class=""choice-option-img"" stage=""instructions"" position=""0"" ><div class=""choice-option-text""> Press ""1."" </div></div><div class=""choice-option""><img src=""images/furniture_choice2.png"" class=""choice-option-img"" stage=""instructions"" position=""1"" ><div class=""choice-option-text""> Press ""2."" </div></div><div class=""choice-option""><img src=""images/furniture_choice3.png"" class=""choice-option-img"" stage=""instructions"" position=""2"" ><div class=""choice-option-text""> Press ""3."" </div></div></div>","","0","instructions","","","","","","","","","","","","","",""
"learning-instructions","236","856210","0.0-11.0-1.0-0.3","1713","2","2","""event"",""trial"",""time""
""fullscreenenter"",""1"",""4616""
","
","
","""event"",""trial"",""time""
""fullscreenenter"",""1"",""4616""
","
