"trial_type","trial_index","time_elapsed","internal_node_id","subject_id","condition","task_version","interactions","blur_events","focus_events","fullscreenenter_events","fullscreenexit_events","success","timeout","failed_images","failed_audio","failed_video","rt","stimulus","response","button_pressed","task_part","left_choice","middle_choice","right_choice","choice_positions","correct_response","correct_position","key_press","option_selected","points","task_block","correct","stim_cat","block_condition","block_number"
"pavlovia","0","2","0.0-0.0","1860","2","2","""event"",""trial"",""time""
""fullscreenenter"",""1"",""6026""
","
","
","""event"",""trial"",""time""
""fullscreenenter"",""1"",""6026""
","
","","","","","","","","","","","","","","","","","","","","","","","",""
"fullscreen","1","7016","0.0-1.0","1860","2","2","""event"",""trial"",""time""
""fullscreenenter"",""1"",""6026""
","
","
","""event"",""trial"",""time""
""fullscreenenter"",""1"",""6026""
","
","true","","","","","","","","","","","","","","","","","","","","","","",""
"preload","2","17339","0.0-2.0","1860","2","2","""event"",""trial"",""time""
""fullscreenenter"",""1"",""6026""
","
","
","""event"",""trial"",""time""
""fullscreenenter"",""1"",""6026""
","
","true","false","[]","[]","[]","","","","","","","","","","","","","","","","","","",""
"audio-keyboard-response","3","22888","0.0-3.0","1860","2","2","""event"",""trial"",""time""
""fullscreenenter"",""1"",""6026""
","
","
","""event"",""trial"",""time""
""fullscreenenter"",""1"",""6026""
","
","","","","","","5549.56916099773","audio/beep_loop.wav"," ","","","","","","","","","","","","","","","",""
"audio-button-response","4","25338","0.0-4.0","1860","2","2","""event"",""trial"",""time""
""fullscreenenter"",""1"",""6026""
","
","
","""event"",""trial"",""time""
""fullscreenenter"",""1"",""6026""
","
","","","","","","2450","audio/shark.wav","4","","","","","","","","","","","","","","","",""
"audio-button-response","5","29609","0.0-5.0","1860","2","2","""event"",""trial"",""time""
""fullscreenenter"",""1"",""6026""
","
","
","""event"",""trial"",""time""
""fullscreenenter"",""1"",""6026""
","
","","","","","","3268","audio/turtle.wav","1","","","","","","","","","","","","","","","",""
"preload","6","38786","0.0-6.0","1860","2","2","""event"",""trial"",""time""
""fullscreenenter"",""1"",""6026""
","
","
","""event"",""trial"",""time""
""fullscreenenter"",""1"",""6026""
","
","true","false","[]","[]","[]","","","","","","","","","","","","","","","","","","",""
"html-keyboard-response","7","41418","0.0-7.0","1860","2","2","""event"",""trial"",""time""
""fullscreenenter"",""1"",""6026""
","
","
","""event"",""trial"",""time""
""fullscreenenter"",""1"",""6026""
","
","","","","","","2630.1000003814697","Welcome to the experiment. Press any key to begin and to advance the instructions."," ","","","","","","","","","","","","","","","",""
"learning-instructions","8","53661","0.0-8.0-0.0-0.0","1860","2","2","""event"",""trial"",""time""
""fullscreenenter"",""1"",""6026""
","
","
","""event"",""trial"",""time""
""fullscreenenter"",""1"",""6026""
","
","","","","","","4493.900000095367","<p> Welcome! Today you are going to play 6 different rounds of a decision-making game. </p><p> Use the mouse to click next to continue. </p>","","0","instructions","","","","","","","","","","","","","",""
"learning-instructions","9","57538","0.0-8.0-0.0-0.1","1860","2","2","""event"",""trial"",""time""
""fullscreenenter"",""1"",""6026""
","
","
","""event"",""trial"",""time""
""fullscreenenter"",""1"",""6026""
","
","","","","","","871.6999998092651","<p> You will start with a practice round to learn the rules. </p>","","0","instructions","","","","","","","","","","","","","",""
"learning-instructions","10","66258","0.0-8.0-0.0-0.2","1860","2","2","""event"",""trial"",""time""
""fullscreenenter"",""1"",""6026""
","
","
","""event"",""trial"",""time""
""fullscreenenter"",""1"",""6026""
","
","","","","","","977","<p> Your goal in this round is to deliver sports equipment to three different parks. </p><p> You will need to deliver many types of equipment. </p></div>","","0","instructions","","","","","","","","","","","","","",""
"learning-instructions","11","87692","0.0-8.0-0.0-0.3","1860","2","2","""event"",""trial"",""time""
""fullscreenenter"",""1"",""6026""
","
","
","""event"",""trial"",""time""
""fullscreenenter"",""1"",""6026""
","
","","","","","","12948.199999809265","<p> On each turn, you will see one piece of sports equipment and three different parks.  </p><p> You need to select which park to deliver the equipment to.  </p>","","0","instructions","","","","","","","","","","","","","",""
"learning-instructions","12","107690","0.0-8.0-0.0-0.4","1860","2","2","""event"",""trial"",""time""
""fullscreenenter"",""1"",""6026""
","
","
","""event"",""trial"",""time""
""fullscreenenter"",""1"",""6026""
","
","","","","","","6717.900000095367","<p> You can select the park on the left by pressing the '1' key on your keyboard. <br>You can select the park in the middle by pressing the '2' key on your keyboard. <br>You can select the park on the right by pressing the '3' key on your keyboard.  </p><br><div class=""choice-instructions-grid""> <div class=""choice-option""><img src=""images/park1.png"" class=""choice-option-img"" stage=""instructions"" position=""0"" ><div class=""choice-option-text""> Press ""1."" </div></div><div class=""choice-option""><img src=""images/park2.png"" class=""choice-option-img"" stage=""instructions"" position=""1"" ><div class=""choice-option-text""> Press ""2."" </div></div><div class=""choice-option""><img src=""images/park3.png"" class=""choice-option-img"" stage=""instructions"" position=""2"" ><div class=""choice-option-text""> Press ""3."" </div></div></div>","","0","instructions","","","","","","","","","","","","","",""
"learning-instructions","13","119296","0.0-8.0-0.0-0.5","1860","2","2","""event"",""trial"",""time""
""fullscreenenter"",""1"",""6026""
","
","
","""event"",""trial"",""time""
""fullscreenenter"",""1"",""6026""
","
","","","","","","6227.799999713898","<p> If the kids in the park you chose like the equipment, they will be very happy! </p><div style='float: center;'><img src='images/check.png' width = '200' height = '200'></img>","","0","instructions","","","","","","","","","","","","","",""
"learning-instructions","14","126392","0.0-8.0-0.0-0.6","1860","2","2","""event"",""trial"",""time""
""fullscreenenter"",""1"",""6026""
","
","
","""event"",""trial"",""time""
""fullscreenenter"",""1"",""6026""
","
","","","","","","1504.3000001907349","<p> But, if the kids in the park you chose do not like the equipment, they will be sad. </p><div style='float: center;'><img src='images/x.png' width = '200' height = '200'></img>","","0","instructions","","","","","","","","","","","","","",""
"learning-instructions","15","134787","0.0-8.0-0.0-0.7","1860","2","2","""event"",""trial"",""time""
""fullscreenenter"",""1"",""6026""
","
","
","""event"",""trial"",""time""
""fullscreenenter"",""1"",""6026""
","
","","","","","","1964.6999998092651","<p> Importantly, the kids in each park like some pieces of sports equipment more than others. </p>","","0","instructions","","","","","","","","","","","","","",""
"learning-instructions","16","141391","0.0-8.0-0.0-0.8","1860","2","2","""event"",""trial"",""time""
""fullscreenenter"",""1"",""6026""
","
","
","""event"",""trial"",""time""
""fullscreenenter"",""1"",""6026""
","
","","","","","","557.6000003814697","<p> If you choose the best park for each piece of equipment, the kids there will usually be happy. </p>","","0","instructions","","","","","","","","","","","","","",""
"learning-instructions","17","150362","0.0-8.0-0.0-0.9","1860","2","2","""event"",""trial"",""time""
""fullscreenenter"",""1"",""6026""
","
","
","""event"",""trial"",""time""
""fullscreenenter"",""1"",""6026""
","
","","","","","","2325.6000003814697","<p> However, even if you choose the best park for the equipment, the kids may sometimes be sad. </p>","","0","instructions","","","","","","","","","","","","","",""
"learning-instructions","18","158107","0.0-8.0-0.0-0.10","1860","2","2","""event"",""trial"",""time""
""fullscreenenter"",""1"",""6026""
","
","
","""event"",""trial"",""time""
""fullscreenenter"",""1"",""6026""
","
","","","","","","520.4000000953674","<p> Similarly, even if you choose the <i>wrong</i> park for the equipment, the kids may still be happy sometimes.","","0","instructions","","","","","","","","","","","","","",""
"learning-instructions","19","164211","0.0-8.0-0.0-0.11","1860","2","2","""event"",""trial"",""time""
""fullscreenenter"",""1"",""6026""
","
","
","""event"",""trial"",""time""
""fullscreenenter"",""1"",""6026""
","
","","","","","","1051.5999999046326","<p> For example, the best park for this soccer ball is this one.<div style='float: center;'><img src='images/i1.png' width = '500' height = '268'></img>","","0","instructions","","","","","","","","","","","","","",""
"learning-instructions","20","170061","0.0-8.0-0.0-0.12","1860","2","2","""event"",""trial"",""time""
""fullscreenenter"",""1"",""6026""
","
","
","""event"",""trial"",""time""
""fullscreenenter"",""1"",""6026""
","
","","","","","","563.3000001907349","<p> Let's see what happens if you choose this park for the soccer ball five times.","","0","instructions","","","","","","","","","","","","","",""
"learning-instructions","21","175619","0.0-8.0-0.0-0.13","1860","2","2","""event"",""trial"",""time""
""fullscreenenter"",""1"",""6026""
","
","
","""event"",""trial"",""time""
""fullscreenenter"",""1"",""6026""
","
","","","","","","3392.4000000953674","<p> The kids are happy.<div style='float: left;'><img src='images/i2.png' width = '640' height = '360'></img>","","0","instructions","","","","","","","","","","","","","",""
"learning-instructions","22","178391","0.0-8.0-0.0-0.14","1860","2","2","""event"",""trial"",""time""
""fullscreenenter"",""1"",""6026""
","
","
","""event"",""trial"",""time""
""fullscreenenter"",""1"",""6026""
","
","","","","","","603.2000002861023","<p> The kids are happy.<div style='float: left;'><img src='images/i3.png' width = '640' height = '360'></img>","","0","instructions","","","","","","","","","","","","","",""
"learning-instructions","23","181083","0.0-8.0-0.0-0.15","1860","2","2","""event"",""trial"",""time""
""fullscreenenter"",""1"",""6026""
","
","
","""event"",""trial"",""time""
""fullscreenenter"",""1"",""6026""
","
","","","","","","531.7999997138977","<p> The kids are happy.<div style='float: left;'><img src='images/i4.png' width = '640' height = '360'></img>","","0","instructions","","","","","","","","","","","","","",""
"learning-instructions","24","183840","0.0-8.0-0.0-0.16","1860","2","2","""event"",""trial"",""time""
""fullscreenenter"",""1"",""6026""
","
","
","""event"",""trial"",""time""
""fullscreenenter"",""1"",""6026""
","
","","","","","","549.3000001907349","<p> The kids are sad.<div style='float: left;'><img src='images/i5.png' width = '640' height = '360'></img>","","0","instructions","","","","","","","","","","","","","",""
"learning-instructions","25","186825","0.0-8.0-0.0-0.17","1860","2","2","""event"",""trial"",""time""
""fullscreenenter"",""1"",""6026""
","
","
","""event"",""trial"",""time""
""fullscreenenter"",""1"",""6026""
","
","","","","","","823.8000001907349","<p> The kids are happy.<div style='float: left;'><img src='images/i6.png' width = '640' height = '360'></img>","","0","instructions","","","","","","","","","","","","","",""
"learning-instructions","26","196584","0.0-8.0-0.0-0.18","1860","2","2","""event"",""trial"",""time""
""fullscreenenter"",""1"",""6026""
","
","
","""event"",""trial"",""time""
""fullscreenenter"",""1"",""6026""
","
","","","","","","2496.9000000953674","<p> As you can see, selecting that park for the soccer ball made the kids happy most of the time, but not all the time.","","0","instructions","","","","","","","","","","","","","",""
"learning-instructions","27","203207","0.0-8.0-0.0-0.19","1860","2","2","""event"",""trial"",""time""
""fullscreenenter"",""1"",""6026""
","
","
","""event"",""trial"",""time""
""fullscreenenter"",""1"",""6026""
","
","","","","","","621.9000000953674","<p> Now let's see what happens if you choose a DIFFERENT park for the soccer ball 5 times.","","0","instructions","","","","","","","","","","","","","",""
"learning-instructions","28","206012","0.0-8.0-0.0-0.20","1860","2","2","""event"",""trial"",""time""
""fullscreenenter"",""1"",""6026""
","
","
","""event"",""trial"",""time""
""fullscreenenter"",""1"",""6026""
","
","","","","","","599.5","<p> The kids are sad.<div style='float: left;'><img src='images/i7.png' width = '640' height = '360'></img>","","0","instructions","","","","","","","","","","","","","",""
"learning-instructions","29","208978","0.0-8.0-0.0-0.21","1860","2","2","""event"",""trial"",""time""
""fullscreenenter"",""1"",""6026""
","
","
","""event"",""trial"",""time""
""fullscreenenter"",""1"",""6026""
","
","","","","","","761.4000000953674","<p> The kids are sad.<div style='float: left;'><img src='images/i8.png' width = '640' height = '360'></img>","","0","instructions","","","","","","","","","","","","","",""
"learning-instructions","30","211750","0.0-8.0-0.0-0.22","1860","2","2","""event"",""trial"",""time""
""fullscreenenter"",""1"",""6026""
","
","
","""event"",""trial"",""time""
""fullscreenenter"",""1"",""6026""
","
","","","","","","603.0999999046326","<p> The kids are happy.<div style='float: left;'><img src='images/i9.png' width = '640' height = '360'></img>","","0","instructions","","","","","","","","","","","","","",""
"learning-instructions","31","214578","0.0-8.0-0.0-0.23","1860","2","2","""event"",""trial"",""time""
""fullscreenenter"",""1"",""6026""
","
","
","""event"",""trial"",""time""
""fullscreenenter"",""1"",""6026""
","
","","","","","","626.1999998092651","<p> The kids are sad.<div style='float: left;'><img src='images/i10.png' width = '640' height = '360'></img>","","0","instructions","","","","","","","","","","","","","",""
"learning-instructions","32","217661","0.0-8.0-0.0-0.24","1860","2","2","""event"",""trial"",""time""
""fullscreenenter"",""1"",""6026""
","
","
","""event"",""trial"",""time""
""fullscreenenter"",""1"",""6026""
","
","","","","","","881.5999999046326","<p> The kids are sad.<div style='float: left;'><img src='images/i11.png' width = '640' height = '360'></img>","","0","instructions","","","","","","","","","","","","","",""
"learning-instructions","33","226298","0.0-8.0-0.0-0.25","1860","2","2","""event"",""trial"",""time""
""fullscreenenter"",""1"",""6026""
","
","
","""event"",""trial"",""time""
""fullscreenenter"",""1"",""6026""
","
","","","","","","514.3000001907349","<p> As you can see, selecting the wrong park for the soccer ball made the kids sad most of the time, but not all the time.","","0","instructions","","","","","","","","","","","","","",""
"learning-instructions","34","235895","0.0-8.0-0.0-0.26","1860","2","2","""event"",""trial"",""time""
""fullscreenenter"",""1"",""6026""
","
","
","""event"",""trial"",""time""
""fullscreenenter"",""1"",""6026""
","
","","","","","","473.7999997138977","<p> The different pieces of equipment belong in different parks. You need to try to learn which is the best park for each piece of equipment.","","0","instructions","","","","","","","","","","","","","",""
"learning-instructions","35","253414","0.0-8.0-0.0-0.27","1860","2","2","""event"",""trial"",""time""
""fullscreenenter"",""1"",""6026""
","
","
","""event"",""trial"",""time""
""fullscreenenter"",""1"",""6026""
","
","","","","","","1132.5999999046326","<p> Try to choose the best park for each piece of equipment, because you will <b> WIN </b> 1 point for each time you make the kids happy and <b>LOSE</b> 1 point for each time you make them sad. </p><p> Remember, if you make the best choice, you will win 1 point most of the time, but not all the time. </p>","","0","instructions","","","","","","","","","","","","","",""
"learning-instructions","36","260104","0.0-8.0-0.0-0.28","1860","2","2","""event"",""trial"",""time""
""fullscreenenter"",""1"",""6026""
","
","
","""event"",""trial"",""time""
""fullscreenenter"",""1"",""6026""
","
","","","","","","1210.5","<p> This is just a practice round, but in the real game, your bonus payment will depend on your total number of points.","","0","instructions","","","","","","","","","","","","","",""
"learning-instructions","37","271547","0.0-8.0-0.0-0.29","1860","2","2","""event"",""trial"",""time""
""fullscreenenter"",""1"",""6026""
","
","
","""event"",""trial"",""time""
""fullscreenenter"",""1"",""6026""
","
","","","","","","1112.0999999046326","<p> The position where each park appears will change throughout the game. </p><p> The position where the park appears <i> does not </i> influence how likely the kids are to be happy or sad. </p>","","0","instructions","","","","","","","","","","","","","",""
"learning-instructions","38","286244","0.0-8.0-0.0-0.30","1860","2","2","""event"",""trial"",""time""
""fullscreenenter"",""1"",""6026""
","
","
","""event"",""trial"",""time""
""fullscreenenter"",""1"",""6026""
","
","","","","","","3671.9000000953674","<p> You will have 4 seconds to make each choice. Try to respond before time runs out! </p><p> You will lose 1 point each time you do not make a response. </p>","","0","instructions","","","","","","","","","","","","","",""
"learning-instructions","39","294774","0.0-8.0-0.0-0.31","1860","2","2","""event"",""trial"",""time""
""fullscreenenter"",""1"",""6026""
","
","
","""event"",""trial"",""time""
""fullscreenenter"",""1"",""6026""
","
","","","","","","1746.5999999046326","<p> Remember, you should use the 1, 2, and 3 keys to select the park for each piece of equipment. </p><br><div class=""choice-instructions-grid""> <div class=""choice-option""><img src=""images/park1.png"" class=""choice-option-img"" stage=""instructions"" position=""0"" ><div class=""choice-option-text""> Press ""1."" </div></div><div class=""choice-option""><img src=""images/park2.png"" class=""choice-option-img"" stage=""instructions"" position=""1"" ><div class=""choice-option-text""> Press ""2."" </div></div><div class=""choice-option""><img src=""images/park3.png"" class=""choice-option-img"" stage=""instructions"" position=""2"" ><div class=""choice-option-text""> Press ""3."" </div></div></div>","","0","instructions","","","","","","","","","","","","","",""
"html-button-response","40","297446","0.0-8.0-1.0","1860","2","2","""event"",""trial"",""time""
""fullscreenenter"",""1"",""6026""
","
","
","""event"",""trial"",""time""
""fullscreenenter"",""1"",""6026""
","
","","","","","","2568.300000190735","<p> Ready to practice? </p>","0","","","","","","","","","","","","","","","",""
"html-keyboard-response","41","298051","0.0-8.0-2.0-0.0","1860","2","2","""event"",""trial"",""time""
""fullscreenenter"",""1"",""6026""
","
","
","""event"",""trial"",""time""
""fullscreenenter"",""1"",""6026""
","
","","","","","","null","<div style=""font-size:60px;"">+</div>","null","","fixation","","","","","","","","","","","","","",""
"learning-trial","42","302057","0.0-8.0-2.0-1.0","1860","2","2","""event"",""trial"",""time""
""fullscreenenter"",""1"",""6026""
","
","
","""event"",""trial"",""time""
""fullscreenenter"",""1"",""6026""
","
","","","","","","1252","images/racket1.png","","","practice","images/park3.png","images/park2.png","images/park1.png","[2,1,0]","0","2","3","images/park1.png","-1","practice","","","",""
"html-keyboard-response","43","302563","0.0-8.0-2.0-0.1","1860","2","2","""event"",""trial"",""time""
""fullscreenenter"",""1"",""6026""
","
","
","""event"",""trial"",""time""
""fullscreenenter"",""1"",""6026""
","
","","","","","","null","<div style=""font-size:60px;"">+</div>","null","","fixation","","","","","","","","","","","","","",""
"learning-trial","44","306569","0.0-8.0-2.0-1.1","1860","2","2","""event"",""trial"",""time""
""fullscreenenter"",""1"",""6026""
","
","
","""event"",""trial"",""time""
""fullscreenenter"",""1"",""6026""
","
","","","","","","2231.7000002861023","images/racket2.png","","","practice","images/park2.png","images/park1.png","images/park3.png","[1,0,2]","2","2","3","images/park3.png","1","practice","","","",""
"html-keyboard-response","45","307073","0.0-8.0-2.0-0.2","1860","2","2","""event"",""trial"",""time""
""fullscreenenter"",""1"",""6026""
","
","
","""event"",""trial"",""time""
""fullscreenenter"",""1"",""6026""
","
","","","","","","null","<div style=""font-size:60px;"">+</div>","null","","fixation","","","","","","","","","","","","","",""
"learning-trial","46","311077","0.0-8.0-2.0-1.2","1860","2","2","""event"",""trial"",""time""
""fullscreenenter"",""1"",""6026""
","
","
","""event"",""trial"",""time""
""fullscreenenter"",""1"",""6026""
","
","","","","","","1068.4000000953674","images/ball1.png","","","practice","images/park1.png","images/park2.png","images/park3.png","[0,1,2]","2","2","2","images/park2.png","1","practice","","","",""
"html-keyboard-response","47","311583","0.0-8.0-2.0-0.3","1860","2","2","""event"",""trial"",""time""
""fullscreenenter"",""1"",""6026""
","
","
","""event"",""trial"",""time""
""fullscreenenter"",""1"",""6026""
","
","","","","","","null","<div style=""font-size:60px;"">+</div>","null","","fixation","","","","","","","","","","","","","",""
"learning-trial","48","315590","0.0-8.0-2.0-1.3","1860","2","2","""event"",""trial"",""time""
""fullscreenenter"",""1"",""6026""
","
","
","""event"",""trial"",""time""
""fullscreenenter"",""1"",""6026""
","
","","","","","","1457.5","images/ball3.png","","","practice","images/park3.png","images/park1.png","images/park2.png","[2,0,1]","1","2","3","images/park2.png","1","practice","","","",""
"html-keyboard-response","49","316093","0.0-8.0-2.0-0.4","1860","2","2","""event"",""trial"",""time""
""fullscreenenter"",""1"",""6026""
","
","
","""event"",""trial"",""time""
""fullscreenenter"",""1"",""6026""
","
","","","","","","null","<div style=""font-size:60px;"">+</div>","null","","fixation","","","","","","","","","","","","","",""
"learning-trial","50","320099","0.0-8.0-2.0-1.4","1860","2","2","""event"",""trial"",""time""
""fullscreenenter"",""1"",""6026""
","
","
","""event"",""trial"",""time""
""fullscreenenter"",""1"",""6026""
","
","","","","","","1882.4000000953674","images/ball4.png","","","practice","images/park2.png","images/park1.png","images/park3.png","[1,0,2]","0","1","2","images/park1.png","1","practice","","","",""
"html-keyboard-response","51","320602","0.0-8.0-2.0-0.5","1860","2","2","""event"",""trial"",""time""
""fullscreenenter"",""1"",""6026""
","
","
","""event"",""trial"",""time""
""fullscreenenter"",""1"",""6026""
","
","","","","","","null","<div style=""font-size:60px;"">+</div>","null","","fixation","","","","","","","","","","","","","",""
"learning-trial","52","324606","0.0-8.0-2.0-1.5","1860","2","2","""event"",""trial"",""time""
""fullscreenenter"",""1"",""6026""
","
","
","""event"",""trial"",""time""
""fullscreenenter"",""1"",""6026""
","
","","","","","","1318.7999997138977","images/ball3.png","","","practice","images/park2.png","images/park3.png","images/park1.png","[1,2,0]","1","0","1","images/park2.png","1","practice","","","",""
"html-keyboard-response","53","325111","0.0-8.0-2.0-0.6","1860","2","2","""event"",""trial"",""time""
""fullscreenenter"",""1"",""6026""
","
","
","""event"",""trial"",""time""
""fullscreenenter"",""1"",""6026""
","
","","","","","","null","<div style=""font-size:60px;"">+</div>","null","","fixation","","","","","","","","","","","","","",""
"learning-trial","54","329118","0.0-8.0-2.0-1.6","1860","2","2","""event"",""trial"",""time""
""fullscreenenter"",""1"",""6026""
","
","
","""event"",""trial"",""time""
""fullscreenenter"",""1"",""6026""
","
","","","","","","1423.5","images/ball2.png","","","practice","images/park2.png","images/park3.png","images/park1.png","[1,2,0]","1","0","3","images/park1.png","1","practice","","","",""
"html-keyboard-response","55","329623","0.0-8.0-2.0-0.7","1860","2","2","""event"",""trial"",""time""
""fullscreenenter"",""1"",""6026""
","
","
","""event"",""trial"",""time""
""fullscreenenter"",""1"",""6026""
","
","","","","","","null","<div style=""font-size:60px;"">+</div>","null","","fixation","","","","","","","","","","","","","",""
"learning-trial","56","333631","0.0-8.0-2.0-1.7","1860","2","2","""event"",""trial"",""time""
""fullscreenenter"",""1"",""6026""
","
","
","""event"",""trial"",""time""
""fullscreenenter"",""1"",""6026""
","
","","","","","","1290","images/ball4.png","","","practice","images/park1.png","images/park2.png","images/park3.png","[0,1,2]","0","0","1","images/park1.png","1","practice","","","",""
"html-keyboard-response","57","334137","0.0-8.0-2.0-0.8","1860","2","2","""event"",""trial"",""time""
""fullscreenenter"",""1"",""6026""
","
","
","""event"",""trial"",""time""
""fullscreenenter"",""1"",""6026""
","
","","","","","","null","<div style=""font-size:60px;"">+</div>","null","","fixation","","","","","","","","","","","","","",""
"learning-trial","58","338143","0.0-8.0-2.0-1.8","1860","2","2","""event"",""trial"",""time""
""fullscreenenter"",""1"",""6026""
","
","
","""event"",""trial"",""time""
""fullscreenenter"",""1"",""6026""
","
","","","","","","1789.6999998092651","images/ball1.png","","","practice","images/park3.png","images/park1.png","images/park2.png","[2,0,1]","2","0","3","images/park2.png","1","practice","","","",""
"html-keyboard-response","59","338650","0.0-8.0-2.0-0.9","1860","2","2","""event"",""trial"",""time""
""fullscreenenter"",""1"",""6026""
","
","
","""event"",""trial"",""time""
""fullscreenenter"",""1"",""6026""
","
","","","","","","null","<div style=""font-size:60px;"">+</div>","null","","fixation","","","","","","","","","","","","","",""
"learning-trial","60","342658","0.0-8.0-2.0-1.9","1860","2","2","""event"",""trial"",""time""
""fullscreenenter"",""1"",""6026""
","
","
","""event"",""trial"",""time""
""fullscreenenter"",""1"",""6026""
","
","","","","","","1717.9000000953674","images/racket2.png","","","practice","images/park1.png","images/park2.png","images/park3.png","[0,1,2]","2","2","3","images/park3.png","1","practice","","","",""
"html-keyboard-response","61","343164","0.0-8.0-2.0-0.10","1860","2","2","""event"",""trial"",""time""
""fullscreenenter"",""1"",""6026""
","
","
","""event"",""trial"",""time""
""fullscreenenter"",""1"",""6026""
","
","","","","","","null","<div style=""font-size:60px;"">+</div>","null","","fixation","","","","","","","","","","","","","",""
"learning-trial","62","347169","0.0-8.0-2.0-1.10","1860","2","2","""event"",""trial"",""time""
""fullscreenenter"",""1"",""6026""
","
","
","""event"",""trial"",""time""
""fullscreenenter"",""1"",""6026""
","
","","","","","","1072.7000002861023","images/ball2.png","","","practice","images/park1.png","images/park2.png","images/park3.png","[0,1,2]","1","1","1","images/park1.png","-1","practice","","","",""
"html-keyboard-response","63","347674","0.0-8.0-2.0-0.11","1860","2","2","""event"",""trial"",""time""
""fullscreenenter"",""1"",""6026""
","
","
","""event"",""trial"",""time""
""fullscreenenter"",""1"",""6026""
","
","","","","","","null","<div style=""font-size:60px;"">+</div>","null","","fixation","","","","","","","","","","","","","",""
"learning-trial","64","351683","0.0-8.0-2.0-1.11","1860","2","2","""event"",""trial"",""time""
""fullscreenenter"",""1"",""6026""
","
","
","""event"",""trial"",""time""
""fullscreenenter"",""1"",""6026""
","
","","","","","","1516.5","images/racket1.png","","","practice","images/park2.png","images/park1.png","images/park3.png","[1,0,2]","0","1","3","images/park3.png","-1","practice","","","",""
"html-button-response","65","353507","0.0-8.0-3.0","1860","2","2","""event"",""trial"",""time""
""fullscreenenter"",""1"",""6026""
","
","
","""event"",""trial"",""time""
""fullscreenenter"",""1"",""6026""
","
","","","","","","1818.5999999046326","<p> You earned 6 points in the practice round! </p>","0","","break","","","","","","","","","","","","","",""
"learning-instructions","66","363942","0.0-8.0-4.0-0.0","1860","2","2","""event"",""trial"",""time""
""fullscreenenter"",""1"",""6026""
","
","
","""event"",""trial"",""time""
""fullscreenenter"",""1"",""6026""
","
","","","","","","2431","<p> It's almost time to start the real game. </p><p> Before you start, we're going to ask you a few questions about how the game works. </p>","","0","instructions","","","","","","","","","","","","","",""
"preload","67","367256","0.0-8.0-5.0","1860","2","2","""event"",""trial"",""time""
""fullscreenenter"",""1"",""6026""
","
","
","""event"",""trial"",""time""
""fullscreenenter"",""1"",""6026""
","
","true","false","[]","[]","[]","","","","","","","","","","","","","","","","","","",""
"comp-q","68","373930","0.0-8.0-6.0-0.0","1860","2","2","""event"",""trial"",""time""
""fullscreenenter"",""1"",""6026""
","
","
","""event"",""trial"",""time""
""fullscreenenter"",""1"",""6026""
","
","","","","","","1221.6999998092651","<p> <b> True or False? </b> </p><p> If you choose the best option, you will always earn 1 point. </p>","","1","comp_question","","","","","","","","","","","true","","",""
"comp-q","69","380693","0.0-8.0-6.0-1.0","1860","2","2","""event"",""trial"",""time""
""fullscreenenter"",""1"",""6026""
","
","
","""event"",""trial"",""time""
""fullscreenenter"",""1"",""6026""
","
","","","","","","1107.3000001907349","<p><b> That's right! </b> Sometimes you will lose 1 point, even if you choose the best option. </p>","","0","comp_answer","","","","","","","","","","","","","",""
"comp-q","70","386780","0.0-8.0-6.0-0.1","1860","2","2","""event"",""trial"",""time""
""fullscreenenter"",""1"",""6026""
","
","
","""event"",""trial"",""time""
""fullscreenenter"",""1"",""6026""
","
","","","","","","1459.3000001907349","<p> <b> True or False? </b> </p><p> You will have as much time as you want to make each choice. </p>","","1","comp_question","","","","","","","","","","","true","","",""
"comp-q","71","396721","0.0-8.0-6.0-1.1","1860","2","2","""event"",""trial"",""time""
""fullscreenenter"",""1"",""6026""
","
","
","""event"",""trial"",""time""
""fullscreenenter"",""1"",""6026""
","
","","","","","","5124.800000190735","<p> <b> That's right! </b> You will only have 4 seconds to make each choice. </p>","","0","comp_answer","","","","","","","","","","","","","",""
"comp-q","72","403865","0.0-8.0-6.0-0.2","1860","2","2","""event"",""trial"",""time""
""fullscreenenter"",""1"",""6026""
","
","
","""event"",""trial"",""time""
""fullscreenenter"",""1"",""6026""
","
","","","","","","989.0999999046326","<p> <b> True or False? </b> </p><p> You should use the '1', '2', and '3' keys to make your choices. </p>","","0","comp_question","","","","","","","","","","","true","","",""
"comp-q","73","410327","0.0-8.0-6.0-1.2","1860","2","2","""event"",""trial"",""time""
""fullscreenenter"",""1"",""6026""
","
","
","""event"",""trial"",""time""
""fullscreenenter"",""1"",""6026""
","
","","","","","","1617.9000000953674","<p> <b> That's right! </b> You should use the '1', '2', and '3' keys to make each choice. </p>","","0","comp_answer","","","","","","","","","","","","","",""
"learning-instructions","74","420164","0.0-8.0-7.0-0.0","1860","2","2","""event"",""trial"",""time""
""fullscreenenter"",""1"",""6026""
","
","
","""event"",""trial"",""time""
""fullscreenenter"",""1"",""6026""
","
","","","","","","1353.9000000953674","<p> It's now time to start the real game. </p>Do your best, because the points you earn in the next rounds will influence your bonus payment. </p>","","0","instructions","","","","","","","","","","","","","",""
"preload","75","424132","0.0-9.0-0.0","1860","2","2","""event"",""trial"",""time""
""fullscreenenter"",""1"",""6026""
","
","
","""event"",""trial"",""time""
""fullscreenenter"",""1"",""6026""
","
","true","false","[]","[]","[]","","","","","","","","","","","","","","","","","","",""
"learning-instructions","76","433678","0.0-9.0-1.0-0.0","1860","2","2","""event"",""trial"",""time""
""fullscreenenter"",""1"",""6026""
","
","
","""event"",""trial"",""time""
""fullscreenenter"",""1"",""6026""
","
","","","","","","3049.5","<p> Your goal in this round is to buy different types of fruits. </p><p> You will try to purchase many fruits from different stores. </p></div>","","0","instructions","","","","","","","","","","","","","",""
"learning-instructions","77","443034","0.0-9.0-1.0-0.1","1860","2","2","""event"",""trial"",""time""
""fullscreenenter"",""1"",""6026""
","
","
","""event"",""trial"",""time""
""fullscreenenter"",""1"",""6026""
","
","","","","","","859.9000000953674","<p> On each turn, you will see a picture of a fruit and three different stores.  </p><p> You need to select the store where you can buy that fruit.  </p>","","0","instructions","","","","","","","","","","","","","",""
"learning-instructions","78","451902","0.0-9.0-1.0-0.2","1860","2","2","""event"",""trial"",""time""
""fullscreenenter"",""1"",""6026""
","
","
","""event"",""trial"",""time""
""fullscreenenter"",""1"",""6026""
","
","","","","","","1488.0999999046326","<p> You can select the store on the left by pressing 1, the store in the middle by pressing 2, and the store on the right by pressing 3. </p><br><div class=""choice-instructions-grid""> <div class=""choice-option""><img src=""images/fruit_choice1.png"" class=""choice-option-img"" stage=""instructions"" position=""0"" ><div class=""choice-option-text""> Press ""1."" </div></div><div class=""choice-option""><img src=""images/fruit_choice2.png"" class=""choice-option-img"" stage=""instructions"" position=""1"" ><div class=""choice-option-text""> Press ""2."" </div></div><div class=""choice-option""><img src=""images/fruit_choice3.png"" class=""choice-option-img"" stage=""instructions"" position=""2"" ><div class=""choice-option-text""> Press ""3."" </div></div></div>","","0","instructions","","","","","","","","","","","","","",""
"learning-instructions","79","458150","0.0-9.0-1.0-0.3","1860","2","2","""event"",""trial"",""time""
""fullscreenenter"",""1"",""6026""
","
","
","""event"",""trial"",""time""
""fullscreenenter"",""1"",""6026""
","
","","","","","","1305.0999999046326","<p> If you find the fruit in the store you chose, you will get to buy and eat it! </p><div style='float: center;'><img src='images/check.png' width = '200' height = '200'></img>","","0","instructions","","","","","","","","","","","","","",""
"learning-instructions","80","463944","0.0-9.0-1.0-0.4","1860","2","2","""event"",""trial"",""time""
""fullscreenenter"",""1"",""6026""
","
","
","""event"",""trial"",""time""
""fullscreenenter"",""1"",""6026""
","
","","","","","","1323.0999999046326","<p> But, if the fruit is not in that store, you will be hungry. </p><div style='float: center;'><img src='images/x.png' width = '200' height = '200'></img>","","0","instructions","","","","","","","","","","","","","",""
"learning-instructions","81","474338","0.0-9.0-1.0-0.5","1860","2","2","""event"",""trial"",""time""
""fullscreenenter"",""1"",""6026""
","
","
","""event"",""trial"",""time""
""fullscreenenter"",""1"",""6026""
","
","","","","","","617.6999998092651","<p> Importantly, each fruit is more likely to be found in one of the stores. </p><p> If you choose the correct store, you will be more likely to be able to buy the fruit! </p>","","0","instructions","","","","","","","","","","","","","",""
"learning-instructions","82","486067","0.0-9.0-1.0-0.6","1860","2","2","""event"",""trial"",""time""
""fullscreenenter"",""1"",""6026""
","
","
","""event"",""trial"",""time""
""fullscreenenter"",""1"",""6026""
","
","","","","","","1272.0999999046326","<p> However, even if you choose the best store for the fruit, the store might not have it sometimes. </p><p> Similarly, even if you choose the <i>wrong</i> store, it might still have the fruit.","","0","instructions","","","","","","","","","","","","","",""
"learning-instructions","83","500005","0.0-9.0-1.0-0.7","1860","2","2","""event"",""trial"",""time""
""fullscreenenter"",""1"",""6026""
","
","
","""event"",""trial"",""time""
""fullscreenenter"",""1"",""6026""
","
","","","","","","1755.0999999046326","<p> Try to choose the best store for each fruit, because you will <b> WIN </b> 1 point for each fruit you eat and <b>LOSE</b> 1 point each time you are hungry. </p><p> Your bonus payment will depend on your total number of points.","","0","instructions","","","","","","","","","","","","","",""
"learning-instructions","84","509563","0.0-9.0-1.0-0.8","1860","2","2","""event"",""trial"",""time""
""fullscreenenter"",""1"",""6026""
","
","
","""event"",""trial"",""time""
""fullscreenenter"",""1"",""6026""
","
","","","","","","1352.3000001907349","<p> The position of each store will change throughout the round. </p><p> The store's position <i> does not </i> influence how likely you are to find the fruit. </p>","","0","instructions","","","","","","","","","","","","","",""
"learning-instructions","85","519847","0.0-9.0-1.0-0.9","1860","2","2","""event"",""trial"",""time""
""fullscreenenter"",""1"",""6026""
","
","
","""event"",""trial"",""time""
""fullscreenenter"",""1"",""6026""
","
","","","","","","989.0999999046326","<p> You will have 4 seconds to make each choice. Try to respond before time runs out! </p><p> You will lose 1 point each time you do not make a response. </p>","","0","instructions","","","","","","","","","","","","","",""
"html-keyboard-response","86","520451","0.0-9.0-2.0-0.0","1860","2","2","""event"",""trial"",""time""
""fullscreenenter"",""1"",""6026""
","
","
","""event"",""trial"",""time""
""fullscreenenter"",""1"",""6026""
","
","","","","","","null","<div style=""font-size:60px;"">+</div>","null","","fixation","","","","","","","","","","","","","",""
"learning-trial","87","524455","0.0-9.0-2.0-1.0","1860","2","2","""event"",""trial"",""time""
""fullscreenenter"",""1"",""6026""
","
","
","""event"",""trial"",""time""
""fullscreenenter"",""1"",""6026""
","
","","","","","","1156","images/straw3.png","","","learning","images/fruit_choice2.png","images/fruit_choice1.png","images/fruit_choice3.png","[1,0,2]","1","0","1","images/fruit_choice2.png","1","fruit","","straw","2","0"
"html-keyboard-response","88","524961","0.0-9.0-2.0-0.1","1860","2","2","""event"",""trial"",""time""
""fullscreenenter"",""1"",""6026""
","
","
","""event"",""trial"",""time""
""fullscreenenter"",""1"",""6026""
","
","","","","","","null","<div style=""font-size:60px;"">+</div>","null","","fixation","","","","","","","","","","","","","",""
"learning-trial","89","528968","0.0-9.0-2.0-1.1","1860","2","2","""event"",""trial"",""time""
""fullscreenenter"",""1"",""6026""
","
","
","""event"",""trial"",""time""
""fullscreenenter"",""1"",""6026""
","
","","","","","","871.6999998092651","images/orange3.png","","","learning","images/fruit_choice3.png","images/fruit_choice1.png","images/fruit_choice2.png","[2,0,1]","1","2","2","images/fruit_choice1.png","-1","fruit","","orange","2","0"
"html-keyboard-response","90","529470","0.0-9.0-2.0-0.2","1860","2","2","""event"",""trial"",""time""
""fullscreenenter"",""1"",""6026""
","
","
","""event"",""trial"",""time""
""fullscreenenter"",""1"",""6026""
","
","","","","","","null","<div style=""font-size:60px;"">+</div>","null","","fixation","","","","","","","","","","","","","",""
"learning-trial","91","533478","0.0-9.0-2.0-1.2","1860","2","2","""event"",""trial"",""time""
""fullscreenenter"",""1"",""6026""
","
","
","""event"",""trial"",""time""
""fullscreenenter"",""1"",""6026""
","
","","","","","","1126","images/straw5.png","","","learning","images/fruit_choice3.png","images/fruit_choice2.png","images/fruit_choice1.png","[2,1,0]","2","0","2","images/fruit_choice2.png","-1","fruit","","straw","2","0"
"html-keyboard-response","92","533984","0.0-9.0-2.0-0.3","1860","2","2","""event"",""trial"",""time""
""fullscreenenter"",""1"",""6026""
","
","
","""event"",""trial"",""time""
""fullscreenenter"",""1"",""6026""
","
","","","","","","null","<div style=""font-size:60px;"">+</div>","null","","fixation","","","","","","","","","","","","","",""
"learning-trial","93","537991","0.0-9.0-2.0-1.3","1860","2","2","""event"",""trial"",""time""
""fullscreenenter"",""1"",""6026""
","
","
","""event"",""trial"",""time""
""fullscreenenter"",""1"",""6026""
","
","","","","","","892.7000002861023","images/straw5.png","","","learning","images/fruit_choice1.png","images/fruit_choice2.png","images/fruit_choice3.png","[0,1,2]","2","2","2","images/fruit_choice2.png","-1","fruit","","straw","2","0"
"html-keyboard-response","94","538493","0.0-9.0-2.0-0.4","1860","2","2","""event"",""trial"",""time""
""fullscreenenter"",""1"",""6026""
","
","
","""event"",""trial"",""time""
""fullscreenenter"",""1"",""6026""
","
","","","","","","null","<div style=""font-size:60px;"">+</div>","null","","fixation","","","","","","","","","","","","","",""
"learning-trial","95","542498","0.0-9.0-2.0-1.4","1860","2","2","""event"",""trial"",""time""
""fullscreenenter"",""1"",""6026""
","
","
","""event"",""trial"",""time""
""fullscreenenter"",""1"",""6026""
","
","","","","","","1332.5999999046326","images/apple4.png","","","learning","images/fruit_choice1.png","images/fruit_choice3.png","images/fruit_choice2.png","[0,2,1]","1","2","1","images/fruit_choice1.png","-1","fruit","","apple","2","0"
"html-keyboard-response","96","543000","0.0-9.0-2.0-0.5","1860","2","2","""event"",""trial"",""time""
""fullscreenenter"",""1"",""6026""
","
","
","""event"",""trial"",""time""
""fullscreenenter"",""1"",""6026""
","
","","","","","","null","<div style=""font-size:60px;"">+</div>","null","","fixation","","","","","","","","","","","","","",""
"learning-trial","97","547007","0.0-9.0-2.0-1.5","1860","2","2","""event"",""trial"",""time""
""fullscreenenter"",""1"",""6026""
","
","
","""event"",""trial"",""time""
""fullscreenenter"",""1"",""6026""
","
","","","","","","1279.7999997138977","images/apple1.png","","","learning","images/fruit_choice3.png","images/fruit_choice1.png","images/fruit_choice2.png","[2,0,1]","2","0","1","images/fruit_choice3.png","1","fruit","","apple","2","0"
"html-keyboard-response","98","547510","0.0-9.0-2.0-0.6","1860","2","2","""event"",""trial"",""time""
""fullscreenenter"",""1"",""6026""
","
","
","""event"",""trial"",""time""
""fullscreenenter"",""1"",""6026""
","
","","","","","","null","<div style=""font-size:60px;"">+</div>","null","","fixation","","","","","","","","","","","","","",""
"learning-trial","99","551517","0.0-9.0-2.0-1.6","1860","2","2","""event"",""trial"",""time""
""fullscreenenter"",""1"",""6026""
","
","
","""event"",""trial"",""time""
""fullscreenenter"",""1"",""6026""
","
","","","","","","1176.5","images/apple2.png","","","learning","images/fruit_choice2.png","images/fruit_choice1.png","images/fruit_choice3.png","[1,0,2]","0","1","3","images/fruit_choice3.png","-1","fruit","","apple","2","0"
"html-keyboard-response","100","552021","0.0-9.0-2.0-0.7","1860","2","2","""event"",""trial"",""time""
""fullscreenenter"",""1"",""6026""
","
","
","""event"",""trial"",""time""
""fullscreenenter"",""1"",""6026""
","
","","","","","","null","<div style=""font-size:60px;"">+</div>","null","","fixation","","","","","","","","","","","","","",""
"learning-trial","101","556027","0.0-9.0-2.0-1.7","1860","2","2","""event"",""trial"",""time""
""fullscreenenter"",""1"",""6026""
","
","
","""event"",""trial"",""time""
""fullscreenenter"",""1"",""6026""
","
","","","","","","1854.8999996185303","images/straw3.png","","","learning","images/fruit_choice2.png","images/fruit_choice1.png","images/fruit_choice3.png","[1,0,2]","1","0","3","images/fruit_choice3.png","-1","fruit","","straw","2","0"
"html-keyboard-response","102","556532","0.0-9.0-2.0-0.8","1860","2","2","""event"",""trial"",""time""
""fullscreenenter"",""1"",""6026""
","
","
","""event"",""trial"",""time""
""fullscreenenter"",""1"",""6026""
","
","","","","","","null","<div style=""font-size:60px;"">+</div>","null","","fixation","","","","","","","","","","","","","",""
"learning-trial","103","560537","0.0-9.0-2.0-1.8","1860","2","2","""event"",""trial"",""time""
""fullscreenenter"",""1"",""6026""
","
","
","""event"",""trial"",""time""
""fullscreenenter"",""1"",""6026""
","
","","","","","","1059.2000002861023","images/straw5.png","","","learning","images/fruit_choice1.png","images/fruit_choice2.png","images/fruit_choice3.png","[0,1,2]","2","2","1","images/fruit_choice1.png","-1","fruit","","straw","2","0"
"html-keyboard-response","104","561042","0.0-9.0-2.0-0.9","1860","2","2","""event"",""trial"",""time""
""fullscreenenter"",""1"",""6026""
","
","
","""event"",""trial"",""time""
""fullscreenenter"",""1"",""6026""
","
","","","","","","null","<div style=""font-size:60px;"">+</div>","null","","fixation","","","","","","","","","","","","","",""
"learning-trial","105","565050","0.0-9.0-2.0-1.9","1860","2","2","""event"",""trial"",""time""
""fullscreenenter"",""1"",""6026""
","
","
","""event"",""trial"",""time""
""fullscreenenter"",""1"",""6026""
","
","","","","","","1478.4000000953674","images/orange3.png","","","learning","images/fruit_choice3.png","images/fruit_choice1.png","images/fruit_choice2.png","[2,0,1]","1","2","2","images/fruit_choice1.png","-1","fruit","","orange","2","0"
"html-keyboard-response","106","565554","0.0-9.0-2.0-0.10","1860","2","2","""event"",""trial"",""time""
""fullscreenenter"",""1"",""6026""
","
","
","""event"",""trial"",""time""
""fullscreenenter"",""1"",""6026""
","
","","","","","","null","<div style=""font-size:60px;"">+</div>","null","","fixation","","","","","","","","","","","","","",""
"learning-trial","107","569564","0.0-9.0-2.0-1.10","1860","2","2","""event"",""trial"",""time""
""fullscreenenter"",""1"",""6026""
","
","
","""event"",""trial"",""time""
""fullscreenenter"",""1"",""6026""
","
","","","","","","1355.0999999046326","images/apple4.png","","","learning","images/fruit_choice3.png","images/fruit_choice2.png","images/fruit_choice1.png","[2,1,0]","1","1","1","images/fruit_choice3.png","-1","fruit","","apple","2","0"
"html-keyboard-response","108","570070","0.0-9.0-2.0-0.11","1860","2","2","""event"",""trial"",""time""
""fullscreenenter"",""1"",""6026""
","
","
","""event"",""trial"",""time""
""fullscreenenter"",""1"",""6026""
","
","","","","","","null","<div style=""font-size:60px;"">+</div>","null","","fixation","","","","","","","","","","","","","",""
"learning-trial","109","574075","0.0-9.0-2.0-1.11","1860","2","2","""event"",""trial"",""time""
""fullscreenenter"",""1"",""6026""
","
","
","""event"",""trial"",""time""
""fullscreenenter"",""1"",""6026""
","
","","","","","","1057.6999998092651","images/apple4.png","","","learning","images/fruit_choice3.png","images/fruit_choice1.png","images/fruit_choice2.png","[2,0,1]","1","2","2","images/fruit_choice1.png","-1","fruit","","apple","2","0"
"html-keyboard-response","110","574582","0.0-9.0-2.0-0.12","1860","2","2","""event"",""trial"",""time""
""fullscreenenter"",""1"",""6026""
","
","
","""event"",""trial"",""time""
""fullscreenenter"",""1"",""6026""
","
","","","","","","null","<div style=""font-size:60px;"">+</div>","null","","fixation","","","","","","","","","","","","","",""
"learning-trial","111","578591","0.0-9.0-2.0-1.12","1860","2","2","""event"",""trial"",""time""
""fullscreenenter"",""1"",""6026""
","
","
","""event"",""trial"",""time""
""fullscreenenter"",""1"",""6026""
","
","","","","","","1067.5","images/apple2.png","","","learning","images/fruit_choice3.png","images/fruit_choice2.png","images/fruit_choice1.png","[2,1,0]","0","2","2","images/fruit_choice2.png","-1","fruit","","apple","2","0"
"html-keyboard-response","112","579095","0.0-9.0-2.0-0.13","1860","2","2","""event"",""trial"",""time""
""fullscreenenter"",""1"",""6026""
","
","
","""event"",""trial"",""time""
""fullscreenenter"",""1"",""6026""
","
","","","","","","null","<div style=""font-size:60px;"">+</div>","null","","fixation","","","","","","","","","","","","","",""
"learning-trial","113","583101","0.0-9.0-2.0-1.13","1860","2","2","""event"",""trial"",""time""
""fullscreenenter"",""1"",""6026""
","
","
","""event"",""trial"",""time""
""fullscreenenter"",""1"",""6026""
","
","","","","","","2408.0999999046326","images/apple4.png","","","learning","images/fruit_choice1.png","images/fruit_choice3.png","images/fruit_choice2.png","[0,2,1]","1","2","2","images/fruit_choice3.png","-1","fruit","","apple","2","0"
"html-keyboard-response","114","583606","0.0-9.0-2.0-0.14","1860","2","2","""event"",""trial"",""time""
""fullscreenenter"",""1"",""6026""
","
","
","""event"",""trial"",""time""
""fullscreenenter"",""1"",""6026""
","
","","","","","","null","<div style=""font-size:60px;"">+</div>","null","","fixation","","","","","","","","","","","","","",""
"learning-trial","115","587615","0.0-9.0-2.0-1.14","1860","2","2","""event"",""trial"",""time""
""fullscreenenter"",""1"",""6026""
","
","
","""event"",""trial"",""time""
""fullscreenenter"",""1"",""6026""
","
","","","","","","1277.9000000953674","images/straw2.png","","","learning","images/fruit_choice2.png","images/fruit_choice3.png","images/fruit_choice1.png","[1,2,0]","0","2","1","images/fruit_choice2.png","-1","fruit","","straw","2","0"
"html-keyboard-response","116","588121","0.0-9.0-2.0-0.15","1860","2","2","""event"",""trial"",""time""
""fullscreenenter"",""1"",""6026""
","
","
","""event"",""trial"",""time""
""fullscreenenter"",""1"",""6026""
","
","","","","","","null","<div style=""font-size:60px;"">+</div>","null","","fixation","","","","","","","","","","","","","",""
"learning-trial","117","592128","0.0-9.0-2.0-1.15","1860","2","2","""event"",""trial"",""time""
""fullscreenenter"",""1"",""6026""
","
","
","""event"",""trial"",""time""
""fullscreenenter"",""1"",""6026""
","
","","","","","","1037","images/orange3.png","","","learning","images/fruit_choice2.png","images/fruit_choice3.png","images/fruit_choice1.png","[1,2,0]","1","0","3","images/fruit_choice1.png","1","fruit","","orange","2","0"
"html-keyboard-response","118","592633","0.0-9.0-2.0-0.16","1860","2","2","""event"",""trial"",""time""
""fullscreenenter"",""1"",""6026""
","
","
","""event"",""trial"",""time""
""fullscreenenter"",""1"",""6026""
","
","","","","","","null","<div style=""font-size:60px;"">+</div>","null","","fixation","","","","","","","","","","","","","",""
"learning-trial","119","596640","0.0-9.0-2.0-1.16","1860","2","2","""event"",""trial"",""time""
""fullscreenenter"",""1"",""6026""
","
","
","""event"",""trial"",""time""
""fullscreenenter"",""1"",""6026""
","
","","","","","","1256.6999998092651","images/apple1.png","","","learning","images/fruit_choice1.png","images/fruit_choice2.png","images/fruit_choice3.png","[0,1,2]","2","2","3","images/fruit_choice3.png","1","fruit","","apple","2","0"
"html-keyboard-response","120","597148","0.0-9.0-2.0-0.17","1860","2","2","""event"",""trial"",""time""
""fullscreenenter"",""1"",""6026""
","
","
","""event"",""trial"",""time""
""fullscreenenter"",""1"",""6026""
","
","","","","","","null","<div style=""font-size:60px;"">+</div>","null","","fixation","","","","","","","","","","","","","",""
"learning-trial","121","601156","0.0-9.0-2.0-1.17","1860","2","2","""event"",""trial"",""time""
""fullscreenenter"",""1"",""6026""
","
","
","""event"",""trial"",""time""
""fullscreenenter"",""1"",""6026""
","
","","","","","","919","images/orange3.png","","","learning","images/fruit_choice2.png","images/fruit_choice1.png","images/fruit_choice3.png","[1,0,2]","1","0","2","images/fruit_choice1.png","-1","fruit","","orange","2","0"
"html-keyboard-response","122","601659","0.0-9.0-2.0-0.18","1860","2","2","""event"",""trial"",""time""
""fullscreenenter"",""1"",""6026""
","
","
","""event"",""trial"",""time""
""fullscreenenter"",""1"",""6026""
","
","","","","","","null","<div style=""font-size:60px;"">+</div>","null","","fixation","","","","","","","","","","","","","",""
"learning-trial","123","605667","0.0-9.0-2.0-1.18","1860","2","2","""event"",""trial"",""time""
""fullscreenenter"",""1"",""6026""
","
","
","""event"",""trial"",""time""
""fullscreenenter"",""1"",""6026""
","
","","","","","","2124.5","images/apple4.png","","","learning","images/fruit_choice2.png","images/fruit_choice3.png","images/fruit_choice1.png","[1,2,0]","1","0","2","images/fruit_choice3.png","-1","fruit","","apple","2","0"
"html-keyboard-response","124","606170","0.0-9.0-2.0-0.19","1860","2","2","""event"",""trial"",""time""
""fullscreenenter"",""1"",""6026""
","
","
","""event"",""trial"",""time""
""fullscreenenter"",""1"",""6026""
","
","","","","","","null","<div style=""font-size:60px;"">+</div>","null","","fixation","","","","","","","","","","","","","",""
"learning-trial","125","610175","0.0-9.0-2.0-1.19","1860","2","2","""event"",""trial"",""time""
""fullscreenenter"",""1"",""6026""
","
","
","""event"",""trial"",""time""
""fullscreenenter"",""1"",""6026""
","
","","","","","","2461.5999999046326","images/straw5.png","","","learning","images/fruit_choice2.png","images/fruit_choice1.png","images/fruit_choice3.png","[1,0,2]","2","2","2","images/fruit_choice1.png","-1","fruit","","straw","2","0"
"html-keyboard-response","126","610681","0.0-9.0-2.0-0.20","1860","2","2","""event"",""trial"",""time""
""fullscreenenter"",""1"",""6026""
","
","
","""event"",""trial"",""time""
""fullscreenenter"",""1"",""6026""
","
","","","","","","null","<div style=""font-size:60px;"">+</div>","null","","fixation","","","","","","","","","","","","","",""
"learning-trial","127","614689","0.0-9.0-2.0-1.20","1860","2","2","""event"",""trial"",""time""
""fullscreenenter"",""1"",""6026""
","
","
","""event"",""trial"",""time""
""fullscreenenter"",""1"",""6026""
","
","","","","","","979.2999997138977","images/straw2.png","","","learning","images/fruit_choice1.png","images/fruit_choice2.png","images/fruit_choice3.png","[0,1,2]","0","0","3","images/fruit_choice3.png","-1","fruit","","straw","2","0"
"html-keyboard-response","128","615190","0.0-9.0-2.0-0.21","1860","2","2","""event"",""trial"",""time""
""fullscreenenter"",""1"",""6026""
","
","
","""event"",""trial"",""time""
""fullscreenenter"",""1"",""6026""
","
","","","","","","null","<div style=""font-size:60px;"">+</div>","null","","fixation","","","","","","","","","","","","","",""
"learning-trial","129","619198","0.0-9.0-2.0-1.21","1860","2","2","""event"",""trial"",""time""
""fullscreenenter"",""1"",""6026""
","
","
","""event"",""trial"",""time""
""fullscreenenter"",""1"",""6026""
","
","","","","","","2342.9000000953674","images/orange5.png","","","learning","images/fruit_choice3.png","images/fruit_choice2.png","images/fruit_choice1.png","[2,1,0]","2","0","3","images/fruit_choice1.png","-1","fruit","","orange","2","0"
"html-keyboard-response","130","619701","0.0-9.0-2.0-0.22","1860","2","2","""event"",""trial"",""time""
""fullscreenenter"",""1"",""6026""
","
","
","""event"",""trial"",""time""
""fullscreenenter"",""1"",""6026""
","
","","","","","","null","<div style=""font-size:60px;"">+</div>","null","","fixation","","","","","","","","","","","","","",""
"learning-trial","131","623710","0.0-9.0-2.0-1.22","1860","2","2","""event"",""trial"",""time""
""fullscreenenter"",""1"",""6026""
","
","
","""event"",""trial"",""time""
""fullscreenenter"",""1"",""6026""
","
","","","","","","1152.0999999046326","images/apple1.png","","","learning","images/fruit_choice3.png","images/fruit_choice1.png","images/fruit_choice2.png","[2,0,1]","2","0","1","images/fruit_choice3.png","1","fruit","","apple","2","0"
"html-keyboard-response","132","624216","0.0-9.0-2.0-0.23","1860","2","2","""event"",""trial"",""time""
""fullscreenenter"",""1"",""6026""
","
","
","""event"",""trial"",""time""
""fullscreenenter"",""1"",""6026""
","
","","","","","","null","<div style=""font-size:60px;"">+</div>","null","","fixation","","","","","","","","","","","","","",""
"learning-trial","133","628223","0.0-9.0-2.0-1.23","1860","2","2","""event"",""trial"",""time""
""fullscreenenter"",""1"",""6026""
","
","
","""event"",""trial"",""time""
""fullscreenenter"",""1"",""6026""
","
","","","","","","2117.4000000953674","images/orange5.png","","","learning","images/fruit_choice1.png","images/fruit_choice3.png","images/fruit_choice2.png","[0,2,1]","2","1","3","images/fruit_choice2.png","-1","fruit","","orange","2","0"
"html-keyboard-response","134","628729","0.0-9.0-2.0-0.24","1860","2","2","""event"",""trial"",""time""
""fullscreenenter"",""1"",""6026""
","
","
","""event"",""trial"",""time""
""fullscreenenter"",""1"",""6026""
","
","","","","","","null","<div style=""font-size:60px;"">+</div>","null","","fixation","","","","","","","","","","","","","",""
"learning-trial","135","632735","0.0-9.0-2.0-1.24","1860","2","2","""event"",""trial"",""time""
""fullscreenenter"",""1"",""6026""
","
","
","""event"",""trial"",""time""
""fullscreenenter"",""1"",""6026""
","
","","","","","","1612.3000001907349","images/orange1.png","","","learning","images/fruit_choice1.png","images/fruit_choice2.png","images/fruit_choice3.png","[0,1,2]","0","0","2","images/fruit_choice2.png","-1","fruit","","orange","2","0"
"html-keyboard-response","136","633239","0.0-9.0-2.0-0.25","1860","2","2","""event"",""trial"",""time""
""fullscreenenter"",""1"",""6026""
","
","
","""event"",""trial"",""time""
""fullscreenenter"",""1"",""6026""
","
","","","","","","null","<div style=""font-size:60px;"">+</div>","null","","fixation","","","","","","","","","","","","","",""
"learning-trial","137","637244","0.0-9.0-2.0-1.25","1860","2","2","""event"",""trial"",""time""
""fullscreenenter"",""1"",""6026""
","
","
","""event"",""trial"",""time""
""fullscreenenter"",""1"",""6026""
","
","","","","","","1177.1999998092651","images/orange1.png","","","learning","images/fruit_choice1.png","images/fruit_choice2.png","images/fruit_choice3.png","[0,1,2]","0","0","1","images/fruit_choice1.png","1","fruit","","orange","2","0"
"html-keyboard-response","138","637749","0.0-9.0-2.0-0.26","1860","2","2","""event"",""trial"",""time""
""fullscreenenter"",""1"",""6026""
","
","
","""event"",""trial"",""time""
""fullscreenenter"",""1"",""6026""
","
","","","","","","null","<div style=""font-size:60px;"">+</div>","null","","fixation","","","","","","","","","","","","","",""
"learning-trial","139","641753","0.0-9.0-2.0-1.26","1860","2","2","""event"",""trial"",""time""
""fullscreenenter"",""1"",""6026""
","
","
","""event"",""trial"",""time""
""fullscreenenter"",""1"",""6026""
","
","","","","","","1107","images/orange5.png","","","learning","images/fruit_choice3.png","images/fruit_choice2.png","images/fruit_choice1.png","[2,1,0]","2","0","3","images/fruit_choice1.png","-1","fruit","","orange","2","0"
"html-keyboard-response","140","642259","0.0-9.0-2.0-0.27","1860","2","2","""event"",""trial"",""time""
""fullscreenenter"",""1"",""6026""
","
","
","""event"",""trial"",""time""
""fullscreenenter"",""1"",""6026""
","
","","","","","","null","<div style=""font-size:60px;"">+</div>","null","","fixation","","","","","","","","","","","","","",""
"learning-trial","141","646264","0.0-9.0-2.0-1.27","1860","2","2","""event"",""trial"",""time""
""fullscreenenter"",""1"",""6026""
","
","
","""event"",""trial"",""time""
""fullscreenenter"",""1"",""6026""
","
","","","","","","2301.9000000953674","images/straw5.png","","","learning","images/fruit_choice2.png","images/fruit_choice3.png","images/fruit_choice1.png","[1,2,0]","2","1","1","images/fruit_choice2.png","-1","fruit","","straw","2","0"
"html-keyboard-response","142","646770","0.0-9.0-2.0-0.28","1860","2","2","""event"",""trial"",""time""
""fullscreenenter"",""1"",""6026""
","
","
","""event"",""trial"",""time""
""fullscreenenter"",""1"",""6026""
","
","","","","","","null","<div style=""font-size:60px;"">+</div>","null","","fixation","","","","","","","","","","","","","",""
"learning-trial","143","650775","0.0-9.0-2.0-1.28","1860","2","2","""event"",""trial"",""time""
""fullscreenenter"",""1"",""6026""
","
","
","""event"",""trial"",""time""
""fullscreenenter"",""1"",""6026""
","
","","","","","","1564.3000001907349","images/apple2.png","","","learning","images/fruit_choice3.png","images/fruit_choice2.png","images/fruit_choice1.png","[2,1,0]","0","2","1","images/fruit_choice3.png","-1","fruit","","apple","2","0"
"html-keyboard-response","144","651277","0.0-9.0-2.0-0.29","1860","2","2","""event"",""trial"",""time""
""fullscreenenter"",""1"",""6026""
","
","
","""event"",""trial"",""time""
""fullscreenenter"",""1"",""6026""
","
","","","","","","null","<div style=""font-size:60px;"">+</div>","null","","fixation","","","","","","","","","","","","","",""
"learning-trial","145","655286","0.0-9.0-2.0-1.29","1860","2","2","""event"",""trial"",""time""
""fullscreenenter"",""1"",""6026""
","
","
","""event"",""trial"",""time""
""fullscreenenter"",""1"",""6026""
","
","","","","","","1134.8999996185303","images/apple1.png","","","learning","images/fruit_choice3.png","images/fruit_choice1.png","images/fruit_choice2.png","[2,0,1]","2","0","1","images/fruit_choice3.png","1","fruit","","apple","2","0"
"html-keyboard-response","146","655790","0.0-9.0-2.0-0.30","1860","2","2","""event"",""trial"",""time""
""fullscreenenter"",""1"",""6026""
","
","
","""event"",""trial"",""time""
""fullscreenenter"",""1"",""6026""
","
","","","","","","null","<div style=""font-size:60px;"">+</div>","null","","fixation","","","","","","","","","","","","","",""
"learning-trial","147","659799","0.0-9.0-2.0-1.30","1860","2","2","""event"",""trial"",""time""
""fullscreenenter"",""1"",""6026""
","
","
","""event"",""trial"",""time""
""fullscreenenter"",""1"",""6026""
","
","","","","","","2210.800000190735","images/straw5.png","","","learning","images/fruit_choice2.png","images/fruit_choice3.png","images/fruit_choice1.png","[1,2,0]","2","1","3","images/fruit_choice1.png","-1","fruit","","straw","2","0"
"html-keyboard-response","148","660301","0.0-9.0-2.0-0.31","1860","2","2","""event"",""trial"",""time""
""fullscreenenter"",""1"",""6026""
","
","
","""event"",""trial"",""time""
""fullscreenenter"",""1"",""6026""
","
","","","","","","null","<div style=""font-size:60px;"">+</div>","null","","fixation","","","","","","","","","","","","","",""
"learning-trial","149","664308","0.0-9.0-2.0-1.31","1860","2","2","""event"",""trial"",""time""
""fullscreenenter"",""1"",""6026""
","
","
","""event"",""trial"",""time""
""fullscreenenter"",""1"",""6026""
","
","","","","","","1106.1999998092651","images/apple1.png","","","learning","images/fruit_choice2.png","images/fruit_choice3.png","images/fruit_choice1.png","[1,2,0]","2","1","2","images/fruit_choice3.png","-1","fruit","","apple","2","0"
"html-keyboard-response","150","664814","0.0-9.0-2.0-0.32","1860","2","2","""event"",""trial"",""time""
""fullscreenenter"",""1"",""6026""
","
","
","""event"",""trial"",""time""
""fullscreenenter"",""1"",""6026""
","
","","","","","","null","<div style=""font-size:60px;"">+</div>","null","","fixation","","","","","","","","","","","","","",""
"learning-trial","151","668820","0.0-9.0-2.0-1.32","1860","2","2","""event"",""trial"",""time""
""fullscreenenter"",""1"",""6026""
","
","
","""event"",""trial"",""time""
""fullscreenenter"",""1"",""6026""
","
","","","","","","1602.0999999046326","images/orange3.png","","","learning","images/fruit_choice1.png","images/fruit_choice3.png","images/fruit_choice2.png","[0,2,1]","1","2","1","images/fruit_choice1.png","-1","fruit","","orange","2","0"
"html-keyboard-response","152","669323","0.0-9.0-2.0-0.33","1860","2","2","""event"",""trial"",""time""
""fullscreenenter"",""1"",""6026""
","
","
","""event"",""trial"",""time""
""fullscreenenter"",""1"",""6026""
","
","","","","","","null","<div style=""font-size:60px;"">+</div>","null","","fixation","","","","","","","","","","","","","",""
"learning-trial","153","673332","0.0-9.0-2.0-1.33","1860","2","2","""event"",""trial"",""time""
""fullscreenenter"",""1"",""6026""
","
","
","""event"",""trial"",""time""
""fullscreenenter"",""1"",""6026""
","
","","","","","","1605.7000002861023","images/straw5.png","","","learning","images/fruit_choice1.png","images/fruit_choice3.png","images/fruit_choice2.png","[0,2,1]","2","1","2","images/fruit_choice3.png","-1","fruit","","straw","2","0"
"html-keyboard-response","154","673838","0.0-9.0-2.0-0.34","1860","2","2","""event"",""trial"",""time""
""fullscreenenter"",""1"",""6026""
","
","
","""event"",""trial"",""time""
""fullscreenenter"",""1"",""6026""
","
","","","","","","null","<div style=""font-size:60px;"">+</div>","null","","fixation","","","","","","","","","","","","","",""
"learning-trial","155","677848","0.0-9.0-2.0-1.34","1860","2","2","""event"",""trial"",""time""
""fullscreenenter"",""1"",""6026""
","
","
","""event"",""trial"",""time""
""fullscreenenter"",""1"",""6026""
","
","","","","","","2502.5","images/apple2.png","","","learning","images/fruit_choice1.png","images/fruit_choice3.png","images/fruit_choice2.png","[0,2,1]","0","0","3","images/fruit_choice2.png","-1","fruit","","apple","2","0"
"html-keyboard-response","156","678354","0.0-9.0-2.0-0.35","1860","2","2","""event"",""trial"",""time""
""fullscreenenter"",""1"",""6026""
","
","
","""event"",""trial"",""time""
""fullscreenenter"",""1"",""6026""
","
","","","","","","null","<div style=""font-size:60px;"">+</div>","null","","fixation","","","","","","","","","","","","","",""
"learning-trial","157","682360","0.0-9.0-2.0-1.35","1860","2","2","""event"",""trial"",""time""
""fullscreenenter"",""1"",""6026""
","
","
","""event"",""trial"",""time""
""fullscreenenter"",""1"",""6026""
","
","","","","","","2180.5","images/straw3.png","","","learning","images/fruit_choice1.png","images/fruit_choice3.png","images/fruit_choice2.png","[0,2,1]","1","2","3","images/fruit_choice2.png","1","fruit","","straw","2","0"
"html-keyboard-response","158","682866","0.0-9.0-2.0-0.36","1860","2","2","""event"",""trial"",""time""
""fullscreenenter"",""1"",""6026""
","
","
","""event"",""trial"",""time""
""fullscreenenter"",""1"",""6026""
","
","","","","","","null","<div style=""font-size:60px;"">+</div>","null","","fixation","","","","","","","","","","","","","",""
"learning-trial","159","686870","0.0-9.0-2.0-1.36","1860","2","2","""event"",""trial"",""time""
""fullscreenenter"",""1"",""6026""
","
","
","""event"",""trial"",""time""
""fullscreenenter"",""1"",""6026""
","
","","","","","","1596.6999998092651","images/orange1.png","","","learning","images/fruit_choice3.png","images/fruit_choice1.png","images/fruit_choice2.png","[2,0,1]","0","1","3","images/fruit_choice2.png","-1","fruit","","orange","2","0"
"html-keyboard-response","160","687375","0.0-9.0-2.0-0.37","1860","2","2","""event"",""trial"",""time""
""fullscreenenter"",""1"",""6026""
","
","
","""event"",""trial"",""time""
""fullscreenenter"",""1"",""6026""
","
","","","","","","null","<div style=""font-size:60px;"">+</div>","null","","fixation","","","","","","","","","","","","","",""
"learning-trial","161","691381","0.0-9.0-2.0-1.37","1860","2","2","""event"",""trial"",""time""
""fullscreenenter"",""1"",""6026""
","
","
","""event"",""trial"",""time""
""fullscreenenter"",""1"",""6026""
","
","","","","","","1151.6999998092651","images/straw3.png","","","learning","images/fruit_choice3.png","images/fruit_choice1.png","images/fruit_choice2.png","[2,0,1]","1","2","3","images/fruit_choice2.png","1","fruit","","straw","2","0"
"html-keyboard-response","162","691889","0.0-9.0-2.0-0.38","1860","2","2","""event"",""trial"",""time""
""fullscreenenter"",""1"",""6026""
","
","
","""event"",""trial"",""time""
""fullscreenenter"",""1"",""6026""
","
","","","","","","null","<div style=""font-size:60px;"">+</div>","null","","fixation","","","","","","","","","","","","","",""
"learning-trial","163","695898","0.0-9.0-2.0-1.38","1860","2","2","""event"",""trial"",""time""
""fullscreenenter"",""1"",""6026""
","
","
","""event"",""trial"",""time""
""fullscreenenter"",""1"",""6026""
","
","","","","","","1136.8999996185303","images/apple2.png","","","learning","images/fruit_choice1.png","images/fruit_choice3.png","images/fruit_choice2.png","[0,2,1]","0","0","1","images/fruit_choice1.png","-1","fruit","","apple","2","0"
"html-keyboard-response","164","696402","0.0-9.0-2.0-0.39","1860","2","2","""event"",""trial"",""time""
""fullscreenenter"",""1"",""6026""
","
","
","""event"",""trial"",""time""
""fullscreenenter"",""1"",""6026""
","
","","","","","","null","<div style=""font-size:60px;"">+</div>","null","","fixation","","","","","","","","","","","","","",""
"learning-trial","165","700409","0.0-9.0-2.0-1.39","1860","2","2","""event"",""trial"",""time""
""fullscreenenter"",""1"",""6026""
","
","
","""event"",""trial"",""time""
""fullscreenenter"",""1"",""6026""
","
","","","","","","2539.699999809265","images/straw5.png","","","learning","images/fruit_choice2.png","images/fruit_choice3.png","images/fruit_choice1.png","[1,2,0]","2","1","3","images/fruit_choice1.png","1","fruit","","straw","2","0"
"html-keyboard-response","166","700915","0.0-9.0-2.0-0.40","1860","2","2","""event"",""trial"",""time""
""fullscreenenter"",""1"",""6026""
","
","
","""event"",""trial"",""time""
""fullscreenenter"",""1"",""6026""
","
","","","","","","null","<div style=""font-size:60px;"">+</div>","null","","fixation","","","","","","","","","","","","","",""
"learning-trial","167","704923","0.0-9.0-2.0-1.40","1860","2","2","""event"",""trial"",""time""
""fullscreenenter"",""1"",""6026""
","
","
","""event"",""trial"",""time""
""fullscreenenter"",""1"",""6026""
","
","","","","","","1240.6999998092651","images/straw3.png","","","learning","images/fruit_choice1.png","images/fruit_choice3.png","images/fruit_choice2.png","[0,2,1]","1","2","3","images/fruit_choice2.png","1","fruit","","straw","2","0"
"html-keyboard-response","168","705428","0.0-9.0-2.0-0.41","1860","2","2","""event"",""trial"",""time""
""fullscreenenter"",""1"",""6026""
","
","
","""event"",""trial"",""time""
""fullscreenenter"",""1"",""6026""
","
","","","","","","null","<div style=""font-size:60px;"">+</div>","null","","fixation","","","","","","","","","","","","","",""
"learning-trial","169","709434","0.0-9.0-2.0-1.41","1860","2","2","""event"",""trial"",""time""
""fullscreenenter"",""1"",""6026""
","
","
","""event"",""trial"",""time""
""fullscreenenter"",""1"",""6026""
","
","","","","","","1202.2999997138977","images/apple1.png","","","learning","images/fruit_choice2.png","images/fruit_choice1.png","images/fruit_choice3.png","[1,0,2]","2","2","3","images/fruit_choice3.png","1","fruit","","apple","2","0"
"html-keyboard-response","170","709939","0.0-9.0-2.0-0.42","1860","2","2","""event"",""trial"",""time""
""fullscreenenter"",""1"",""6026""
","
","
","""event"",""trial"",""time""
""fullscreenenter"",""1"",""6026""
","
","","","","","","null","<div style=""font-size:60px;"">+</div>","null","","fixation","","","","","","","","","","","","","",""
"learning-trial","171","713944","0.0-9.0-2.0-1.42","1860","2","2","""event"",""trial"",""time""
""fullscreenenter"",""1"",""6026""
","
","
","""event"",""trial"",""time""
""fullscreenenter"",""1"",""6026""
","
","","","","","","2484.8999996185303","images/straw2.png","","","learning","images/fruit_choice2.png","images/fruit_choice1.png","images/fruit_choice3.png","[1,0,2]","0","1","3","images/fruit_choice3.png","-1","fruit","","straw","2","0"
"html-keyboard-response","172","714449","0.0-9.0-2.0-0.43","1860","2","2","""event"",""trial"",""time""
""fullscreenenter"",""1"",""6026""
","
","
","""event"",""trial"",""time""
""fullscreenenter"",""1"",""6026""
","
","","","","","","null","<div style=""font-size:60px;"">+</div>","null","","fixation","","","","","","","","","","","","","",""
"learning-trial","173","718457","0.0-9.0-2.0-1.43","1860","2","2","""event"",""trial"",""time""
""fullscreenenter"",""1"",""6026""
","
","
","""event"",""trial"",""time""
""fullscreenenter"",""1"",""6026""
","
","","","","","","999.5","images/straw2.png","","","learning","images/fruit_choice2.png","images/fruit_choice1.png","images/fruit_choice3.png","[1,0,2]","0","1","1","images/fruit_choice2.png","-1","fruit","","straw","2","0"
"html-keyboard-response","174","718964","0.0-9.0-2.0-0.44","1860","2","2","""event"",""trial"",""time""
""fullscreenenter"",""1"",""6026""
","
","
","""event"",""trial"",""time""
""fullscreenenter"",""1"",""6026""
","
","","","","","","null","<div style=""font-size:60px;"">+</div>","null","","fixation","","","","","","","","","","","","","",""
"learning-trial","175","722971","0.0-9.0-2.0-1.44","1860","2","2","""event"",""trial"",""time""
""fullscreenenter"",""1"",""6026""
","
","
","""event"",""trial"",""time""
""fullscreenenter"",""1"",""6026""
","
","","","","","","2230.699999809265","images/apple2.png","","","learning","images/fruit_choice1.png","images/fruit_choice3.png","images/fruit_choice2.png","[0,2,1]","0","0","3","images/fruit_choice2.png","-1","fruit","","apple","2","0"
"html-keyboard-response","176","723478","0.0-9.0-2.0-0.45","1860","2","2","""event"",""trial"",""time""
""fullscreenenter"",""1"",""6026""
","
","
","""event"",""trial"",""time""
""fullscreenenter"",""1"",""6026""
","
","","","","","","null","<div style=""font-size:60px;"">+</div>","null","","fixation","","","","","","","","","","","","","",""
"learning-trial","177","727487","0.0-9.0-2.0-1.45","1860","2","2","""event"",""trial"",""time""
""fullscreenenter"",""1"",""6026""
","
","
","""event"",""trial"",""time""
""fullscreenenter"",""1"",""6026""
","
","","","","","","2630.5","images/orange5.png","","","learning","images/fruit_choice1.png","images/fruit_choice2.png","images/fruit_choice3.png","[0,1,2]","2","2","2","images/fruit_choice2.png","-1","fruit","","orange","2","0"
"html-keyboard-response","178","727992","0.0-9.0-2.0-0.46","1860","2","2","""event"",""trial"",""time""
""fullscreenenter"",""1"",""6026""
","
","
","""event"",""trial"",""time""
""fullscreenenter"",""1"",""6026""
","
","","","","","","null","<div style=""font-size:60px;"">+</div>","null","","fixation","","","","","","","","","","","","","",""
"learning-trial","179","732000","0.0-9.0-2.0-1.46","1860","2","2","""event"",""trial"",""time""
""fullscreenenter"",""1"",""6026""
","
","
","""event"",""trial"",""time""
""fullscreenenter"",""1"",""6026""
","
","","","","","","1256.8000001907349","images/orange3.png","","","learning","images/fruit_choice2.png","images/fruit_choice1.png","images/fruit_choice3.png","[1,0,2]","1","0","3","images/fruit_choice3.png","-1","fruit","","orange","2","0"
"html-keyboard-response","180","732503","0.0-9.0-2.0-0.47","1860","2","2","""event"",""trial"",""time""
""fullscreenenter"",""1"",""6026""
","
","
","""event"",""trial"",""time""
""fullscreenenter"",""1"",""6026""
","
","","","","","","null","<div style=""font-size:60px;"">+</div>","null","","fixation","","","","","","","","","","","","","",""
"learning-trial","181","736508","0.0-9.0-2.0-1.47","1860","2","2","""event"",""trial"",""time""
""fullscreenenter"",""1"",""6026""
","
","
","""event"",""trial"",""time""
""fullscreenenter"",""1"",""6026""
","
","","","","","","1622.5","images/orange5.png","","","learning","images/fruit_choice1.png","images/fruit_choice3.png","images/fruit_choice2.png","[0,2,1]","2","1","2","images/fruit_choice3.png","1","fruit","","orange","2","0"
"html-keyboard-response","182","737013","0.0-9.0-2.0-0.48","1860","2","2","""event"",""trial"",""time""
""fullscreenenter"",""1"",""6026""
","
","
","""event"",""trial"",""time""
""fullscreenenter"",""1"",""6026""
","
","","","","","","null","<div style=""font-size:60px;"">+</div>","null","","fixation","","","","","","","","","","","","","",""
"learning-trial","183","741017","0.0-9.0-2.0-1.48","1860","2","2","""event"",""trial"",""time""
""fullscreenenter"",""1"",""6026""
","
","
","""event"",""trial"",""time""
""fullscreenenter"",""1"",""6026""
","
","","","","","","1269.2999997138977","images/apple1.png","","","learning","images/fruit_choice2.png","images/fruit_choice3.png","images/fruit_choice1.png","[1,2,0]","2","1","2","images/fruit_choice3.png","1","fruit","","apple","2","0"
"html-keyboard-response","184","741524","0.0-9.0-2.0-0.49","1860","2","2","""event"",""trial"",""time""
""fullscreenenter"",""1"",""6026""
","
","
","""event"",""trial"",""time""
""fullscreenenter"",""1"",""6026""
","
","","","","","","null","<div style=""font-size:60px;"">+</div>","null","","fixation","","","","","","","","","","","","","",""
"learning-trial","185","745532","0.0-9.0-2.0-1.49","1860","2","2","""event"",""trial"",""time""
""fullscreenenter"",""1"",""6026""
","
","
","""event"",""trial"",""time""
""fullscreenenter"",""1"",""6026""
","
","","","","","","1246.4000000953674","images/straw3.png","","","learning","images/fruit_choice1.png","images/fruit_choice3.png","images/fruit_choice2.png","[0,2,1]","1","2","3","images/fruit_choice2.png","1","fruit","","straw","2","0"
"html-keyboard-response","186","746038","0.0-9.0-2.0-0.50","1860","2","2","""event"",""trial"",""time""
""fullscreenenter"",""1"",""6026""
","
","
","""event"",""trial"",""time""
""fullscreenenter"",""1"",""6026""
","
","","","","","","null","<div style=""font-size:60px;"">+</div>","null","","fixation","","","","","","","","","","","","","",""
"learning-trial","187","750043","0.0-9.0-2.0-1.50","1860","2","2","""event"",""trial"",""time""
""fullscreenenter"",""1"",""6026""
","
","
","""event"",""trial"",""time""
""fullscreenenter"",""1"",""6026""
","
","","","","","","2041.5","images/orange5.png","","","learning","images/fruit_choice3.png","images/fruit_choice1.png","images/fruit_choice2.png","[2,0,1]","2","0","1","images/fruit_choice3.png","1","fruit","","orange","2","0"
"html-keyboard-response","188","750548","0.0-9.0-2.0-0.51","1860","2","2","""event"",""trial"",""time""
""fullscreenenter"",""1"",""6026""
","
","
","""event"",""trial"",""time""
""fullscreenenter"",""1"",""6026""
","
","","","","","","null","<div style=""font-size:60px;"">+</div>","null","","fixation","","","","","","","","","","","","","",""
"learning-trial","189","754556","0.0-9.0-2.0-1.51","1860","2","2","""event"",""trial"",""time""
""fullscreenenter"",""1"",""6026""
","
","
","""event"",""trial"",""time""
""fullscreenenter"",""1"",""6026""
","
","","","","","","942.3999996185303","images/straw3.png","","","learning","images/fruit_choice3.png","images/fruit_choice1.png","images/fruit_choice2.png","[2,0,1]","1","2","3","images/fruit_choice2.png","1","fruit","","straw","2","0"
"html-keyboard-response","190","755062","0.0-9.0-2.0-0.52","1860","2","2","""event"",""trial"",""time""
""fullscreenenter"",""1"",""6026""
","
","
","""event"",""trial"",""time""
""fullscreenenter"",""1"",""6026""
","
","","","","","","null","<div style=""font-size:60px;"">+</div>","null","","fixation","","","","","","","","","","","","","",""
"learning-trial","191","759068","0.0-9.0-2.0-1.52","1860","2","2","""event"",""trial"",""time""
""fullscreenenter"",""1"",""6026""
","
","
","""event"",""trial"",""time""
""fullscreenenter"",""1"",""6026""
","
","","","","","","997.5999999046326","images/orange5.png","","","learning","images/fruit_choice3.png","images/fruit_choice1.png","images/fruit_choice2.png","[2,0,1]","2","0","1","images/fruit_choice3.png","1","fruit","","orange","2","0"
"html-keyboard-response","192","759573","0.0-9.0-2.0-0.53","1860","2","2","""event"",""trial"",""time""
""fullscreenenter"",""1"",""6026""
","
","
","""event"",""trial"",""time""
""fullscreenenter"",""1"",""6026""
","
","","","","","","null","<div style=""font-size:60px;"">+</div>","null","","fixation","","","","","","","","","","","","","",""
"learning-trial","193","763582","0.0-9.0-2.0-1.53","1860","2","2","""event"",""trial"",""time""
""fullscreenenter"",""1"",""6026""
","
","
","""event"",""trial"",""time""
""fullscreenenter"",""1"",""6026""
","
","","","","","","1168.7999997138977","images/straw3.png","","","learning","images/fruit_choice1.png","images/fruit_choice2.png","images/fruit_choice3.png","[0,1,2]","1","1","2","images/fruit_choice2.png","1","fruit","","straw","2","0"
"html-keyboard-response","194","764087","0.0-9.0-2.0-0.54","1860","2","2","""event"",""trial"",""time""
""fullscreenenter"",""1"",""6026""
","
","
","""event"",""trial"",""time""
""fullscreenenter"",""1"",""6026""
","
","","","","","","null","<div style=""font-size:60px;"">+</div>","null","","fixation","","","","","","","","","","","","","",""
"learning-trial","195","768093","0.0-9.0-2.0-1.54","1860","2","2","""event"",""trial"",""time""
""fullscreenenter"",""1"",""6026""
","
","
","""event"",""trial"",""time""
""fullscreenenter"",""1"",""6026""
","
","","","","","","2146.800000190735","images/orange1.png","","","learning","images/fruit_choice3.png","images/fruit_choice1.png","images/fruit_choice2.png","[2,0,1]","0","1","1","images/fruit_choice3.png","-1","fruit","","orange","2","0"
"html-keyboard-response","196","768598","0.0-9.0-2.0-0.55","1860","2","2","""event"",""trial"",""time""
""fullscreenenter"",""1"",""6026""
","
","
","""event"",""trial"",""time""
""fullscreenenter"",""1"",""6026""
","
","","","","","","null","<div style=""font-size:60px;"">+</div>","null","","fixation","","","","","","","","","","","","","",""
"learning-trial","197","772603","0.0-9.0-2.0-1.55","1860","2","2","""event"",""trial"",""time""
""fullscreenenter"",""1"",""6026""
","
","
","""event"",""trial"",""time""
""fullscreenenter"",""1"",""6026""
","
","","","","","","2160.300000190735","images/straw2.png","","","learning","images/fruit_choice3.png","images/fruit_choice2.png","images/fruit_choice1.png","[2,1,0]","0","2","3","images/fruit_choice1.png","1","fruit","","straw","2","0"
"html-keyboard-response","198","773108","0.0-9.0-2.0-0.56","1860","2","2","""event"",""trial"",""time""
""fullscreenenter"",""1"",""6026""
","
","
","""event"",""trial"",""time""
""fullscreenenter"",""1"",""6026""
","
","","","","","","null","<div style=""font-size:60px;"">+</div>","null","","fixation","","","","","","","","","","","","","",""
"learning-trial","199","777114","0.0-9.0-2.0-1.56","1860","2","2","""event"",""trial"",""time""
""fullscreenenter"",""1"",""6026""
","
","
","""event"",""trial"",""time""
""fullscreenenter"",""1"",""6026""
","
","","","","","","956.1999998092651","images/straw2.png","","","learning","images/fruit_choice3.png","images/fruit_choice1.png","images/fruit_choice2.png","[2,0,1]","0","1","2","images/fruit_choice1.png","1","fruit","","straw","2","0"
"html-keyboard-response","200","777619","0.0-9.0-2.0-0.57","1860","2","2","""event"",""trial"",""time""
""fullscreenenter"",""1"",""6026""
","
","
","""event"",""trial"",""time""
""fullscreenenter"",""1"",""6026""
","
","","","","","","null","<div style=""font-size:60px;"">+</div>","null","","fixation","","","","","","","","","","","","","",""
"learning-trial","201","781626","0.0-9.0-2.0-1.57","1860","2","2","""event"",""trial"",""time""
""fullscreenenter"",""1"",""6026""
","
","
","""event"",""trial"",""time""
""fullscreenenter"",""1"",""6026""
","
","","","","","","2255.199999809265","images/apple4.png","","","learning","images/fruit_choice3.png","images/fruit_choice2.png","images/fruit_choice1.png","[2,1,0]","1","1","1","images/fruit_choice3.png","-1","fruit","","apple","2","0"
"html-keyboard-response","202","782132","0.0-9.0-2.0-0.58","1860","2","2","""event"",""trial"",""time""
""fullscreenenter"",""1"",""6026""
","
","
","""event"",""trial"",""time""
""fullscreenenter"",""1"",""6026""
","
","","","","","","null","<div style=""font-size:60px;"">+</div>","null","","fixation","","","","","","","","","","","","","",""
"learning-trial","203","786140","0.0-9.0-2.0-1.58","1860","2","2","""event"",""trial"",""time""
""fullscreenenter"",""1"",""6026""
","
","
","""event"",""trial"",""time""
""fullscreenenter"",""1"",""6026""
","
","","","","","","2537.199999809265","images/orange1.png","","","learning","images/fruit_choice3.png","images/fruit_choice1.png","images/fruit_choice2.png","[2,0,1]","0","1","2","images/fruit_choice1.png","-1","fruit","","orange","2","0"
"html-keyboard-response","204","786647","0.0-9.0-2.0-0.59","1860","2","2","""event"",""trial"",""time""
""fullscreenenter"",""1"",""6026""
","
","
","""event"",""trial"",""time""
""fullscreenenter"",""1"",""6026""
","
","","","","","","null","<div style=""font-size:60px;"">+</div>","null","","fixation","","","","","","","","","","","","","",""
"learning-trial","205","790654","0.0-9.0-2.0-1.59","1860","2","2","""event"",""trial"",""time""
""fullscreenenter"",""1"",""6026""
","
","
","""event"",""trial"",""time""
""fullscreenenter"",""1"",""6026""
","
","","","","","","1161.7000002861023","images/apple1.png","","","learning","images/fruit_choice1.png","images/fruit_choice2.png","images/fruit_choice3.png","[0,1,2]","2","2","3","images/fruit_choice3.png","1","fruit","","apple","2","0"
"html-keyboard-response","206","791159","0.0-9.0-2.0-0.60","1860","2","2","""event"",""trial"",""time""
""fullscreenenter"",""1"",""6026""
","
","
","""event"",""trial"",""time""
""fullscreenenter"",""1"",""6026""
","
","","","","","","null","<div style=""font-size:60px;"">+</div>","null","","fixation","","","","","","","","","","","","","",""
"learning-trial","207","795167","0.0-9.0-2.0-1.60","1860","2","2","""event"",""trial"",""time""
""fullscreenenter"",""1"",""6026""
","
","
","""event"",""trial"",""time""
""fullscreenenter"",""1"",""6026""
","
","","","","","","1432.4000000953674","images/orange1.png","","","learning","images/fruit_choice2.png","images/fruit_choice3.png","images/fruit_choice1.png","[1,2,0]","0","2","1","images/fruit_choice2.png","-1","fruit","","orange","2","0"
"html-keyboard-response","208","795668","0.0-9.0-2.0-0.61","1860","2","2","""event"",""trial"",""time""
""fullscreenenter"",""1"",""6026""
","
","
","""event"",""trial"",""time""
""fullscreenenter"",""1"",""6026""
","
","","","","","","null","<div style=""font-size:60px;"">+</div>","null","","fixation","","","","","","","","","","","","","",""
"learning-trial","209","799672","0.0-9.0-2.0-1.61","1860","2","2","""event"",""trial"",""time""
""fullscreenenter"",""1"",""6026""
","
","
","""event"",""trial"",""time""
""fullscreenenter"",""1"",""6026""
","
","","","","","","1319.2000002861023","images/straw2.png","","","learning","images/fruit_choice2.png","images/fruit_choice3.png","images/fruit_choice1.png","[1,2,0]","0","2","3","images/fruit_choice1.png","1","fruit","","straw","2","0"
"html-keyboard-response","210","800176","0.0-9.0-2.0-0.62","1860","2","2","""event"",""trial"",""time""
""fullscreenenter"",""1"",""6026""
","
","
","""event"",""trial"",""time""
""fullscreenenter"",""1"",""6026""
","
","","","","","","null","<div style=""font-size:60px;"">+</div>","null","","fixation","","","","","","","","","","","","","",""
"learning-trial","211","804182","0.0-9.0-2.0-1.62","1860","2","2","""event"",""trial"",""time""
""fullscreenenter"",""1"",""6026""
","
","
","""event"",""trial"",""time""
""fullscreenenter"",""1"",""6026""
","
","","","","","","2348.4000000953674","images/orange3.png","","","learning","images/fruit_choice1.png","images/fruit_choice3.png","images/fruit_choice2.png","[0,2,1]","1","2","3","images/fruit_choice2.png","1","fruit","","orange","2","0"
"html-keyboard-response","212","804687","0.0-9.0-2.0-0.63","1860","2","2","""event"",""trial"",""time""
""fullscreenenter"",""1"",""6026""
","
","
","""event"",""trial"",""time""
""fullscreenenter"",""1"",""6026""
","
","","","","","","null","<div style=""font-size:60px;"">+</div>","null","","fixation","","","","","","","","","","","","","",""
"learning-trial","213","808695","0.0-9.0-2.0-1.63","1860","2","2","""event"",""trial"",""time""
""fullscreenenter"",""1"",""6026""
","
","
","""event"",""trial"",""time""
""fullscreenenter"",""1"",""6026""
","
","","","","","","2253.699999809265","images/apple4.png","","","learning","images/fruit_choice1.png","images/fruit_choice3.png","images/fruit_choice2.png","[0,2,1]","1","2","3","images/fruit_choice2.png","1","fruit","","apple","2","0"
"html-keyboard-response","214","809197","0.0-9.0-2.0-0.64","1860","2","2","""event"",""trial"",""time""
""fullscreenenter"",""1"",""6026""
","
","
","""event"",""trial"",""time""
""fullscreenenter"",""1"",""6026""
","
","","","","","","null","<div style=""font-size:60px;"">+</div>","null","","fixation","","","","","","","","","","","","","",""
"learning-trial","215","813204","0.0-9.0-2.0-1.64","1860","2","2","""event"",""trial"",""time""
""fullscreenenter"",""1"",""6026""
","
","
","""event"",""trial"",""time""
""fullscreenenter"",""1"",""6026""
","
","","","","","","920.0999999046326","images/apple4.png","","","learning","images/fruit_choice2.png","images/fruit_choice1.png","images/fruit_choice3.png","[1,0,2]","1","0","1","images/fruit_choice2.png","1","fruit","","apple","2","0"
"html-keyboard-response","216","813708","0.0-9.0-2.0-0.65","1860","2","2","""event"",""trial"",""time""
""fullscreenenter"",""1"",""6026""
","
","
","""event"",""trial"",""time""
""fullscreenenter"",""1"",""6026""
","
","","","","","","null","<div style=""font-size:60px;"">+</div>","null","","fixation","","","","","","","","","","","","","",""
"learning-trial","217","817715","0.0-9.0-2.0-1.65","1860","2","2","""event"",""trial"",""time""
""fullscreenenter"",""1"",""6026""
","
","
","""event"",""trial"",""time""
""fullscreenenter"",""1"",""6026""
","
","","","","","","3499.300000190735","images/orange1.png","","","learning","images/fruit_choice2.png","images/fruit_choice1.png","images/fruit_choice3.png","[1,0,2]","0","1","3","images/fruit_choice3.png","-1","fruit","","orange","2","0"
"html-keyboard-response","218","818218","0.0-9.0-2.0-0.66","1860","2","2","""event"",""trial"",""time""
""fullscreenenter"",""1"",""6026""
","
","
","""event"",""trial"",""time""
""fullscreenenter"",""1"",""6026""
","
","","","","","","null","<div style=""font-size:60px;"">+</div>","null","","fixation","","","","","","","","","","","","","",""
"learning-trial","219","822224","0.0-9.0-2.0-1.66","1860","2","2","""event"",""trial"",""time""
""fullscreenenter"",""1"",""6026""
","
","
","""event"",""trial"",""time""
""fullscreenenter"",""1"",""6026""
","
","","","","","","1201.4000000953674","images/orange1.png","","","learning","images/fruit_choice1.png","images/fruit_choice3.png","images/fruit_choice2.png","[0,2,1]","0","0","2","images/fruit_choice3.png","-1","fruit","","orange","2","0"
"html-keyboard-response","220","822730","0.0-9.0-2.0-0.67","1860","2","2","""event"",""trial"",""time""
""fullscreenenter"",""1"",""6026""
","
","
","""event"",""trial"",""time""
""fullscreenenter"",""1"",""6026""
","
","","","","","","null","<div style=""font-size:60px;"">+</div>","null","","fixation","","","","","","","","","","","","","",""
"learning-trial","221","826736","0.0-9.0-2.0-1.67","1860","2","2","""event"",""trial"",""time""
""fullscreenenter"",""1"",""6026""
","
","
","""event"",""trial"",""time""
""fullscreenenter"",""1"",""6026""
","
","","","","","","1542.9000000953674","images/apple2.png","","","learning","images/fruit_choice1.png","images/fruit_choice3.png","images/fruit_choice2.png","[0,2,1]","0","0","3","images/fruit_choice2.png","-1","fruit","","apple","2","0"
"html-keyboard-response","222","827239","0.0-9.0-2.0-0.68","1860","2","2","""event"",""trial"",""time""
""fullscreenenter"",""1"",""6026""
","
","
","""event"",""trial"",""time""
""fullscreenenter"",""1"",""6026""
","
","","","","","","null","<div style=""font-size:60px;"">+</div>","null","","fixation","","","","","","","","","","","","","",""
"learning-trial","223","831247","0.0-9.0-2.0-1.68","1860","2","2","""event"",""trial"",""time""
""fullscreenenter"",""1"",""6026""
","
","
","""event"",""trial"",""time""
""fullscreenenter"",""1"",""6026""
","
","","","","","","1106.2999997138977","images/apple2.png","","","learning","images/fruit_choice3.png","images/fruit_choice2.png","images/fruit_choice1.png","[2,1,0]","0","2","3","images/fruit_choice1.png","1","fruit","","apple","2","0"
"html-keyboard-response","224","831752","0.0-9.0-2.0-0.69","1860","2","2","""event"",""trial"",""time""
""fullscreenenter"",""1"",""6026""
","
","
","""event"",""trial"",""time""
""fullscreenenter"",""1"",""6026""
","
","","","","","","null","<div style=""font-size:60px;"">+</div>","null","","fixation","","","","","","","","","","","","","",""
"learning-trial","225","835761","0.0-9.0-2.0-1.69","1860","2","2","""event"",""trial"",""time""
""fullscreenenter"",""1"",""6026""
","
","
","""event"",""trial"",""time""
""fullscreenenter"",""1"",""6026""
","
","","","","","","1259.2000002861023","images/orange5.png","","","learning","images/fruit_choice3.png","images/fruit_choice2.png","images/fruit_choice1.png","[2,1,0]","2","0","1","images/fruit_choice3.png","1","fruit","","orange","2","0"
"html-keyboard-response","226","836263","0.0-9.0-2.0-0.70","1860","2","2","""event"",""trial"",""time""
""fullscreenenter"",""1"",""6026""
","
","
","""event"",""trial"",""time""
""fullscreenenter"",""1"",""6026""
","
","","","","","","null","<div style=""font-size:60px;"">+</div>","null","","fixation","","","","","","","","","","","","","",""
"learning-trial","227","840271","0.0-9.0-2.0-1.70","1860","2","2","""event"",""trial"",""time""
""fullscreenenter"",""1"",""6026""
","
","
","""event"",""trial"",""time""
""fullscreenenter"",""1"",""6026""
","
","","","","","","1128.5999999046326","images/straw2.png","","","learning","images/fruit_choice2.png","images/fruit_choice3.png","images/fruit_choice1.png","[1,2,0]","0","2","3","images/fruit_choice1.png","1","fruit","","straw","2","0"
"html-keyboard-response","228","840776","0.0-9.0-2.0-0.71","1860","2","2","""event"",""trial"",""time""
""fullscreenenter"",""1"",""6026""
","
","
","""event"",""trial"",""time""
""fullscreenenter"",""1"",""6026""
","
","","","","","","null","<div style=""font-size:60px;"">+</div>","null","","fixation","","","","","","","","","","","","","",""
"learning-trial","229","844782","0.0-9.0-2.0-1.71","1860","2","2","""event"",""trial"",""time""
""fullscreenenter"",""1"",""6026""
","
","
","""event"",""trial"",""time""
""fullscreenenter"",""1"",""6026""
","
","","","","","","1981.3000001907349","images/orange3.png","","","learning","images/fruit_choice2.png","images/fruit_choice1.png","images/fruit_choice3.png","[1,0,2]","1","0","1","images/fruit_choice2.png","1","fruit","","orange","2","0"
"html-button-response","230","861861","0.0-9.0-3.0","1860","2","2","""event"",""trial"",""time""
""fullscreenenter"",""1"",""6026""
","
","
","""event"",""trial"",""time""
""fullscreenenter"",""1"",""6026""
","
","","","","","","17075.200000286102","<p> You have completed the round! <p> In this round, you earned -12 points! </p>","0","","break","","","","","","","","","","","","","",""
"html-button-response","231","863121","0.0-10.0","1860","2","2","""event"",""trial"",""time""
""fullscreenenter"",""1"",""6026""
","
","
","""event"",""trial"",""time""
""fullscreenenter"",""1"",""6026""
","
","","","","","","1257.9000000953674","<p> Now it's time to play another round. </p>","0","","transition_screen","","","","","","","","","","","","","",""
"preload","232","867548","0.0-11.0-0.0","1860","2","2","""event"",""trial"",""time""
""fullscreenenter"",""1"",""6026""
","
","
","""event"",""trial"",""time""
""fullscreenenter"",""1"",""6026""
","
","true","false","[]","[]","[]","","","","","","","","","","","","","","","","","","",""
"learning-instructions","233","876656","0.0-11.0-1.0-0.0","1860","2","2","""event"",""trial"",""time""
""fullscreenenter"",""1"",""6026""
","
","
","""event"",""trial"",""time""
""fullscreenenter"",""1"",""6026""
","
","","","","","","926.8000001907349","<p> Your goal in this round is to deliver furniture to three different buildings. </p><p> You will need to deliver many pieces of furniture. </p></div>","","0","instructions","","","","","","","","","","","","","",""
"learning-instructions","234","885875","0.0-11.0-1.0-0.1","1860","2","2","""event"",""trial"",""time""
""fullscreenenter"",""1"",""6026""
","
","
","""event"",""trial"",""time""
""fullscreenenter"",""1"",""6026""
","
","","","","","","1786.7999997138977","<p> On each turn, you will see a picture of a furniture item and three different buildings.  </p><p> You need to select the building that you want to deliver the furniture to.  </p>","","0","instructions","","","","","","","","","","","","","",""
"learning-instructions","235","895292","0.0-11.0-1.0-0.2","1860","2","2","""event"",""trial"",""time""
""fullscreenenter"",""1"",""6026""
","
","
","""event"",""trial"",""time""
""fullscreenenter"",""1"",""6026""
","
","","","","","","1126.3000001907349","<p> You can select the building on the left by pressing 1, the building in the middle by pressing 2, and the building on the right by pressing 3.  </p><br><div class=""choice-instructions-grid""> <div class=""choice-option""><img src=""images/furniture_choice1.png"" class=""choice-option-img"" stage=""instructions"" position=""0"" ><div class=""choice-option-text""> Press ""1."" </div></div><div class=""choice-option""><img src=""images/furniture_choice2.png"" class=""choice-option-img"" stage=""instructions"" position=""1"" ><div class=""choice-option-text""> Press ""2."" </div></div><div class=""choice-option""><img src=""images/furniture_choice3.png"" class=""choice-option-img"" stage=""instructions"" position=""2"" ><div class=""choice-option-text""> Press ""3."" </div></div></div>","","0","instructions","","","","","","","","","","","","","",""
"learning-instructions","236","902350","0.0-11.0-1.0-0.3","1860","2","2","""event"",""trial"",""time""
""fullscreenenter"",""1"",""6026""
","
","
","""event"",""trial"",""time""
""fullscreenenter"",""1"",""6026""
","
