"trial_type","trial_index","time_elapsed","internal_node_id","subject_id","condition","task_version","interactions","blur_events","focus_events","fullscreenenter_events","fullscreenexit_events","success","timeout","failed_images","failed_audio","failed_video","rt","stimulus","response","button_pressed","task_part","left_choice","middle_choice","right_choice","choice_positions","correct_response","correct_position","key_press","option_selected","points","task_block","correct","stim_cat","block_condition","block_number"
"pavlovia","0","5","0.0-0.0","1798","1","2","""event"",""trial"",""time""
""fullscreenenter"",""1"",""2876""
","
","
","""event"",""trial"",""time""
""fullscreenenter"",""1"",""2876""
","
","","","","","","","","","","","","","","","","","","","","","","","",""
"fullscreen","1","3868","0.0-1.0","1798","1","2","""event"",""trial"",""time""
""fullscreenenter"",""1"",""2876""
","
","
","""event"",""trial"",""time""
""fullscreenenter"",""1"",""2876""
","
","true","","","","","","","","","","","","","","","","","","","","","","",""
"preload","2","7043","0.0-2.0","1798","1","2","""event"",""trial"",""time""
""fullscreenenter"",""1"",""2876""
","
","
","""event"",""trial"",""time""
""fullscreenenter"",""1"",""2876""
","
","true","false","[]","[]","[]","","","","","","","","","","","","","","","","","","",""
"audio-keyboard-response","3","10820","0.0-3.0","1798","1","2","""event"",""trial"",""time""
""fullscreenenter"",""1"",""2876""
","
","
","""event"",""trial"",""time""
""fullscreenenter"",""1"",""2876""
","
","","","","","","3776","audio/beep_loop.wav"," ","","","","","","","","","","","","","","","",""
"audio-button-response","4","16355","0.0-4.0","1798","1","2","""event"",""trial"",""time""
""fullscreenenter"",""1"",""2876""
","
","
","""event"",""trial"",""time""
""fullscreenenter"",""1"",""2876""
","
","","","","","","5536","audio/shark.wav","4","","","","","","","","","","","","","","","",""
"audio-button-response","5","18676","0.0-5.0","1798","1","2","""event"",""trial"",""time""
""fullscreenenter"",""1"",""2876""
","
","
","""event"",""trial"",""time""
""fullscreenenter"",""1"",""2876""
","
","","","","","","1312","audio/turtle.wav","1","","","","","","","","","","","","","","","",""
"preload","6","31658","0.0-6.0","1798","1","2","""event"",""trial"",""time""
""fullscreenenter"",""1"",""2876""
","
","
","""event"",""trial"",""time""
""fullscreenenter"",""1"",""2876""
","
","true","false","[]","[]","[]","","","","","","","","","","","","","","","","","","",""
"html-keyboard-response","7","34157","0.0-7.0","1798","1","2","""event"",""trial"",""time""
""fullscreenenter"",""1"",""2876""
","
","
","""event"",""trial"",""time""
""fullscreenenter"",""1"",""2876""
","
","","","","","","2496.4000000003725","Welcome to the experiment. Press any key to begin and to advance the instructions.","h","","","","","","","","","","","","","","","",""
"learning-instructions","8","44000","0.0-8.0-0.0-0.0","1798","1","2","""event"",""trial"",""time""
""fullscreenenter"",""1"",""2876""
","
","
","""event"",""trial"",""time""
""fullscreenenter"",""1"",""2876""
","
","","","","","","2089","<p> Welcome! Today you are going to play 6 different rounds of a decision-making game. </p><p> Use the mouse to click next to continue. </p>","","0","instructions","","","","","","","","","","","","","",""
"learning-instructions","9","47892","0.0-8.0-0.0-0.1","1798","1","2","""event"",""trial"",""time""
""fullscreenenter"",""1"",""2876""
","
","
","""event"",""trial"",""time""
""fullscreenenter"",""1"",""2876""
","
","","","","","","896.2999999988824","<p> You will start with a practice round to learn the rules. </p>","","0","instructions","","","","","","","","","","","","","",""
"learning-instructions","10","56750","0.0-8.0-0.0-0.2","1798","1","2","""event"",""trial"",""time""
""fullscreenenter"",""1"",""2876""
","
","
","""event"",""trial"",""time""
""fullscreenenter"",""1"",""2876""
","
","","","","","","1129.2999999988824","<p> Your goal in this round is to deliver sports equipment to three different parks. </p><p> You will need to deliver many types of equipment. </p></div>","","0","instructions","","","","","","","","","","","","","",""
"learning-instructions","11","66263","0.0-8.0-0.0-0.3","1798","1","2","""event"",""trial"",""time""
""fullscreenenter"",""1"",""2876""
","
","
","""event"",""trial"",""time""
""fullscreenenter"",""1"",""2876""
","
","","","","","","1036.5","<p> On each turn, you will see one piece of sports equipment and three different parks.  </p><p> You need to select which park to deliver the equipment to.  </p>","","0","instructions","","","","","","","","","","","","","",""
"learning-instructions","12","83932","0.0-8.0-0.0-0.4","1798","1","2","""event"",""trial"",""time""
""fullscreenenter"",""1"",""2876""
","
","
","""event"",""trial"",""time""
""fullscreenenter"",""1"",""2876""
","
","","","","","","4386.199999999255","<p> You can select the park on the left by pressing the '1' key on your keyboard. <br>You can select the park in the middle by pressing the '2' key on your keyboard. <br>You can select the park on the right by pressing the '3' key on your keyboard.  </p><br><div class=""choice-instructions-grid""> <div class=""choice-option""><img src=""images/park1.png"" class=""choice-option-img"" stage=""instructions"" position=""0"" ><div class=""choice-option-text""> Press ""1."" </div></div><div class=""choice-option""><img src=""images/park2.png"" class=""choice-option-img"" stage=""instructions"" position=""1"" ><div class=""choice-option-text""> Press ""2."" </div></div><div class=""choice-option""><img src=""images/park3.png"" class=""choice-option-img"" stage=""instructions"" position=""2"" ><div class=""choice-option-text""> Press ""3."" </div></div></div>","","0","instructions","","","","","","","","","","","","","",""
"learning-instructions","13","90559","0.0-8.0-0.0-0.5","1798","1","2","""event"",""trial"",""time""
""fullscreenenter"",""1"",""2876""
","
","
","""event"",""trial"",""time""
""fullscreenenter"",""1"",""2876""
","
","","","","","","1248.5","<p> If the kids in the park you chose like the equipment, they will be very happy! </p><div style='float: center;'><img src='images/check.png' width = '200' height = '200'></img>","","0","instructions","","","","","","","","","","","","","",""
"learning-instructions","14","96686","0.0-8.0-0.0-0.6","1798","1","2","""event"",""trial"",""time""
""fullscreenenter"",""1"",""2876""
","
","
","""event"",""trial"",""time""
""fullscreenenter"",""1"",""2876""
","
","","","","","","551.6999999992549","<p> But, if the kids in the park you chose do not like the equipment, they will be sad. </p><div style='float: center;'><img src='images/x.png' width = '200' height = '200'></img>","","0","instructions","","","","","","","","","","","","","",""
"learning-instructions","15","104997","0.0-8.0-0.0-0.7","1798","1","2","""event"",""trial"",""time""
""fullscreenenter"",""1"",""2876""
","
","
","""event"",""trial"",""time""
""fullscreenenter"",""1"",""2876""
","
","","","","","","1891","<p> Importantly, the kids in each park like some pieces of sports equipment more than others. </p>","","0","instructions","","","","","","","","","","","","","",""
"learning-instructions","16","111840","0.0-8.0-0.0-0.8","1798","1","2","""event"",""trial"",""time""
""fullscreenenter"",""1"",""2876""
","
","
","""event"",""trial"",""time""
""fullscreenenter"",""1"",""2876""
","
","","","","","","790.4000000003725","<p> If you choose the best park for each piece of equipment, the kids there will usually be happy. </p>","","0","instructions","","","","","","","","","","","","","",""
"learning-instructions","17","120170","0.0-8.0-0.0-0.9","1798","1","2","""event"",""trial"",""time""
""fullscreenenter"",""1"",""2876""
","
","
","""event"",""trial"",""time""
""fullscreenenter"",""1"",""2876""
","
","","","","","","1689.5999999996275","<p> However, even if you choose the best park for the equipment, the kids may sometimes be sad. </p>","","0","instructions","","","","","","","","","","","","","",""
"learning-instructions","18","127642","0.0-8.0-0.0-0.10","1798","1","2","""event"",""trial"",""time""
""fullscreenenter"",""1"",""2876""
","
","
","""event"",""trial"",""time""
""fullscreenenter"",""1"",""2876""
","
","","","","","","247.69999999925494","<p> Similarly, even if you choose the <i>wrong</i> park for the equipment, the kids may still be happy sometimes.","","0","instructions","","","","","","","","","","","","","",""
"learning-instructions","19","134984","0.0-8.0-0.0-0.11","1798","1","2","""event"",""trial"",""time""
""fullscreenenter"",""1"",""2876""
","
","
","""event"",""trial"",""time""
""fullscreenenter"",""1"",""2876""
","
","","","","","","2292.2000000011176","<p> For example, the best park for this soccer ball is this one.<div style='float: center;'><img src='images/i1.png' width = '500' height = '268'></img>","","0","instructions","","","","","","","","","","","","","",""
"learning-instructions","20","141462","0.0-8.0-0.0-0.12","1798","1","2","""event"",""trial"",""time""
""fullscreenenter"",""1"",""2876""
","
","
","""event"",""trial"",""time""
""fullscreenenter"",""1"",""2876""
","
","","","","","","1201.1000000014901","<p> Let's see what happens if you choose this park for the soccer ball five times.","","0","instructions","","","","","","","","","","","","","",""
"learning-instructions","21","145273","0.0-8.0-0.0-0.13","1798","1","2","""event"",""trial"",""time""
""fullscreenenter"",""1"",""2876""
","
","
","""event"",""trial"",""time""
""fullscreenenter"",""1"",""2876""
","
","","","","","","1642.4000000003725","<p> The kids are happy.<div style='float: left;'><img src='images/i2.png' width = '640' height = '360'></img>","","0","instructions","","","","","","","","","","","","","",""
"learning-instructions","22","148180","0.0-8.0-0.0-0.14","1798","1","2","""event"",""trial"",""time""
""fullscreenenter"",""1"",""2876""
","
","
","""event"",""trial"",""time""
""fullscreenenter"",""1"",""2876""
","
","","","","","","743.5","<p> The kids are happy.<div style='float: left;'><img src='images/i3.png' width = '640' height = '360'></img>","","0","instructions","","","","","","","","","","","","","",""
"learning-instructions","23","150845","0.0-8.0-0.0-0.15","1798","1","2","""event"",""trial"",""time""
""fullscreenenter"",""1"",""2876""
","
","
","""event"",""trial"",""time""
""fullscreenenter"",""1"",""2876""
","
","","","","","","498.2999999988824","<p> The kids are happy.<div style='float: left;'><img src='images/i4.png' width = '640' height = '360'></img>","","0","instructions","","","","","","","","","","","","","",""
"learning-instructions","24","153709","0.0-8.0-0.0-0.16","1798","1","2","""event"",""trial"",""time""
""fullscreenenter"",""1"",""2876""
","
","
","""event"",""trial"",""time""
""fullscreenenter"",""1"",""2876""
","
","","","","","","664.6999999992549","<p> The kids are sad.<div style='float: left;'><img src='images/i5.png' width = '640' height = '360'></img>","","0","instructions","","","","","","","","","","","","","",""
"learning-instructions","25","156907","0.0-8.0-0.0-0.17","1798","1","2","""event"",""trial"",""time""
""fullscreenenter"",""1"",""2876""
","
","
","""event"",""trial"",""time""
""fullscreenenter"",""1"",""2876""
","
","","","","","","1027.300000000745","<p> The kids are happy.<div style='float: left;'><img src='images/i6.png' width = '640' height = '360'></img>","","0","instructions","","","","","","","","","","","","","",""
"learning-instructions","26","164611","0.0-8.0-0.0-0.18","1798","1","2","""event"",""trial"",""time""
""fullscreenenter"",""1"",""2876""
","
","
","""event"",""trial"",""time""
""fullscreenenter"",""1"",""2876""
","
","","","","","","436.3999999985099","<p> As you can see, selecting that park for the soccer ball made the kids happy most of the time, but not all the time.","","0","instructions","","","","","","","","","","","","","",""
"learning-instructions","27","171330","0.0-8.0-0.0-0.19","1798","1","2","""event"",""trial"",""time""
""fullscreenenter"",""1"",""2876""
","
","
","""event"",""trial"",""time""
""fullscreenenter"",""1"",""2876""
","
","","","","","","726.5","<p> Now let's see what happens if you choose a DIFFERENT park for the soccer ball 5 times.","","0","instructions","","","","","","","","","","","","","",""
"learning-instructions","28","174560","0.0-8.0-0.0-0.20","1798","1","2","""event"",""trial"",""time""
""fullscreenenter"",""1"",""2876""
","
","
","""event"",""trial"",""time""
""fullscreenenter"",""1"",""2876""
","
","","","","","","1034.699999999255","<p> The kids are sad.<div style='float: left;'><img src='images/i7.png' width = '640' height = '360'></img>","","0","instructions","","","","","","","","","","","","","",""
"learning-instructions","29","178010","0.0-8.0-0.0-0.21","1798","1","2","""event"",""trial"",""time""
""fullscreenenter"",""1"",""2876""
","
","
","""event"",""trial"",""time""
""fullscreenenter"",""1"",""2876""
","
","","","","","","1255","<p> The kids are sad.<div style='float: left;'><img src='images/i8.png' width = '640' height = '360'></img>","","0","instructions","","","","","","","","","","","","","",""
"learning-instructions","30","180434","0.0-8.0-0.0-0.22","1798","1","2","""event"",""trial"",""time""
""fullscreenenter"",""1"",""2876""
","
","
","""event"",""trial"",""time""
""fullscreenenter"",""1"",""2876""
","
","","","","","","256.40000000037253","<p> The kids are happy.<div style='float: left;'><img src='images/i9.png' width = '640' height = '360'></img>","","0","instructions","","","","","","","","","","","","","",""
"learning-instructions","31","183170","0.0-8.0-0.0-0.23","1798","1","2","""event"",""trial"",""time""
""fullscreenenter"",""1"",""2876""
","
","
","""event"",""trial"",""time""
""fullscreenenter"",""1"",""2876""
","
","","","","","","540.0999999996275","<p> The kids are sad.<div style='float: left;'><img src='images/i10.png' width = '640' height = '360'></img>","","0","instructions","","","","","","","","","","","","","",""
"learning-instructions","32","186559","0.0-8.0-0.0-0.24","1798","1","2","""event"",""trial"",""time""
""fullscreenenter"",""1"",""2876""
","
","
","""event"",""trial"",""time""
""fullscreenenter"",""1"",""2876""
","
","","","","","","1189.199999999255","<p> The kids are sad.<div style='float: left;'><img src='images/i11.png' width = '640' height = '360'></img>","","0","instructions","","","","","","","","","","","","","",""
"learning-instructions","33","196065","0.0-8.0-0.0-0.25","1798","1","2","""event"",""trial"",""time""
""fullscreenenter"",""1"",""2876""
","
","
","""event"",""trial"",""time""
""fullscreenenter"",""1"",""2876""
","
","","","","","","1387.5","<p> As you can see, selecting the wrong park for the soccer ball made the kids sad most of the time, but not all the time.","","0","instructions","","","","","","","","","","","","","",""
"learning-instructions","34","205910","0.0-8.0-0.0-0.26","1798","1","2","""event"",""trial"",""time""
""fullscreenenter"",""1"",""2876""
","
","
","""event"",""trial"",""time""
""fullscreenenter"",""1"",""2876""
","
","","","","","","742","<p> The different pieces of equipment belong in different parks. You need to try to learn which is the best park for each piece of equipment.","","0","instructions","","","","","","","","","","","","","",""
"learning-instructions","35","222777","0.0-8.0-0.0-0.27","1798","1","2","""event"",""trial"",""time""
""fullscreenenter"",""1"",""2876""
","
","
","""event"",""trial"",""time""
""fullscreenenter"",""1"",""2876""
","
","","","","","","487.40000000037253","<p> Try to choose the best park for each piece of equipment, because you will <b> WIN </b> 1 point for each time you make the kids happy and <b>LOSE</b> 1 point for each time you make them sad. </p><p> Remember, if you make the best choice, you will win 1 point most of the time, but not all the time. </p>","","0","instructions","","","","","","","","","","","","","",""
"learning-instructions","36","228841","0.0-8.0-0.0-0.28","1798","1","2","""event"",""trial"",""time""
""fullscreenenter"",""1"",""2876""
","
","
","""event"",""trial"",""time""
""fullscreenenter"",""1"",""2876""
","
","","","","","","592","<p> This is just a practice round, but in the real game, your bonus payment will depend on your total number of points.","","0","instructions","","","","","","","","","","","","","",""
"learning-instructions","37","240038","0.0-8.0-0.0-0.29","1798","1","2","""event"",""trial"",""time""
""fullscreenenter"",""1"",""2876""
","
","
","""event"",""trial"",""time""
""fullscreenenter"",""1"",""2876""
","
","","","","","","882","<p> The position where each park appears will change throughout the game. </p><p> The position where the park appears <i> does not </i> influence how likely the kids are to be happy or sad. </p>","","0","instructions","","","","","","","","","","","","","",""
"learning-instructions","38","252045","0.0-8.0-0.0-0.30","1798","1","2","""event"",""trial"",""time""
""fullscreenenter"",""1"",""2876""
","
","
","""event"",""trial"",""time""
""fullscreenenter"",""1"",""2876""
","
","","","","","","468.8999999985099","<p> You will have 4 seconds to make each choice. Try to respond before time runs out! </p><p> You will lose 1 point each time you do not make a response. </p>","","0","instructions","","","","","","","","","","","","","",""
"learning-instructions","39","259764","0.0-8.0-0.0-0.31","1798","1","2","""event"",""trial"",""time""
""fullscreenenter"",""1"",""2876""
","
","
","""event"",""trial"",""time""
""fullscreenenter"",""1"",""2876""
","
","","","","","","937","<p> Remember, you should use the 1, 2, and 3 keys to select the park for each piece of equipment. </p><br><div class=""choice-instructions-grid""> <div class=""choice-option""><img src=""images/park1.png"" class=""choice-option-img"" stage=""instructions"" position=""0"" ><div class=""choice-option-text""> Press ""1."" </div></div><div class=""choice-option""><img src=""images/park2.png"" class=""choice-option-img"" stage=""instructions"" position=""1"" ><div class=""choice-option-text""> Press ""2."" </div></div><div class=""choice-option""><img src=""images/park3.png"" class=""choice-option-img"" stage=""instructions"" position=""2"" ><div class=""choice-option-text""> Press ""3."" </div></div></div>","","0","instructions","","","","","","","","","","","","","",""
"html-button-response","40","264662","0.0-8.0-1.0","1798","1","2","""event"",""trial"",""time""
""fullscreenenter"",""1"",""2876""
","
","
","""event"",""trial"",""time""
""fullscreenenter"",""1"",""2876""
","
","","","","","","4794.5999999996275","<p> Ready to practice? </p>","0","","","","","","","","","","","","","","","",""
"html-keyboard-response","41","265265","0.0-8.0-2.0-0.0","1798","1","2","""event"",""trial"",""time""
""fullscreenenter"",""1"",""2876""
","
","
","""event"",""trial"",""time""
""fullscreenenter"",""1"",""2876""
","
","","","","","","null","<div style=""font-size:60px;"">+</div>","null","","fixation","","","","","","","","","","","","","",""
"learning-trial","42","269269","0.0-8.0-2.0-1.0","1798","1","2","""event"",""trial"",""time""
""fullscreenenter"",""1"",""2876""
","
","
","""event"",""trial"",""time""
""fullscreenenter"",""1"",""2876""
","
","","","","","","1928.300000000745","images/ball3.png","","","practice","images/park1.png","images/park2.png","images/park3.png","[0,1,2]","0","0","3","images/park3.png","-1","practice","","","",""
"html-keyboard-response","43","269770","0.0-8.0-2.0-0.1","1798","1","2","""event"",""trial"",""time""
""fullscreenenter"",""1"",""2876""
","
","
","""event"",""trial"",""time""
""fullscreenenter"",""1"",""2876""
","
","","","","","","null","<div style=""font-size:60px;"">+</div>","null","","fixation","","","","","","","","","","","","","",""
"learning-trial","44","273775","0.0-8.0-2.0-1.1","1798","1","2","""event"",""trial"",""time""
""fullscreenenter"",""1"",""2876""
","
","
","""event"",""trial"",""time""
""fullscreenenter"",""1"",""2876""
","
","","","","","","2629.300000000745","images/racket2.png","","","practice","images/park3.png","images/park1.png","images/park2.png","[2,0,1]","1","2","3","images/park2.png","1","practice","","","",""
"html-keyboard-response","45","274276","0.0-8.0-2.0-0.2","1798","1","2","""event"",""trial"",""time""
""fullscreenenter"",""1"",""2876""
","
","
","""event"",""trial"",""time""
""fullscreenenter"",""1"",""2876""
","
","","","","","","null","<div style=""font-size:60px;"">+</div>","null","","fixation","","","","","","","","","","","","","",""
"learning-trial","46","278279","0.0-8.0-2.0-1.2","1798","1","2","""event"",""trial"",""time""
""fullscreenenter"",""1"",""2876""
","
","
","""event"",""trial"",""time""
""fullscreenenter"",""1"",""2876""
","
","","","","","","748.9000000003725","images/racket2.png","","","practice","images/park1.png","images/park2.png","images/park3.png","[0,1,2]","1","1","3","images/park3.png","-1","practice","","","",""
"html-keyboard-response","47","278781","0.0-8.0-2.0-0.3","1798","1","2","""event"",""trial"",""time""
""fullscreenenter"",""1"",""2876""
","
","
","""event"",""trial"",""time""
""fullscreenenter"",""1"",""2876""
","
","","","","","","null","<div style=""font-size:60px;"">+</div>","null","","fixation","","","","","","","","","","","","","",""
"learning-trial","48","282785","0.0-8.0-2.0-1.3","1798","1","2","""event"",""trial"",""time""
""fullscreenenter"",""1"",""2876""
","
","
","""event"",""trial"",""time""
""fullscreenenter"",""1"",""2876""
","
","","","","","","1676.0999999996275","images/ball3.png","","","practice","images/park2.png","images/park3.png","images/park1.png","[1,2,0]","0","2","2","images/park3.png","-1","practice","","","",""
"html-keyboard-response","49","283286","0.0-8.0-2.0-0.4","1798","1","2","""event"",""trial"",""time""
""fullscreenenter"",""1"",""2876""
","
","
","""event"",""trial"",""time""
""fullscreenenter"",""1"",""2876""
","
","","","","","","null","<div style=""font-size:60px;"">+</div>","null","","fixation","","","","","","","","","","","","","",""
"learning-trial","50","287289","0.0-8.0-2.0-1.4","1798","1","2","""event"",""trial"",""time""
""fullscreenenter"",""1"",""2876""
","
","
","""event"",""trial"",""time""
""fullscreenenter"",""1"",""2876""
","
","","","","","","1408.5","images/ball1.png","","","practice","images/park2.png","images/park1.png","images/park3.png","[1,0,2]","1","0","2","images/park1.png","-1","practice","","","",""
"html-keyboard-response","51","287791","0.0-8.0-2.0-0.5","1798","1","2","""event"",""trial"",""time""
""fullscreenenter"",""1"",""2876""
","
","
","""event"",""trial"",""time""
""fullscreenenter"",""1"",""2876""
","
","","","","","","null","<div style=""font-size:60px;"">+</div>","null","","fixation","","","","","","","","","","","","","",""
"learning-trial","52","291795","0.0-8.0-2.0-1.5","1798","1","2","""event"",""trial"",""time""
""fullscreenenter"",""1"",""2876""
","
","
","""event"",""trial"",""time""
""fullscreenenter"",""1"",""2876""
","
","","","","","","2018","images/racket3.png","","","practice","images/park1.png","images/park3.png","images/park2.png","[0,2,1]","2","1","1","images/park1.png","-1","practice","","","",""
"html-keyboard-response","53","292297","0.0-8.0-2.0-0.6","1798","1","2","""event"",""trial"",""time""
""fullscreenenter"",""1"",""2876""
","
","
","""event"",""trial"",""time""
""fullscreenenter"",""1"",""2876""
","
","","","","","","null","<div style=""font-size:60px;"">+</div>","null","","fixation","","","","","","","","","","","","","",""
"learning-trial","54","296301","0.0-8.0-2.0-1.6","1798","1","2","""event"",""trial"",""time""
""fullscreenenter"",""1"",""2876""
","
","
","""event"",""trial"",""time""
""fullscreenenter"",""1"",""2876""
","
","","","","","","1023.6999999992549","images/racket3.png","","","practice","images/park3.png","images/park1.png","images/park2.png","[2,0,1]","2","0","3","images/park2.png","-1","practice","","","",""
"html-keyboard-response","55","296802","0.0-8.0-2.0-0.7","1798","1","2","""event"",""trial"",""time""
""fullscreenenter"",""1"",""2876""
","
","
","""event"",""trial"",""time""
""fullscreenenter"",""1"",""2876""
","
","","","","","","null","<div style=""font-size:60px;"">+</div>","null","","fixation","","","","","","","","","","","","","",""
"learning-trial","56","300806","0.0-8.0-2.0-1.7","1798","1","2","""event"",""trial"",""time""
""fullscreenenter"",""1"",""2876""
","
","
","""event"",""trial"",""time""
""fullscreenenter"",""1"",""2876""
","
","","","","","","1176.5999999996275","images/ball4.png","","","practice","images/park1.png","images/park3.png","images/park2.png","[0,2,1]","2","1","1","images/park1.png","-1","practice","","","",""
"html-keyboard-response","57","301308","0.0-8.0-2.0-0.8","1798","1","2","""event"",""trial"",""time""
""fullscreenenter"",""1"",""2876""
","
","
","""event"",""trial"",""time""
""fullscreenenter"",""1"",""2876""
","
","","","","","","null","<div style=""font-size:60px;"">+</div>","null","","fixation","","","","","","","","","","","","","",""
"learning-trial","58","305311","0.0-8.0-2.0-1.8","1798","1","2","""event"",""trial"",""time""
""fullscreenenter"",""1"",""2876""
","
","
","""event"",""trial"",""time""
""fullscreenenter"",""1"",""2876""
","
","","","","","","1049.9000000003725","images/ball1.png","","","practice","images/park3.png","images/park2.png","images/park1.png","[2,1,0]","1","1","1","images/park3.png","-1","practice","","","",""
"html-keyboard-response","59","305813","0.0-8.0-2.0-0.9","1798","1","2","""event"",""trial"",""time""
""fullscreenenter"",""1"",""2876""
","
","
","""event"",""trial"",""time""
""fullscreenenter"",""1"",""2876""
","
","","","","","","null","<div style=""font-size:60px;"">+</div>","null","","fixation","","","","","","","","","","","","","",""
"learning-trial","60","309819","0.0-8.0-2.0-1.9","1798","1","2","""event"",""trial"",""time""
""fullscreenenter"",""1"",""2876""
","
","
","""event"",""trial"",""time""
""fullscreenenter"",""1"",""2876""
","
","","","","","","250.89999999850988","images/ball4.png","","","practice","images/park3.png","images/park1.png","images/park2.png","[2,0,1]","2","0","1","images/park3.png","1","practice","","","",""
"html-keyboard-response","61","310320","0.0-8.0-2.0-0.10","1798","1","2","""event"",""trial"",""time""
""fullscreenenter"",""1"",""2876""
","
","
","""event"",""trial"",""time""
""fullscreenenter"",""1"",""2876""
","
","","","","","","null","<div style=""font-size:60px;"">+</div>","null","","fixation","","","","","","","","","","","","","",""
"learning-trial","62","314323","0.0-8.0-2.0-1.10","1798","1","2","""event"",""trial"",""time""
""fullscreenenter"",""1"",""2876""
","
","
","""event"",""trial"",""time""
""fullscreenenter"",""1"",""2876""
","
","","","","","","279.40000000037253","images/ball2.png","","","practice","images/park2.png","images/park1.png","images/park3.png","[1,0,2]","0","1","2","images/park1.png","1","practice","","","",""
"html-keyboard-response","63","314832","0.0-8.0-2.0-0.11","1798","1","2","""event"",""trial"",""time""
""fullscreenenter"",""1"",""2876""
","
","
","""event"",""trial"",""time""
""fullscreenenter"",""1"",""2876""
","
","","","","","","null","<div style=""font-size:60px;"">+</div>","null","","fixation","","","","","","","","","","","","","",""
"learning-trial","64","318835","0.0-8.0-2.0-1.11","1798","1","2","""event"",""trial"",""time""
""fullscreenenter"",""1"",""2876""
","
","
","""event"",""trial"",""time""
""fullscreenenter"",""1"",""2876""
","
","","","","","","203.80000000074506","images/ball2.png","","","practice","images/park1.png","images/park2.png","images/park3.png","[0,1,2]","0","0","2","images/park2.png","-1","practice","","","",""
"html-button-response","65","322274","0.0-8.0-3.0","1798","1","2","""event"",""trial"",""time""
""fullscreenenter"",""1"",""2876""
","
","
","""event"",""trial"",""time""
""fullscreenenter"",""1"",""2876""
","
","","","","","","3435.89999999851","<p> You earned -6 points in the practice round! </p>","0","","break","","","","","","","","","","","","","",""
"learning-instructions","66","331563","0.0-8.0-4.0-0.0","1798","1","2","""event"",""trial"",""time""
""fullscreenenter"",""1"",""2876""
","
","
","""event"",""trial"",""time""
""fullscreenenter"",""1"",""2876""
","
","","","","","","1519.2000000011176","<p> It's almost time to start the real game. </p><p> Before you start, we're going to ask you a few questions about how the game works. </p>","","0","instructions","","","","","","","","","","","","","",""
"preload","67","334901","0.0-8.0-5.0","1798","1","2","""event"",""trial"",""time""
""fullscreenenter"",""1"",""2876""
","
","
","""event"",""trial"",""time""
""fullscreenenter"",""1"",""2876""
","
","true","false","[]","[]","[]","","","","","","","","","","","","","","","","","","",""
"comp-q","68","345828","0.0-8.0-6.0-0.0","1798","1","2","""event"",""trial"",""time""
""fullscreenenter"",""1"",""2876""
","
","
","""event"",""trial"",""time""
""fullscreenenter"",""1"",""2876""
","
","","","","","","5475.10000000149","<p> <b> True or False? </b> </p><p> If you choose the best option, you will always earn 1 point. </p>","","0","comp_question","","","","","","","","","","","false","","",""
"comp-q","69","354108","0.0-8.0-6.0-1.0","1798","1","2","""event"",""trial"",""time""
""fullscreenenter"",""1"",""2876""
","
","
","""event"",""trial"",""time""
""fullscreenenter"",""1"",""2876""
","
","","","","","","2730.5999999996275","<p><b> Incorrect. </b> Sometimes you will lose 1 point, even if you choose the best option. </p>","","0","comp_answer","","","","","","","","","","","","","",""
"comp-q","70","359429","0.0-8.0-6.0-0.1","1798","1","2","""event"",""trial"",""time""
""fullscreenenter"",""1"",""2876""
","
","
","""event"",""trial"",""time""
""fullscreenenter"",""1"",""2876""
","
","","","","","","685.3999999985099","<p> <b> True or False? </b> </p><p> You will have as much time as you want to make each choice. </p>","","1","comp_question","","","","","","","","","","","true","","",""
"comp-q","71","365325","0.0-8.0-6.0-1.1","1798","1","2","""event"",""trial"",""time""
""fullscreenenter"",""1"",""2876""
","
","
","""event"",""trial"",""time""
""fullscreenenter"",""1"",""2876""
","
","","","","","","1079.7000000011176","<p> <b> That's right! </b> You will only have 4 seconds to make each choice. </p>","","0","comp_answer","","","","","","","","","","","","","",""
"comp-q","72","372742","0.0-8.0-6.0-0.2","1798","1","2","""event"",""trial"",""time""
""fullscreenenter"",""1"",""2876""
","
","
","""event"",""trial"",""time""
""fullscreenenter"",""1"",""2876""
","
","","","","","","1268.5","<p> <b> True or False? </b> </p><p> You should use the '1', '2', and '3' keys to make your choices. </p>","","0","comp_question","","","","","","","","","","","true","","",""
"comp-q","73","378528","0.0-8.0-6.0-1.2","1798","1","2","""event"",""trial"",""time""
""fullscreenenter"",""1"",""2876""
","
","
","""event"",""trial"",""time""
""fullscreenenter"",""1"",""2876""
","
","","","","","","946.2000000011176","<p> <b> That's right! </b> You should use the '1', '2', and '3' keys to make each choice. </p>","","0","comp_answer","","","","","","","","","","","","","",""
"learning-instructions","74","387802","0.0-8.0-7.0-0.0","1798","1","2","""event"",""trial"",""time""
""fullscreenenter"",""1"",""2876""
","
","
","""event"",""trial"",""time""
""fullscreenenter"",""1"",""2876""
","
","","","","","","794.4000000003725","<p> It's now time to start the real game. </p>Do your best, because the points you earn in the next rounds will influence your bonus payment. </p>","","0","instructions","","","","","","","","","","","","","",""
"preload","75","393586","0.0-9.0-0.0","1798","1","2","""event"",""trial"",""time""
""fullscreenenter"",""1"",""2876""
","
","
","""event"",""trial"",""time""
""fullscreenenter"",""1"",""2876""
","
","true","false","[]","[]","[]","","","","","","","","","","","","","","","","","","",""
"learning-instructions","76","403722","0.0-9.0-1.0-0.0","1798","1","2","""event"",""trial"",""time""
""fullscreenenter"",""1"",""2876""
","
","
","""event"",""trial"",""time""
""fullscreenenter"",""1"",""2876""
","
","","","","","","3303.89999999851","<p> Your goal in this round is to grow a beautiful garden by watering plants. </p><p> You will need to water many different plants. </p></div>","","0","instructions","","","","","","","","","","","","","",""
"learning-instructions","77","417691","0.0-9.0-1.0-0.1","1798","1","2","""event"",""trial"",""time""
""fullscreenenter"",""1"",""2876""
","
","
","""event"",""trial"",""time""
""fullscreenenter"",""1"",""2876""
","
","","","","","","704.6999999992549","<p> On each turn, you will see a picture of one of your plants and three different watering cans.  </p><p> Each watering can has a different mixture of water and fertilizer.  </p><p> You need to select which watering can to use for each plant. </p>","","0","instructions","","","","","","","","","","","","","",""
"learning-instructions","78","426130","0.0-9.0-1.0-0.2","1798","1","2","""event"",""trial"",""time""
""fullscreenenter"",""1"",""2876""
","
","
","""event"",""trial"",""time""
""fullscreenenter"",""1"",""2876""
","
","","","","","","710.7000000011176","<p> You can select the watering can on the left by pressing 1, the watering can in the middle by pressing 2, and the watering can on the right by pressing 3. </p><br><div class=""choice-instructions-grid""> <div class=""choice-option""><img src=""images/plants_choice1.png"" class=""choice-option-img"" stage=""instructions"" position=""0"" ><div class=""choice-option-text""> Press ""1."" </div></div><div class=""choice-option""><img src=""images/plants_choice2.png"" class=""choice-option-img"" stage=""instructions"" position=""1"" ><div class=""choice-option-text""> Press ""2."" </div></div><div class=""choice-option""><img src=""images/plants_choice3.png"" class=""choice-option-img"" stage=""instructions"" position=""2"" ><div class=""choice-option-text""> Press ""3."" </div></div></div>","","0","instructions","","","","","","","","","","","","","",""
"learning-instructions","79","431268","0.0-9.0-1.0-0.3","1798","1","2","""event"",""trial"",""time""
""fullscreenenter"",""1"",""2876""
","
","
","""event"",""trial"",""time""
""fullscreenenter"",""1"",""2876""
","
","","","","","","976.3000000007451","<p> If the watering can you chose works for the plant, it will grow! </p><div style='float: center;'><img src='images/check.png' width = '200' height = '200'></img>","","0","instructions","","","","","","","","","","","","","",""
"learning-instructions","80","436709","0.0-9.0-1.0-0.4","1798","1","2","""event"",""trial"",""time""
""fullscreenenter"",""1"",""2876""
","
","
","""event"",""trial"",""time""
""fullscreenenter"",""1"",""2876""
","
","","","","","","639","<p> But, if the watering can you chose does not work, your plant will droop. </p><div style='float: center;'><img src='images/x.png' width = '200' height = '200'></img>","","0","instructions","","","","","","","","","","","","","",""
"learning-instructions","81","447076","0.0-9.0-1.0-0.5","1798","1","2","""event"",""trial"",""time""
""fullscreenenter"",""1"",""2876""
","
","
","""event"",""trial"",""time""
""fullscreenenter"",""1"",""2876""
","
","","","","","","302.59999999962747","<p> Importantly, each plant has one fertilizer mixture that works best for it. </p><p> If you choose the watering can with the right fertilizer, the plant will be more likely to grow. </p>","","0","instructions","","","","","","","","","","","","","",""
"learning-instructions","82","457845","0.0-9.0-1.0-0.6","1798","1","2","""event"",""trial"",""time""
""fullscreenenter"",""1"",""2876""
","
","
","""event"",""trial"",""time""
""fullscreenenter"",""1"",""2876""
","
","","","","","","441.80000000074506","<p> However, even if you choose the best watering can for the plant, the plant may still droop. </p><p> Similarly, even if you choose the <i>wrong</i> watering can, the plant may still grow.","","0","instructions","","","","","","","","","","","","","",""
"learning-instructions","83","470224","0.0-9.0-1.0-0.7","1798","1","2","""event"",""trial"",""time""
""fullscreenenter"",""1"",""2876""
","
","
","""event"",""trial"",""time""
""fullscreenenter"",""1"",""2876""
","
","","","","","","529.0999999996275","<p> Try to choose the best watering can for each plant, because you will <b> WIN </b> 1 point each time a plant grows and <b>LOSE</b>  1 point each time a plant droops. </p><p> Your bonus payment will depend on your total number of points.","","0","instructions","","","","","","","","","","","","","",""
"learning-instructions","84","478895","0.0-9.0-1.0-0.8","1798","1","2","""event"",""trial"",""time""
""fullscreenenter"",""1"",""2876""
","
","
","""event"",""trial"",""time""
""fullscreenenter"",""1"",""2876""
","
","","","","","","670.1999999992549","<p> The position of each watering can will change throughout the round. </p><p> The watering can's position <i> does not </i> influence how likely each plant is to droop or grow. </p>","","0","instructions","","","","","","","","","","","","","",""
"learning-instructions","85","488586","0.0-9.0-1.0-0.9","1798","1","2","""event"",""trial"",""time""
""fullscreenenter"",""1"",""2876""
","
","
","""event"",""trial"",""time""
""fullscreenenter"",""1"",""2876""
","
","","","","","","402.2999999988824","<p> You will have 4 seconds to make each choice. Try to respond before time runs out! </p><p> You will lose 1 point each time you do not make a response. </p>","","0","instructions","","","","","","","","","","","","","",""
"html-keyboard-response","86","489188","0.0-9.0-2.0-0.0","1798","1","2","""event"",""trial"",""time""
""fullscreenenter"",""1"",""2876""
","
","
","""event"",""trial"",""time""
""fullscreenenter"",""1"",""2876""
","
","","","","","","null","<div style=""font-size:60px;"">+</div>","null","","fixation","","","","","","","","","","","","","",""
"learning-trial","87","493191","0.0-9.0-2.0-1.0","1798","1","2","""event"",""trial"",""time""
""fullscreenenter"",""1"",""2876""
","
","
","""event"",""trial"",""time""
""fullscreenenter"",""1"",""2876""
","
","","","","","","2013.800000000745","images/flower5.png","","","learning","images/plants_choice1.png","images/plants_choice3.png","images/plants_choice2.png","[0,2,1]","1","2","1","images/plants_choice1.png","-1","plants","","flower","1","0"
"html-keyboard-response","88","493692","0.0-9.0-2.0-0.1","1798","1","2","""event"",""trial"",""time""
""fullscreenenter"",""1"",""2876""
","
","
","""event"",""trial"",""time""
""fullscreenenter"",""1"",""2876""
","
","","","","","","null","<div style=""font-size:60px;"">+</div>","null","","fixation","","","","","","","","","","","","","",""
"learning-trial","89","497695","0.0-9.0-2.0-1.1","1798","1","2","""event"",""trial"",""time""
""fullscreenenter"",""1"",""2876""
","
","
","""event"",""trial"",""time""
""fullscreenenter"",""1"",""2876""
","
","","","","","","1449.300000000745","images/tree2.png","","","learning","images/plants_choice2.png","images/plants_choice1.png","images/plants_choice3.png","[1,0,2]","0","1","2","images/plants_choice1.png","1","plants","","tree","1","0"
"html-keyboard-response","90","498197","0.0-9.0-2.0-0.2","1798","1","2","""event"",""trial"",""time""
""fullscreenenter"",""1"",""2876""
","
","
","""event"",""trial"",""time""
""fullscreenenter"",""1"",""2876""
","
","","","","","","null","<div style=""font-size:60px;"">+</div>","null","","fixation","","","","","","","","","","","","","",""
"learning-trial","91","502200","0.0-9.0-2.0-1.2","1798","1","2","""event"",""trial"",""time""
""fullscreenenter"",""1"",""2876""
","
","
","""event"",""trial"",""time""
""fullscreenenter"",""1"",""2876""
","
","","","","","","1116","images/flower4.png","","","learning","images/plants_choice1.png","images/plants_choice3.png","images/plants_choice2.png","[0,2,1]","1","2","1","images/plants_choice1.png","-1","plants","","flower","1","0"
"html-keyboard-response","92","502702","0.0-9.0-2.0-0.3","1798","1","2","""event"",""trial"",""time""
""fullscreenenter"",""1"",""2876""
","
","
","""event"",""trial"",""time""
""fullscreenenter"",""1"",""2876""
","
","","","","","","null","<div style=""font-size:60px;"">+</div>","null","","fixation","","","","","","","","","","","","","",""
"learning-trial","93","506705","0.0-9.0-2.0-1.3","1798","1","2","""event"",""trial"",""time""
""fullscreenenter"",""1"",""2876""
","
","
","""event"",""trial"",""time""
""fullscreenenter"",""1"",""2876""
","
","","","","","","1044.4000000003725","images/cactus1.png","","","learning","images/plants_choice1.png","images/plants_choice3.png","images/plants_choice2.png","[0,2,1]","2","1","1","images/plants_choice1.png","-1","plants","","cactus","1","0"
"html-keyboard-response","94","507206","0.0-9.0-2.0-0.4","1798","1","2","""event"",""trial"",""time""
""fullscreenenter"",""1"",""2876""
","
","
","""event"",""trial"",""time""
""fullscreenenter"",""1"",""2876""
","
","","","","","","null","<div style=""font-size:60px;"">+</div>","null","","fixation","","","","","","","","","","","","","",""
"learning-trial","95","511210","0.0-9.0-2.0-1.4","1798","1","2","""event"",""trial"",""time""
""fullscreenenter"",""1"",""2876""
","
","
","""event"",""trial"",""time""
""fullscreenenter"",""1"",""2876""
","
","","","","","","1451.0999999996275","images/flower1.png","","","learning","images/plants_choice1.png","images/plants_choice2.png","images/plants_choice3.png","[0,1,2]","1","1","2","images/plants_choice2.png","1","plants","","flower","1","0"
"html-keyboard-response","96","511711","0.0-9.0-2.0-0.5","1798","1","2","""event"",""trial"",""time""
""fullscreenenter"",""1"",""2876""
","
","
","""event"",""trial"",""time""
""fullscreenenter"",""1"",""2876""
","
","","","","","","null","<div style=""font-size:60px;"">+</div>","null","","fixation","","","","","","","","","","","","","",""
"learning-trial","97","515714","0.0-9.0-2.0-1.5","1798","1","2","""event"",""trial"",""time""
""fullscreenenter"",""1"",""2876""
","
","
","""event"",""trial"",""time""
""fullscreenenter"",""1"",""2876""
","
","","","","","","1651.2999999988824","images/tree1.png","","","learning","images/plants_choice2.png","images/plants_choice1.png","images/plants_choice3.png","[1,0,2]","0","1","3","images/plants_choice3.png","1","plants","","tree","1","0"
"html-keyboard-response","98","516215","0.0-9.0-2.0-0.6","1798","1","2","""event"",""trial"",""time""
""fullscreenenter"",""1"",""2876""
","
","
","""event"",""trial"",""time""
""fullscreenenter"",""1"",""2876""
","
","","","","","","null","<div style=""font-size:60px;"">+</div>","null","","fixation","","","","","","","","","","","","","",""
"learning-trial","99","520218","0.0-9.0-2.0-1.6","1798","1","2","""event"",""trial"",""time""
""fullscreenenter"",""1"",""2876""
","
","
","""event"",""trial"",""time""
""fullscreenenter"",""1"",""2876""
","
","","","","","","924.4000000003725","images/tree2.png","","","learning","images/plants_choice2.png","images/plants_choice1.png","images/plants_choice3.png","[1,0,2]","0","1","2","images/plants_choice1.png","1","plants","","tree","1","0"
"html-keyboard-response","100","520720","0.0-9.0-2.0-0.7","1798","1","2","""event"",""trial"",""time""
""fullscreenenter"",""1"",""2876""
","
","
","""event"",""trial"",""time""
""fullscreenenter"",""1"",""2876""
","
","","","","","","null","<div style=""font-size:60px;"">+</div>","null","","fixation","","","","","","","","","","","","","",""
"learning-trial","101","524723","0.0-9.0-2.0-1.7","1798","1","2","""event"",""trial"",""time""
""fullscreenenter"",""1"",""2876""
","
","
","""event"",""trial"",""time""
""fullscreenenter"",""1"",""2876""
","
","","","","","","1076.199999999255","images/cactus2.png","","","learning","images/plants_choice1.png","images/plants_choice3.png","images/plants_choice2.png","[0,2,1]","2","1","1","images/plants_choice1.png","-1","plants","","cactus","1","0"
"html-keyboard-response","102","525225","0.0-9.0-2.0-0.8","1798","1","2","""event"",""trial"",""time""
""fullscreenenter"",""1"",""2876""
","
","
","""event"",""trial"",""time""
""fullscreenenter"",""1"",""2876""
","
","","","","","","null","<div style=""font-size:60px;"">+</div>","null","","fixation","","","","","","","","","","","","","",""
"learning-trial","103","529228","0.0-9.0-2.0-1.8","1798","1","2","""event"",""trial"",""time""
""fullscreenenter"",""1"",""2876""
","
","
","""event"",""trial"",""time""
""fullscreenenter"",""1"",""2876""
","
","","","","","","793.0999999996275","images/tree5.png","","","learning","images/plants_choice1.png","images/plants_choice3.png","images/plants_choice2.png","[0,2,1]","0","0","2","images/plants_choice3.png","-1","plants","","tree","1","0"
"html-keyboard-response","104","529730","0.0-9.0-2.0-0.9","1798","1","2","""event"",""trial"",""time""
""fullscreenenter"",""1"",""2876""
","
","
","""event"",""trial"",""time""
""fullscreenenter"",""1"",""2876""
","
","","","","","","null","<div style=""font-size:60px;"">+</div>","null","","fixation","","","","","","","","","","","","","",""
"learning-trial","105","533733","0.0-9.0-2.0-1.9","1798","1","2","""event"",""trial"",""time""
""fullscreenenter"",""1"",""2876""
","
","
","""event"",""trial"",""time""
""fullscreenenter"",""1"",""2876""
","
","","","","","","764.5","images/tree5.png","","","learning","images/plants_choice2.png","images/plants_choice1.png","images/plants_choice3.png","[1,0,2]","0","1","2","images/plants_choice1.png","1","plants","","tree","1","0"
"html-keyboard-response","106","534234","0.0-9.0-2.0-0.10","1798","1","2","""event"",""trial"",""time""
""fullscreenenter"",""1"",""2876""
","
","
","""event"",""trial"",""time""
""fullscreenenter"",""1"",""2876""
","
","","","","","","null","<div style=""font-size:60px;"">+</div>","null","","fixation","","","","","","","","","","","","","",""
"learning-trial","107","538237","0.0-9.0-2.0-1.10","1798","1","2","""event"",""trial"",""time""
""fullscreenenter"",""1"",""2876""
","
","
","""event"",""trial"",""time""
""fullscreenenter"",""1"",""2876""
","
","","","","","","2069.0999999996275","images/tree2.png","","","learning","images/plants_choice1.png","images/plants_choice3.png","images/plants_choice2.png","[0,2,1]","0","0","3","images/plants_choice2.png","-1","plants","","tree","1","0"
"html-keyboard-response","108","538738","0.0-9.0-2.0-0.11","1798","1","2","""event"",""trial"",""time""
""fullscreenenter"",""1"",""2876""
","
","
","""event"",""trial"",""time""
""fullscreenenter"",""1"",""2876""
","
","","","","","","null","<div style=""font-size:60px;"">+</div>","null","","fixation","","","","","","","","","","","","","",""
"learning-trial","109","542742","0.0-9.0-2.0-1.11","1798","1","2","""event"",""trial"",""time""
""fullscreenenter"",""1"",""2876""
","
","
","""event"",""trial"",""time""
""fullscreenenter"",""1"",""2876""
","
","","","","","","2090.800000000745","images/flower1.png","","","learning","images/plants_choice3.png","images/plants_choice1.png","images/plants_choice2.png","[2,0,1]","1","2","3","images/plants_choice2.png","-1","plants","","flower","1","0"
"html-keyboard-response","110","543243","0.0-9.0-2.0-0.12","1798","1","2","""event"",""trial"",""time""
""fullscreenenter"",""1"",""2876""
","
","
","""event"",""trial"",""time""
""fullscreenenter"",""1"",""2876""
","
","","","","","","null","<div style=""font-size:60px;"">+</div>","null","","fixation","","","","","","","","","","","","","",""
"learning-trial","111","547247","0.0-9.0-2.0-1.12","1798","1","2","""event"",""trial"",""time""
""fullscreenenter"",""1"",""2876""
","
","
","""event"",""trial"",""time""
""fullscreenenter"",""1"",""2876""
","
","","","","","","1103.8999999985099","images/cactus2.png","","","learning","images/plants_choice1.png","images/plants_choice2.png","images/plants_choice3.png","[0,1,2]","2","2","2","images/plants_choice2.png","-1","plants","","cactus","1","0"
"html-keyboard-response","112","547748","0.0-9.0-2.0-0.13","1798","1","2","""event"",""trial"",""time""
""fullscreenenter"",""1"",""2876""
","
","
","""event"",""trial"",""time""
""fullscreenenter"",""1"",""2876""
","
","","","","","","null","<div style=""font-size:60px;"">+</div>","null","","fixation","","","","","","","","","","","","","",""
"learning-trial","113","551752","0.0-9.0-2.0-1.13","1798","1","2","""event"",""trial"",""time""
""fullscreenenter"",""1"",""2876""
","
","
","""event"",""trial"",""time""
""fullscreenenter"",""1"",""2876""
","
","","","","","","1071","images/tree5.png","","","learning","images/plants_choice2.png","images/plants_choice1.png","images/plants_choice3.png","[1,0,2]","0","1","2","images/plants_choice1.png","1","plants","","tree","1","0"
"html-keyboard-response","114","552254","0.0-9.0-2.0-0.14","1798","1","2","""event"",""trial"",""time""
""fullscreenenter"",""1"",""2876""
","
","
","""event"",""trial"",""time""
""fullscreenenter"",""1"",""2876""
","
","","","","","","null","<div style=""font-size:60px;"">+</div>","null","","fixation","","","","","","","","","","","","","",""
"learning-trial","115","556257","0.0-9.0-2.0-1.14","1798","1","2","""event"",""trial"",""time""
""fullscreenenter"",""1"",""2876""
","
","
","""event"",""trial"",""time""
""fullscreenenter"",""1"",""2876""
","
","","","","","","1907.3999999985099","images/flower5.png","","","learning","images/plants_choice3.png","images/plants_choice2.png","images/plants_choice1.png","[2,1,0]","1","1","3","images/plants_choice1.png","-1","plants","","flower","1","0"
"html-keyboard-response","116","556758","0.0-9.0-2.0-0.15","1798","1","2","""event"",""trial"",""time""
""fullscreenenter"",""1"",""2876""
","
","
","""event"",""trial"",""time""
""fullscreenenter"",""1"",""2876""
","
","","","","","","null","<div style=""font-size:60px;"">+</div>","null","","fixation","","","","","","","","","","","","","",""
"learning-trial","117","560761","0.0-9.0-2.0-1.15","1798","1","2","""event"",""trial"",""time""
""fullscreenenter"",""1"",""2876""
","
","
","""event"",""trial"",""time""
""fullscreenenter"",""1"",""2876""
","
","","","","","","1035.4000000003725","images/cactus5.png","","","learning","images/plants_choice3.png","images/plants_choice1.png","images/plants_choice2.png","[2,0,1]","2","0","2","images/plants_choice1.png","-1","plants","","cactus","1","0"
"html-keyboard-response","118","561263","0.0-9.0-2.0-0.16","1798","1","2","""event"",""trial"",""time""
""fullscreenenter"",""1"",""2876""
","
","
","""event"",""trial"",""time""
""fullscreenenter"",""1"",""2876""
","
","","","","","","null","<div style=""font-size:60px;"">+</div>","null","","fixation","","","","","","","","","","","","","",""
"learning-trial","119","565266","0.0-9.0-2.0-1.16","1798","1","2","""event"",""trial"",""time""
""fullscreenenter"",""1"",""2876""
","
","
","""event"",""trial"",""time""
""fullscreenenter"",""1"",""2876""
","
","","","","","","999.6999999992549","images/cactus1.png","","","learning","images/plants_choice2.png","images/plants_choice3.png","images/plants_choice1.png","[1,2,0]","2","1","1","images/plants_choice2.png","1","plants","","cactus","1","0"
"html-keyboard-response","120","565768","0.0-9.0-2.0-0.17","1798","1","2","""event"",""trial"",""time""
""fullscreenenter"",""1"",""2876""
","
","
","""event"",""trial"",""time""
""fullscreenenter"",""1"",""2876""
","
","","","","","","null","<div style=""font-size:60px;"">+</div>","null","","fixation","","","","","","","","","","","","","",""
"learning-trial","121","569771","0.0-9.0-2.0-1.17","1798","1","2","""event"",""trial"",""time""
""fullscreenenter"",""1"",""2876""
","
","
","""event"",""trial"",""time""
""fullscreenenter"",""1"",""2876""
","
","","","","","","487.90000000037253","images/cactus5.png","","","learning","images/plants_choice2.png","images/plants_choice3.png","images/plants_choice1.png","[1,2,0]","2","1","1","images/plants_choice2.png","-1","plants","","cactus","1","0"
"html-keyboard-response","122","570273","0.0-9.0-2.0-0.18","1798","1","2","""event"",""trial"",""time""
""fullscreenenter"",""1"",""2876""
","
","
","""event"",""trial"",""time""
""fullscreenenter"",""1"",""2876""
","
","","","","","","null","<div style=""font-size:60px;"">+</div>","null","","fixation","","","","","","","","","","","","","",""
"learning-trial","123","574276","0.0-9.0-2.0-1.18","1798","1","2","""event"",""trial"",""time""
""fullscreenenter"",""1"",""2876""
","
","
","""event"",""trial"",""time""
""fullscreenenter"",""1"",""2876""
","
","","","","","","572.5","images/cactus5.png","","","learning","images/plants_choice2.png","images/plants_choice1.png","images/plants_choice3.png","[1,0,2]","2","2","1","images/plants_choice2.png","-1","plants","","cactus","1","0"
"html-keyboard-response","124","574778","0.0-9.0-2.0-0.19","1798","1","2","""event"",""trial"",""time""
""fullscreenenter"",""1"",""2876""
","
","
","""event"",""trial"",""time""
""fullscreenenter"",""1"",""2876""
","
","","","","","","null","<div style=""font-size:60px;"">+</div>","null","","fixation","","","","","","","","","","","","","",""
"learning-trial","125","578781","0.0-9.0-2.0-1.19","1798","1","2","""event"",""trial"",""time""
""fullscreenenter"",""1"",""2876""
","
","
","""event"",""trial"",""time""
""fullscreenenter"",""1"",""2876""
","
","","","","","","539.9000000003725","images/cactus5.png","","","learning","images/plants_choice2.png","images/plants_choice3.png","images/plants_choice1.png","[1,2,0]","2","1","1","images/plants_choice2.png","-1","plants","","cactus","1","0"
"html-keyboard-response","126","579282","0.0-9.0-2.0-0.20","1798","1","2","""event"",""trial"",""time""
""fullscreenenter"",""1"",""2876""
","
","
","""event"",""trial"",""time""
""fullscreenenter"",""1"",""2876""
","
","","","","","","null","<div style=""font-size:60px;"">+</div>","null","","fixation","","","","","","","","","","","","","",""
"learning-trial","127","583286","0.0-9.0-2.0-1.20","1798","1","2","""event"",""trial"",""time""
""fullscreenenter"",""1"",""2876""
","
","
","""event"",""trial"",""time""
""fullscreenenter"",""1"",""2876""
","
","","","","","","593.5","images/tree5.png","","","learning","images/plants_choice3.png","images/plants_choice1.png","images/plants_choice2.png","[2,0,1]","0","1","2","images/plants_choice1.png","1","plants","","tree","1","0"
"html-keyboard-response","128","583787","0.0-9.0-2.0-0.21","1798","1","2","""event"",""trial"",""time""
""fullscreenenter"",""1"",""2876""
","
","
","""event"",""trial"",""time""
""fullscreenenter"",""1"",""2876""
","
","","","","","","null","<div style=""font-size:60px;"">+</div>","null","","fixation","","","","","","","","","","","","","",""
"learning-trial","129","587791","0.0-9.0-2.0-1.21","1798","1","2","""event"",""trial"",""time""
""fullscreenenter"",""1"",""2876""
","
","
","""event"",""trial"",""time""
""fullscreenenter"",""1"",""2876""
","
","","","","","","331.69999999925494","images/flower5.png","","","learning","images/plants_choice3.png","images/plants_choice1.png","images/plants_choice2.png","[2,0,1]","1","2","3","images/plants_choice2.png","1","plants","","flower","1","0"
"html-keyboard-response","130","588292","0.0-9.0-2.0-0.22","1798","1","2","""event"",""trial"",""time""
""fullscreenenter"",""1"",""2876""
","
","
","""event"",""trial"",""time""
""fullscreenenter"",""1"",""2876""
","
","","","","","","null","<div style=""font-size:60px;"">+</div>","null","","fixation","","","","","","","","","","","","","",""
"learning-trial","131","592295","0.0-9.0-2.0-1.22","1798","1","2","""event"",""trial"",""time""
""fullscreenenter"",""1"",""2876""
","
","
","""event"",""trial"",""time""
""fullscreenenter"",""1"",""2876""
","
","","","","","","360.80000000074506","images/flower5.png","","","learning","images/plants_choice2.png","images/plants_choice3.png","images/plants_choice1.png","[1,2,0]","1","0","1","images/plants_choice2.png","1","plants","","flower","1","0"
"html-keyboard-response","132","592796","0.0-9.0-2.0-0.23","1798","1","2","""event"",""trial"",""time""
""fullscreenenter"",""1"",""2876""
","
","
","""event"",""trial"",""time""
""fullscreenenter"",""1"",""2876""
","
","","","","","","null","<div style=""font-size:60px;"">+</div>","null","","fixation","","","","","","","","","","","","","",""
"learning-trial","133","596800","0.0-9.0-2.0-1.23","1798","1","2","""event"",""trial"",""time""
""fullscreenenter"",""1"",""2876""
","
","
","""event"",""trial"",""time""
""fullscreenenter"",""1"",""2876""
","
","","","","","","12.300000000745058","images/flower4.png","","","learning","images/plants_choice2.png","images/plants_choice3.png","images/plants_choice1.png","[1,2,0]","1","0","3","images/plants_choice1.png","-1","plants","","flower","1","0"
"html-keyboard-response","134","597301","0.0-9.0-2.0-0.24","1798","1","2","""event"",""trial"",""time""
""fullscreenenter"",""1"",""2876""
","
","
","""event"",""trial"",""time""
""fullscreenenter"",""1"",""2876""
","
","","","","","","null","<div style=""font-size:60px;"">+</div>","null","","fixation","","","","","","","","","","","","","",""
"learning-trial","135","601305","0.0-9.0-2.0-1.24","1798","1","2","""event"",""trial"",""time""
""fullscreenenter"",""1"",""2876""
","
","
","""event"",""trial"",""time""
""fullscreenenter"",""1"",""2876""
","
","","","","","","688.3000000007451","images/flower4.png","","","learning","images/plants_choice2.png","images/plants_choice3.png","images/plants_choice1.png","[1,2,0]","1","0","2","images/plants_choice3.png","-1","plants","","flower","1","0"
"html-keyboard-response","136","601806","0.0-9.0-2.0-0.25","1798","1","2","""event"",""trial"",""time""
""fullscreenenter"",""1"",""2876""
","
","
","""event"",""trial"",""time""
""fullscreenenter"",""1"",""2876""
","
","","","","","","null","<div style=""font-size:60px;"">+</div>","null","","fixation","","","","","","","","","","","","","",""
"learning-trial","137","605809","0.0-9.0-2.0-1.25","1798","1","2","""event"",""trial"",""time""
""fullscreenenter"",""1"",""2876""
","
","
","""event"",""trial"",""time""
""fullscreenenter"",""1"",""2876""
","
","","","","","","123.29999999888241","images/cactus1.png","","","learning","images/plants_choice3.png","images/plants_choice2.png","images/plants_choice1.png","[2,1,0]","2","0","1","images/plants_choice3.png","1","plants","","cactus","1","0"
"html-keyboard-response","138","606311","0.0-9.0-2.0-0.26","1798","1","2","""event"",""trial"",""time""
""fullscreenenter"",""1"",""2876""
","
","
","""event"",""trial"",""time""
""fullscreenenter"",""1"",""2876""
","
","","","","","","null","<div style=""font-size:60px;"">+</div>","null","","fixation","","","","","","","","","","","","","",""
"learning-trial","139","610314","0.0-9.0-2.0-1.26","1798","1","2","""event"",""trial"",""time""
""fullscreenenter"",""1"",""2876""
","
","
","""event"",""trial"",""time""
""fullscreenenter"",""1"",""2876""
","
","","","","","","505.19999999925494","images/tree2.png","","","learning","images/plants_choice1.png","images/plants_choice3.png","images/plants_choice2.png","[0,2,1]","0","0","2","images/plants_choice3.png","-1","plants","","tree","1","0"
"html-keyboard-response","140","610816","0.0-9.0-2.0-0.27","1798","1","2","""event"",""trial"",""time""
""fullscreenenter"",""1"",""2876""
","
","
","""event"",""trial"",""time""
""fullscreenenter"",""1"",""2876""
","
","","","","","","null","<div style=""font-size:60px;"">+</div>","null","","fixation","","","","","","","","","","","","","",""
"learning-trial","141","614819","0.0-9.0-2.0-1.27","1798","1","2","""event"",""trial"",""time""
""fullscreenenter"",""1"",""2876""
","
","
","""event"",""trial"",""time""
""fullscreenenter"",""1"",""2876""
","
","","","","","","603","images/tree1.png","","","learning","images/plants_choice3.png","images/plants_choice1.png","images/plants_choice2.png","[2,0,1]","0","1","1","images/plants_choice3.png","-1","plants","","tree","1","0"
"html-keyboard-response","142","615321","0.0-9.0-2.0-0.28","1798","1","2","""event"",""trial"",""time""
""fullscreenenter"",""1"",""2876""
","
","
","""event"",""trial"",""time""
""fullscreenenter"",""1"",""2876""
","
","","","","","","null","<div style=""font-size:60px;"">+</div>","null","","fixation","","","","","","","","","","","","","",""
"learning-trial","143","619325","0.0-9.0-2.0-1.28","1798","1","2","""event"",""trial"",""time""
""fullscreenenter"",""1"",""2876""
","
","
","""event"",""trial"",""time""
""fullscreenenter"",""1"",""2876""
","
","","","","","","681.2999999988824","images/flower5.png","","","learning","images/plants_choice2.png","images/plants_choice1.png","images/plants_choice3.png","[1,0,2]","1","0","3","images/plants_choice3.png","-1","plants","","flower","1","0"
"html-keyboard-response","144","619826","0.0-9.0-2.0-0.29","1798","1","2","""event"",""trial"",""time""
""fullscreenenter"",""1"",""2876""
","
","
","""event"",""trial"",""time""
""fullscreenenter"",""1"",""2876""
","
","","","","","","null","<div style=""font-size:60px;"">+</div>","null","","fixation","","","","","","","","","","","","","",""
"learning-trial","145","623830","0.0-9.0-2.0-1.29","1798","1","2","""event"",""trial"",""time""
""fullscreenenter"",""1"",""2876""
","
","
","""event"",""trial"",""time""
""fullscreenenter"",""1"",""2876""
","
","","","","","","1963","images/cactus5.png","","","learning","images/plants_choice3.png","images/plants_choice2.png","images/plants_choice1.png","[2,1,0]","2","0","2","images/plants_choice2.png","-1","plants","","cactus","1","0"
"html-keyboard-response","146","624332","0.0-9.0-2.0-0.30","1798","1","2","""event"",""trial"",""time""
""fullscreenenter"",""1"",""2876""
","
","
","""event"",""trial"",""time""
""fullscreenenter"",""1"",""2876""
","
","","","","","","null","<div style=""font-size:60px;"">+</div>","null","","fixation","","","","","","","","","","","","","",""
"learning-trial","147","628335","0.0-9.0-2.0-1.30","1798","1","2","""event"",""trial"",""time""
""fullscreenenter"",""1"",""2876""
","
","
","""event"",""trial"",""time""
""fullscreenenter"",""1"",""2876""
","
","","","","","","558.5999999996275","images/tree5.png","","","learning","images/plants_choice3.png","images/plants_choice2.png","images/plants_choice1.png","[2,1,0]","0","2","1","images/plants_choice3.png","-1","plants","","tree","1","0"
"html-keyboard-response","148","628837","0.0-9.0-2.0-0.31","1798","1","2","""event"",""trial"",""time""
""fullscreenenter"",""1"",""2876""
","
","
","""event"",""trial"",""time""
""fullscreenenter"",""1"",""2876""
","
","","","","","","null","<div style=""font-size:60px;"">+</div>","null","","fixation","","","","","","","","","","","","","",""
"learning-trial","149","632841","0.0-9.0-2.0-1.31","1798","1","2","""event"",""trial"",""time""
""fullscreenenter"",""1"",""2876""
","
","
","""event"",""trial"",""time""
""fullscreenenter"",""1"",""2876""
","
","","","","","","568.3000000007451","images/tree1.png","","","learning","images/plants_choice2.png","images/plants_choice1.png","images/plants_choice3.png","[1,0,2]","0","1","2","images/plants_choice1.png","-1","plants","","tree","1","0"
"html-keyboard-response","150","633342","0.0-9.0-2.0-0.32","1798","1","2","""event"",""trial"",""time""
""fullscreenenter"",""1"",""2876""
","
","
","""event"",""trial"",""time""
""fullscreenenter"",""1"",""2876""
","
","","","","","","null","<div style=""font-size:60px;"">+</div>","null","","fixation","","","","","","","","","","","","","",""
"learning-trial","151","637346","0.0-9.0-2.0-1.32","1798","1","2","""event"",""trial"",""time""
""fullscreenenter"",""1"",""2876""
","
","
","""event"",""trial"",""time""
""fullscreenenter"",""1"",""2876""
","
","","","","","","1300.9000000003725","images/flower1.png","","","learning","images/plants_choice3.png","images/plants_choice2.png","images/plants_choice1.png","[2,1,0]","1","1","2","images/plants_choice2.png","1","plants","","flower","1","0"
"html-keyboard-response","152","637848","0.0-9.0-2.0-0.33","1798","1","2","""event"",""trial"",""time""
""fullscreenenter"",""1"",""2876""
","
","
","""event"",""trial"",""time""
""fullscreenenter"",""1"",""2876""
","
","","","","","","null","<div style=""font-size:60px;"">+</div>","null","","fixation","","","","","","","","","","","","","",""
"learning-trial","153","641851","0.0-9.0-2.0-1.33","1798","1","2","""event"",""trial"",""time""
""fullscreenenter"",""1"",""2876""
","
","
","""event"",""trial"",""time""
""fullscreenenter"",""1"",""2876""
","
","","","","","","1153.7000000011176","images/tree1.png","","","learning","images/plants_choice1.png","images/plants_choice3.png","images/plants_choice2.png","[0,2,1]","0","0","1","images/plants_choice1.png","1","plants","","tree","1","0"
"html-keyboard-response","154","642353","0.0-9.0-2.0-0.34","1798","1","2","""event"",""trial"",""time""
""fullscreenenter"",""1"",""2876""
","
","
","""event"",""trial"",""time""
""fullscreenenter"",""1"",""2876""
","
","","","","","","null","<div style=""font-size:60px;"">+</div>","null","","fixation","","","","","","","","","","","","","",""
"learning-trial","155","646357","0.0-9.0-2.0-1.34","1798","1","2","""event"",""trial"",""time""
""fullscreenenter"",""1"",""2876""
","
","
","""event"",""trial"",""time""
""fullscreenenter"",""1"",""2876""
","
","","","","","","1542.199999999255","images/cactus2.png","","","learning","images/plants_choice3.png","images/plants_choice2.png","images/plants_choice1.png","[2,1,0]","2","0","2","images/plants_choice2.png","1","plants","","cactus","1","0"
"html-keyboard-response","156","646858","0.0-9.0-2.0-0.35","1798","1","2","""event"",""trial"",""time""
""fullscreenenter"",""1"",""2876""
","
","
","""event"",""trial"",""time""
""fullscreenenter"",""1"",""2876""
","
","","","","","","null","<div style=""font-size:60px;"">+</div>","null","","fixation","","","","","","","","","","","","","",""
"learning-trial","157","650862","0.0-9.0-2.0-1.35","1798","1","2","""event"",""trial"",""time""
""fullscreenenter"",""1"",""2876""
","
","
","""event"",""trial"",""time""
""fullscreenenter"",""1"",""2876""
","
","","","","","","391.09999999962747","images/cactus2.png","","","learning","images/plants_choice1.png","images/plants_choice2.png","images/plants_choice3.png","[0,1,2]","2","2","2","images/plants_choice2.png","-1","plants","","cactus","1","0"
"html-keyboard-response","158","651363","0.0-9.0-2.0-0.36","1798","1","2","""event"",""trial"",""time""
""fullscreenenter"",""1"",""2876""
","
","
","""event"",""trial"",""time""
""fullscreenenter"",""1"",""2876""
","
","","","","","","null","<div style=""font-size:60px;"">+</div>","null","","fixation","","","","","","","","","","","","","",""
"learning-trial","159","655367","0.0-9.0-2.0-1.36","1798","1","2","""event"",""trial"",""time""
""fullscreenenter"",""1"",""2876""
","
","
","""event"",""trial"",""time""
""fullscreenenter"",""1"",""2876""
","
","","","","","","561.3000000007451","images/cactus5.png","","","learning","images/plants_choice2.png","images/plants_choice1.png","images/plants_choice3.png","[1,0,2]","2","2","1","images/plants_choice2.png","-1","plants","","cactus","1","0"
"html-keyboard-response","160","655868","0.0-9.0-2.0-0.37","1798","1","2","""event"",""trial"",""time""
""fullscreenenter"",""1"",""2876""
","
","
","""event"",""trial"",""time""
""fullscreenenter"",""1"",""2876""
","
","","","","","","null","<div style=""font-size:60px;"">+</div>","null","","fixation","","","","","","","","","","","","","",""
"learning-trial","161","659872","0.0-9.0-2.0-1.37","1798","1","2","""event"",""trial"",""time""
""fullscreenenter"",""1"",""2876""
","
","
","""event"",""trial"",""time""
""fullscreenenter"",""1"",""2876""
","
","","","","","","582.1999999992549","images/cactus2.png","","","learning","images/plants_choice3.png","images/plants_choice2.png","images/plants_choice1.png","[2,1,0]","2","0","3","images/plants_choice1.png","-1","plants","","cactus","1","0"
"html-keyboard-response","162","660373","0.0-9.0-2.0-0.38","1798","1","2","""event"",""trial"",""time""
""fullscreenenter"",""1"",""2876""
","
","
","""event"",""trial"",""time""
""fullscreenenter"",""1"",""2876""
","
","","","","","","null","<div style=""font-size:60px;"">+</div>","null","","fixation","","","","","","","","","","","","","",""
"learning-trial","163","664377","0.0-9.0-2.0-1.38","1798","1","2","""event"",""trial"",""time""
""fullscreenenter"",""1"",""2876""
","
","
","""event"",""trial"",""time""
""fullscreenenter"",""1"",""2876""
","
","","","","","","320.5","images/cactus5.png","","","learning","images/plants_choice3.png","images/plants_choice2.png","images/plants_choice1.png","[2,1,0]","2","0","2","images/plants_choice2.png","-1","plants","","cactus","1","0"
"html-keyboard-response","164","664879","0.0-9.0-2.0-0.39","1798","1","2","""event"",""trial"",""time""
""fullscreenenter"",""1"",""2876""
","
","
","""event"",""trial"",""time""
""fullscreenenter"",""1"",""2876""
","
","","","","","","null","<div style=""font-size:60px;"">+</div>","null","","fixation","","","","","","","","","","","","","",""
"learning-trial","165","668883","0.0-9.0-2.0-1.39","1798","1","2","""event"",""trial"",""time""
""fullscreenenter"",""1"",""2876""
","
","
","""event"",""trial"",""time""
""fullscreenenter"",""1"",""2876""
","
","","","","","","817.6000000014901","images/cactus2.png","","","learning","images/plants_choice2.png","images/plants_choice1.png","images/plants_choice3.png","[1,0,2]","2","2","1","images/plants_choice2.png","-1","plants","","cactus","1","0"
"html-keyboard-response","166","669384","0.0-9.0-2.0-0.40","1798","1","2","""event"",""trial"",""time""
""fullscreenenter"",""1"",""2876""
","
","
","""event"",""trial"",""time""
""fullscreenenter"",""1"",""2876""
","
","","","","","","null","<div style=""font-size:60px;"">+</div>","null","","fixation","","","","","","","","","","","","","",""
"learning-trial","167","673388","0.0-9.0-2.0-1.40","1798","1","2","""event"",""trial"",""time""
""fullscreenenter"",""1"",""2876""
","
","
","""event"",""trial"",""time""
""fullscreenenter"",""1"",""2876""
","
","","","","","","490.90000000037253","images/flower5.png","","","learning","images/plants_choice1.png","images/plants_choice3.png","images/plants_choice2.png","[0,2,1]","1","2","2","images/plants_choice3.png","-1","plants","","flower","1","0"
"html-keyboard-response","168","673889","0.0-9.0-2.0-0.41","1798","1","2","""event"",""trial"",""time""
""fullscreenenter"",""1"",""2876""
","
","
","""event"",""trial"",""time""
""fullscreenenter"",""1"",""2876""
","
","","","","","","null","<div style=""font-size:60px;"">+</div>","null","","fixation","","","","","","","","","","","","","",""
"learning-trial","169","677894","0.0-9.0-2.0-1.41","1798","1","2","""event"",""trial"",""time""
""fullscreenenter"",""1"",""2876""
","
","
","""event"",""trial"",""time""
""fullscreenenter"",""1"",""2876""
","
","","","","","","1959.7999999988824","images/cactus1.png","","","learning","images/plants_choice1.png","images/plants_choice2.png","images/plants_choice3.png","[0,1,2]","2","2","1","images/plants_choice1.png","-1","plants","","cactus","1","0"
"html-keyboard-response","170","678395","0.0-9.0-2.0-0.42","1798","1","2","""event"",""trial"",""time""
""fullscreenenter"",""1"",""2876""
","
","
","""event"",""trial"",""time""
""fullscreenenter"",""1"",""2876""
","
","","","","","","null","<div style=""font-size:60px;"">+</div>","null","","fixation","","","","","","","","","","","","","",""
"learning-trial","171","682398","0.0-9.0-2.0-1.42","1798","1","2","""event"",""trial"",""time""
""fullscreenenter"",""1"",""2876""
","
","
","""event"",""trial"",""time""
""fullscreenenter"",""1"",""2876""
","
","","","","","","1096.800000000745","images/flower4.png","","","learning","images/plants_choice3.png","images/plants_choice2.png","images/plants_choice1.png","[2,1,0]","1","1","2","images/plants_choice2.png","1","plants","","flower","1","0"
"html-keyboard-response","172","682900","0.0-9.0-2.0-0.43","1798","1","2","""event"",""trial"",""time""
""fullscreenenter"",""1"",""2876""
","
","
","""event"",""trial"",""time""
""fullscreenenter"",""1"",""2876""
","
","","","","","","null","<div style=""font-size:60px;"">+</div>","null","","fixation","","","","","","","","","","","","","",""
"learning-trial","173","686903","0.0-9.0-2.0-1.43","1798","1","2","""event"",""trial"",""time""
""fullscreenenter"",""1"",""2876""
","
","
","""event"",""trial"",""time""
""fullscreenenter"",""1"",""2876""
","
","","","","","","2038.699999999255","images/flower1.png","","","learning","images/plants_choice2.png","images/plants_choice3.png","images/plants_choice1.png","[1,2,0]","1","0","2","images/plants_choice3.png","-1","plants","","flower","1","0"
"html-keyboard-response","174","687405","0.0-9.0-2.0-0.44","1798","1","2","""event"",""trial"",""time""
""fullscreenenter"",""1"",""2876""
","
","
","""event"",""trial"",""time""
""fullscreenenter"",""1"",""2876""
","
","","","","","","null","<div style=""font-size:60px;"">+</div>","null","","fixation","","","","","","","","","","","","","",""
"learning-trial","175","691408","0.0-9.0-2.0-1.44","1798","1","2","""event"",""trial"",""time""
""fullscreenenter"",""1"",""2876""
","
","
","""event"",""trial"",""time""
""fullscreenenter"",""1"",""2876""
","
","","","","","","1246.4000000003725","images/tree1.png","","","learning","images/plants_choice1.png","images/plants_choice3.png","images/plants_choice2.png","[0,2,1]","0","0","1","images/plants_choice1.png","-1","plants","","tree","1","0"
"html-keyboard-response","176","691910","0.0-9.0-2.0-0.45","1798","1","2","""event"",""trial"",""time""
""fullscreenenter"",""1"",""2876""
","
","
","""event"",""trial"",""time""
""fullscreenenter"",""1"",""2876""
","
","","","","","","null","<div style=""font-size:60px;"">+</div>","null","","fixation","","","","","","","","","","","","","",""
"learning-trial","177","695913","0.0-9.0-2.0-1.45","1798","1","2","""event"",""trial"",""time""
""fullscreenenter"",""1"",""2876""
","
","
","""event"",""trial"",""time""
""fullscreenenter"",""1"",""2876""
","
","","","","","","1401.2999999988824","images/flower4.png","","","learning","images/plants_choice1.png","images/plants_choice2.png","images/plants_choice3.png","[0,1,2]","1","1","2","images/plants_choice2.png","1","plants","","flower","1","0"
"html-keyboard-response","178","696414","0.0-9.0-2.0-0.46","1798","1","2","""event"",""trial"",""time""
""fullscreenenter"",""1"",""2876""
","
","
","""event"",""trial"",""time""
""fullscreenenter"",""1"",""2876""
","
","","","","","","null","<div style=""font-size:60px;"">+</div>","null","","fixation","","","","","","","","","","","","","",""
"learning-trial","179","700417","0.0-9.0-2.0-1.46","1798","1","2","""event"",""trial"",""time""
""fullscreenenter"",""1"",""2876""
","
","
","""event"",""trial"",""time""
""fullscreenenter"",""1"",""2876""
","
","","","","","","1712.0999999996275","images/tree1.png","","","learning","images/plants_choice2.png","images/plants_choice3.png","images/plants_choice1.png","[1,2,0]","0","2","2","images/plants_choice3.png","-1","plants","","tree","1","0"
"html-keyboard-response","180","700918","0.0-9.0-2.0-0.47","1798","1","2","""event"",""trial"",""time""
""fullscreenenter"",""1"",""2876""
","
","
","""event"",""trial"",""time""
""fullscreenenter"",""1"",""2876""
","
","","","","","","null","<div style=""font-size:60px;"">+</div>","null","","fixation","","","","","","","","","","","","","",""
"learning-trial","181","704921","0.0-9.0-2.0-1.47","1798","1","2","""event"",""trial"",""time""
""fullscreenenter"",""1"",""2876""
","
","
","""event"",""trial"",""time""
""fullscreenenter"",""1"",""2876""
","
","","","","","","1561.9000000003725","images/flower1.png","","","learning","images/plants_choice1.png","images/plants_choice3.png","images/plants_choice2.png","[0,2,1]","1","2","3","images/plants_choice2.png","1","plants","","flower","1","0"
"html-keyboard-response","182","705422","0.0-9.0-2.0-0.48","1798","1","2","""event"",""trial"",""time""
""fullscreenenter"",""1"",""2876""
","
","
","""event"",""trial"",""time""
""fullscreenenter"",""1"",""2876""
","
","","","","","","null","<div style=""font-size:60px;"">+</div>","null","","fixation","","","","","","","","","","","","","",""
"learning-trial","183","709425","0.0-9.0-2.0-1.48","1798","1","2","""event"",""trial"",""time""
""fullscreenenter"",""1"",""2876""
","
","
","""event"",""trial"",""time""
""fullscreenenter"",""1"",""2876""
","
","","","","","","1049.2000000011176","images/flower5.png","","","learning","images/plants_choice2.png","images/plants_choice1.png","images/plants_choice3.png","[1,0,2]","1","0","3","images/plants_choice3.png","-1","plants","","flower","1","0"
"html-keyboard-response","184","709927","0.0-9.0-2.0-0.49","1798","1","2","""event"",""trial"",""time""
""fullscreenenter"",""1"",""2876""
","
","
","""event"",""trial"",""time""
""fullscreenenter"",""1"",""2876""
","
","","","","","","null","<div style=""font-size:60px;"">+</div>","null","","fixation","","","","","","","","","","","","","",""
"learning-trial","185","713930","0.0-9.0-2.0-1.49","1798","1","2","""event"",""trial"",""time""
""fullscreenenter"",""1"",""2876""
","
","
","""event"",""trial"",""time""
""fullscreenenter"",""1"",""2876""
","
","","","","","","1422.5","images/tree2.png","","","learning","images/plants_choice1.png","images/plants_choice3.png","images/plants_choice2.png","[0,2,1]","0","0","1","images/plants_choice1.png","1","plants","","tree","1","0"
"html-keyboard-response","186","714431","0.0-9.0-2.0-0.50","1798","1","2","""event"",""trial"",""time""
""fullscreenenter"",""1"",""2876""
","
","
","""event"",""trial"",""time""
""fullscreenenter"",""1"",""2876""
","
","","","","","","null","<div style=""font-size:60px;"">+</div>","null","","fixation","","","","","","","","","","","","","",""
"learning-trial","187","718434","0.0-9.0-2.0-1.50","1798","1","2","""event"",""trial"",""time""
""fullscreenenter"",""1"",""2876""
","
","
","""event"",""trial"",""time""
""fullscreenenter"",""1"",""2876""
","
","","","","","","730.2000000011176","images/tree2.png","","","learning","images/plants_choice2.png","images/plants_choice1.png","images/plants_choice3.png","[1,0,2]","0","1","1","images/plants_choice2.png","1","plants","","tree","1","0"
"html-keyboard-response","188","718936","0.0-9.0-2.0-0.51","1798","1","2","""event"",""trial"",""time""
""fullscreenenter"",""1"",""2876""
","
","
","""event"",""trial"",""time""
""fullscreenenter"",""1"",""2876""
","
","","","","","","null","<div style=""font-size:60px;"">+</div>","null","","fixation","","","","","","","","","","","","","",""
"learning-trial","189","722939","0.0-9.0-2.0-1.51","1798","1","2","""event"",""trial"",""time""
""fullscreenenter"",""1"",""2876""
","
","
","""event"",""trial"",""time""
""fullscreenenter"",""1"",""2876""
","
","","","","","","983.5999999996275","images/cactus1.png","","","learning","images/plants_choice1.png","images/plants_choice3.png","images/plants_choice2.png","[0,2,1]","2","1","2","images/plants_choice3.png","1","plants","","cactus","1","0"
"html-keyboard-response","190","723441","0.0-9.0-2.0-0.52","1798","1","2","""event"",""trial"",""time""
""fullscreenenter"",""1"",""2876""
","
","
","""event"",""trial"",""time""
""fullscreenenter"",""1"",""2876""
","
","","","","","","null","<div style=""font-size:60px;"">+</div>","null","","fixation","","","","","","","","","","","","","",""
"learning-trial","191","727444","0.0-9.0-2.0-1.52","1798","1","2","""event"",""trial"",""time""
""fullscreenenter"",""1"",""2876""
","
","
","""event"",""trial"",""time""
""fullscreenenter"",""1"",""2876""
","
","","","","","","1333.3999999985099","images/tree5.png","","","learning","images/plants_choice1.png","images/plants_choice3.png","images/plants_choice2.png","[0,2,1]","0","0","3","images/plants_choice2.png","-1","plants","","tree","1","0"
"html-keyboard-response","192","727945","0.0-9.0-2.0-0.53","1798","1","2","""event"",""trial"",""time""
""fullscreenenter"",""1"",""2876""
","
","
","""event"",""trial"",""time""
""fullscreenenter"",""1"",""2876""
","
","","","","","","null","<div style=""font-size:60px;"">+</div>","null","","fixation","","","","","","","","","","","","","",""
"learning-trial","193","731948","0.0-9.0-2.0-1.53","1798","1","2","""event"",""trial"",""time""
""fullscreenenter"",""1"",""2876""
","
","
","""event"",""trial"",""time""
""fullscreenenter"",""1"",""2876""
","
","","","","","","883.6000000014901","images/cactus2.png","","","learning","images/plants_choice2.png","images/plants_choice1.png","images/plants_choice3.png","[1,0,2]","2","2","2","images/plants_choice1.png","-1","plants","","cactus","1","0"
"html-keyboard-response","194","732450","0.0-9.0-2.0-0.54","1798","1","2","""event"",""trial"",""time""
""fullscreenenter"",""1"",""2876""
","
","
","""event"",""trial"",""time""
""fullscreenenter"",""1"",""2876""
","
","","","","","","null","<div style=""font-size:60px;"">+</div>","null","","fixation","","","","","","","","","","","","","",""
"learning-trial","195","736453","0.0-9.0-2.0-1.54","1798","1","2","""event"",""trial"",""time""
""fullscreenenter"",""1"",""2876""
","
","
","""event"",""trial"",""time""
""fullscreenenter"",""1"",""2876""
","
","","","","","","785.7999999988824","images/flower4.png","","","learning","images/plants_choice1.png","images/plants_choice3.png","images/plants_choice2.png","[0,2,1]","1","2","2","images/plants_choice3.png","-1","plants","","flower","1","0"
"html-keyboard-response","196","736955","0.0-9.0-2.0-0.55","1798","1","2","""event"",""trial"",""time""
""fullscreenenter"",""1"",""2876""
","
","
","""event"",""trial"",""time""
""fullscreenenter"",""1"",""2876""
","
","","","","","","null","<div style=""font-size:60px;"">+</div>","null","","fixation","","","","","","","","","","","","","",""
"learning-trial","197","740958","0.0-9.0-2.0-1.55","1798","1","2","""event"",""trial"",""time""
""fullscreenenter"",""1"",""2876""
","
","
","""event"",""trial"",""time""
""fullscreenenter"",""1"",""2876""
","
","","","","","","1872.2000000011176","images/flower1.png","","","learning","images/plants_choice2.png","images/plants_choice3.png","images/plants_choice1.png","[1,2,0]","1","0","1","images/plants_choice2.png","1","plants","","flower","1","0"
"html-keyboard-response","198","741459","0.0-9.0-2.0-0.56","1798","1","2","""event"",""trial"",""time""
""fullscreenenter"",""1"",""2876""
","
","
","""event"",""trial"",""time""
""fullscreenenter"",""1"",""2876""
","
","","","","","","null","<div style=""font-size:60px;"">+</div>","null","","fixation","","","","","","","","","","","","","",""
"learning-trial","199","745462","0.0-9.0-2.0-1.56","1798","1","2","""event"",""trial"",""time""
""fullscreenenter"",""1"",""2876""
","
","
","""event"",""trial"",""time""
""fullscreenenter"",""1"",""2876""
","
","","","","","","1456.0999999996275","images/flower1.png","","","learning","images/plants_choice2.png","images/plants_choice1.png","images/plants_choice3.png","[1,0,2]","1","0","1","images/plants_choice2.png","1","plants","","flower","1","0"
"html-keyboard-response","200","745964","0.0-9.0-2.0-0.57","1798","1","2","""event"",""trial"",""time""
""fullscreenenter"",""1"",""2876""
","
","
","""event"",""trial"",""time""
""fullscreenenter"",""1"",""2876""
","
","","","","","","null","<div style=""font-size:60px;"">+</div>","null","","fixation","","","","","","","","","","","","","",""
"learning-trial","201","749967","0.0-9.0-2.0-1.57","1798","1","2","""event"",""trial"",""time""
""fullscreenenter"",""1"",""2876""
","
","
","""event"",""trial"",""time""
""fullscreenenter"",""1"",""2876""
","
","","","","","","930.4000000003725","images/cactus1.png","","","learning","images/plants_choice2.png","images/plants_choice1.png","images/plants_choice3.png","[1,0,2]","2","2","2","images/plants_choice1.png","-1","plants","","cactus","1","0"
"html-keyboard-response","202","750468","0.0-9.0-2.0-0.58","1798","1","2","""event"",""trial"",""time""
""fullscreenenter"",""1"",""2876""
","
","
","""event"",""trial"",""time""
""fullscreenenter"",""1"",""2876""
","
","","","","","","null","<div style=""font-size:60px;"">+</div>","null","","fixation","","","","","","","","","","","","","",""
"learning-trial","203","754471","0.0-9.0-2.0-1.58","1798","1","2","""event"",""trial"",""time""
""fullscreenenter"",""1"",""2876""
","
","
","""event"",""trial"",""time""
""fullscreenenter"",""1"",""2876""
","
","","","","","","359.2000000011176","images/cactus1.png","","","learning","images/plants_choice1.png","images/plants_choice2.png","images/plants_choice3.png","[0,1,2]","2","2","3","images/plants_choice3.png","1","plants","","cactus","1","0"
"html-keyboard-response","204","754973","0.0-9.0-2.0-0.59","1798","1","2","""event"",""trial"",""time""
""fullscreenenter"",""1"",""2876""
","
","
","""event"",""trial"",""time""
""fullscreenenter"",""1"",""2876""
","
","","","","","","null","<div style=""font-size:60px;"">+</div>","null","","fixation","","","","","","","","","","","","","",""
"learning-trial","205","758976","0.0-9.0-2.0-1.59","1798","1","2","""event"",""trial"",""time""
""fullscreenenter"",""1"",""2876""
","
","
","""event"",""trial"",""time""
""fullscreenenter"",""1"",""2876""
","
","","","","","","1045.4000000003725","images/cactus2.png","","","learning","images/plants_choice1.png","images/plants_choice3.png","images/plants_choice2.png","[0,2,1]","2","1","2","images/plants_choice3.png","1","plants","","cactus","1","0"
"html-keyboard-response","206","759478","0.0-9.0-2.0-0.60","1798","1","2","""event"",""trial"",""time""
""fullscreenenter"",""1"",""2876""
","
","
","""event"",""trial"",""time""
""fullscreenenter"",""1"",""2876""
","
","","","","","","null","<div style=""font-size:60px;"">+</div>","null","","fixation","","","","","","","","","","","","","",""
"learning-trial","207","763481","0.0-9.0-2.0-1.60","1798","1","2","""event"",""trial"",""time""
""fullscreenenter"",""1"",""2876""
","
","
","""event"",""trial"",""time""
""fullscreenenter"",""1"",""2876""
","
","","","","","","951.7999999988824","images/cactus1.png","","","learning","images/plants_choice1.png","images/plants_choice2.png","images/plants_choice3.png","[0,1,2]","2","2","3","images/plants_choice3.png","1","plants","","cactus","1","0"
"html-keyboard-response","208","763983","0.0-9.0-2.0-0.61","1798","1","2","""event"",""trial"",""time""
""fullscreenenter"",""1"",""2876""
","
","
","""event"",""trial"",""time""
""fullscreenenter"",""1"",""2876""
","
","","","","","","null","<div style=""font-size:60px;"">+</div>","null","","fixation","","","","","","","","","","","","","",""
"learning-trial","209","767986","0.0-9.0-2.0-1.61","1798","1","2","""event"",""trial"",""time""
""fullscreenenter"",""1"",""2876""
","
","
","""event"",""trial"",""time""
""fullscreenenter"",""1"",""2876""
","
","","","","","","885.1999999992549","images/flower1.png","","","learning","images/plants_choice1.png","images/plants_choice2.png","images/plants_choice3.png","[0,1,2]","1","1","2","images/plants_choice2.png","1","plants","","flower","1","0"
"html-keyboard-response","210","768487","0.0-9.0-2.0-0.62","1798","1","2","""event"",""trial"",""time""
""fullscreenenter"",""1"",""2876""
","
","
","""event"",""trial"",""time""
""fullscreenenter"",""1"",""2876""
","
","","","","","","null","<div style=""font-size:60px;"">+</div>","null","","fixation","","","","","","","","","","","","","",""
"learning-trial","211","772490","0.0-9.0-2.0-1.62","1798","1","2","""event"",""trial"",""time""
""fullscreenenter"",""1"",""2876""
","
","
","""event"",""trial"",""time""
""fullscreenenter"",""1"",""2876""
","
","","","","","","340.7000000011176","images/cactus5.png","","","learning","images/plants_choice1.png","images/plants_choice2.png","images/plants_choice3.png","[0,1,2]","2","2","2","images/plants_choice2.png","-1","plants","","cactus","1","0"
"html-keyboard-response","212","772992","0.0-9.0-2.0-0.63","1798","1","2","""event"",""trial"",""time""
""fullscreenenter"",""1"",""2876""
","
","
","""event"",""trial"",""time""
""fullscreenenter"",""1"",""2876""
","
","","","","","","null","<div style=""font-size:60px;"">+</div>","null","","fixation","","","","","","","","","","","","","",""
"learning-trial","213","776995","0.0-9.0-2.0-1.63","1798","1","2","""event"",""trial"",""time""
""fullscreenenter"",""1"",""2876""
","
","
","""event"",""trial"",""time""
""fullscreenenter"",""1"",""2876""
","
","","","","","","625.6999999992549","images/tree5.png","","","learning","images/plants_choice1.png","images/plants_choice2.png","images/plants_choice3.png","[0,1,2]","0","0","1","images/plants_choice1.png","1","plants","","tree","1","0"
"html-keyboard-response","214","777497","0.0-9.0-2.0-0.64","1798","1","2","""event"",""trial"",""time""
""fullscreenenter"",""1"",""2876""
","
","
","""event"",""trial"",""time""
""fullscreenenter"",""1"",""2876""
","
","","","","","","null","<div style=""font-size:60px;"">+</div>","null","","fixation","","","","","","","","","","","","","",""
"learning-trial","215","781501","0.0-9.0-2.0-1.64","1798","1","2","""event"",""trial"",""time""
""fullscreenenter"",""1"",""2876""
","
","
","""event"",""trial"",""time""
""fullscreenenter"",""1"",""2876""
","
","","","","","","1851.0999999996275","images/flower4.png","","","learning","images/plants_choice3.png","images/plants_choice1.png","images/plants_choice2.png","[2,0,1]","1","2","2","images/plants_choice1.png","-1","plants","","flower","1","0"
"html-keyboard-response","216","782002","0.0-9.0-2.0-0.65","1798","1","2","""event"",""trial"",""time""
""fullscreenenter"",""1"",""2876""
","
","
","""event"",""trial"",""time""
""fullscreenenter"",""1"",""2876""
","
","","","","","","null","<div style=""font-size:60px;"">+</div>","null","","fixation","","","","","","","","","","","","","",""
"learning-trial","217","786005","0.0-9.0-2.0-1.65","1798","1","2","""event"",""trial"",""time""
""fullscreenenter"",""1"",""2876""
","
","
","""event"",""trial"",""time""
""fullscreenenter"",""1"",""2876""
","
","","","","","","860","images/tree1.png","","","learning","images/plants_choice1.png","images/plants_choice2.png","images/plants_choice3.png","[0,1,2]","0","0","1","images/plants_choice1.png","1","plants","","tree","1","0"
"html-keyboard-response","218","786507","0.0-9.0-2.0-0.66","1798","1","2","""event"",""trial"",""time""
""fullscreenenter"",""1"",""2876""
","
","
","""event"",""trial"",""time""
""fullscreenenter"",""1"",""2876""
","
","","","","","","null","<div style=""font-size:60px;"">+</div>","null","","fixation","","","","","","","","","","","","","",""
"learning-trial","219","790510","0.0-9.0-2.0-1.66","1798","1","2","""event"",""trial"",""time""
""fullscreenenter"",""1"",""2876""
","
","
","""event"",""trial"",""time""
""fullscreenenter"",""1"",""2876""
","
","","","","","","2643.5","images/tree1.png","","","learning","images/plants_choice2.png","images/plants_choice3.png","images/plants_choice1.png","[1,2,0]","0","2","2","images/plants_choice3.png","-1","plants","","tree","1","0"
"html-keyboard-response","220","791012","0.0-9.0-2.0-0.67","1798","1","2","""event"",""trial"",""time""
""fullscreenenter"",""1"",""2876""
","
","
","""event"",""trial"",""time""
""fullscreenenter"",""1"",""2876""
","
","","","","","","null","<div style=""font-size:60px;"">+</div>","null","","fixation","","","","","","","","","","","","","",""
"learning-trial","221","795015","0.0-9.0-2.0-1.67","1798","1","2","""event"",""trial"",""time""
""fullscreenenter"",""1"",""2876""
","
","
","""event"",""trial"",""time""
""fullscreenenter"",""1"",""2876""
","
","","","","","","1930.4000000003725","images/tree2.png","","","learning","images/plants_choice2.png","images/plants_choice3.png","images/plants_choice1.png","[1,2,0]","0","2","2","images/plants_choice3.png","-1","plants","","tree","1","0"
"html-keyboard-response","222","795517","0.0-9.0-2.0-0.68","1798","1","2","""event"",""trial"",""time""
""fullscreenenter"",""1"",""2876""
","
","
","""event"",""trial"",""time""
""fullscreenenter"",""1"",""2876""
","
","","","","","","null","<div style=""font-size:60px;"">+</div>","null","","fixation","","","","","","","","","","","","","",""
"learning-trial","223","799520","0.0-9.0-2.0-1.68","1798","1","2","""event"",""trial"",""time""
""fullscreenenter"",""1"",""2876""
","
","
","""event"",""trial"",""time""
""fullscreenenter"",""1"",""2876""
","
","","","","","","46.09999999962747","images/flower4.png","","","learning","images/plants_choice3.png","images/plants_choice1.png","images/plants_choice2.png","[2,0,1]","1","2","1","images/plants_choice3.png","-1","plants","","flower","1","0"
"html-keyboard-response","224","800022","0.0-9.0-2.0-0.69","1798","1","2","""event"",""trial"",""time""
""fullscreenenter"",""1"",""2876""
","
","
","""event"",""trial"",""time""
""fullscreenenter"",""1"",""2876""
","
","","","","","","null","<div style=""font-size:60px;"">+</div>","null","","fixation","","","","","","","","","","","","","",""
"learning-trial","225","804025","0.0-9.0-2.0-1.69","1798","1","2","""event"",""trial"",""time""
""fullscreenenter"",""1"",""2876""
","
","
","""event"",""trial"",""time""
""fullscreenenter"",""1"",""2876""
","
","","","","","","73.90000000037253","images/flower5.png","","","learning","images/plants_choice3.png","images/plants_choice1.png","images/plants_choice2.png","[2,0,1]","1","2","2","images/plants_choice1.png","-1","plants","","flower","1","0"
"html-keyboard-response","226","804527","0.0-9.0-2.0-0.70","1798","1","2","""event"",""trial"",""time""
""fullscreenenter"",""1"",""2876""
","
","
","""event"",""trial"",""time""
""fullscreenenter"",""1"",""2876""
","
","","","","","","null","<div style=""font-size:60px;"">+</div>","null","","fixation","","","","","","","","","","","","","",""
"learning-trial","227","808531","0.0-9.0-2.0-1.70","1798","1","2","""event"",""trial"",""time""
""fullscreenenter"",""1"",""2876""
","
","
","""event"",""trial"",""time""
""fullscreenenter"",""1"",""2876""
","
","","","","","","95.40000000037253","images/tree5.png","","","learning","images/plants_choice1.png","images/plants_choice2.png","images/plants_choice3.png","[0,1,2]","0","0","3","images/plants_choice3.png","-1","plants","","tree","1","0"
"html-keyboard-response","228","809032","0.0-9.0-2.0-0.71","1798","1","2","""event"",""trial"",""time""
""fullscreenenter"",""1"",""2876""
","
","
","""event"",""trial"",""time""
""fullscreenenter"",""1"",""2876""
","
","","","","","","null","<div style=""font-size:60px;"">+</div>","null","","fixation","","","","","","","","","","","","","",""
"learning-trial","229","813035","0.0-9.0-2.0-1.71","1798","1","2","""event"",""trial"",""time""
""fullscreenenter"",""1"",""2876""
","
","
","""event"",""trial"",""time""
""fullscreenenter"",""1"",""2876""
","
","","","","","","85.20000000111759","images/tree2.png","","","learning","images/plants_choice1.png","images/plants_choice2.png","images/plants_choice3.png","[0,1,2]","0","0","2","images/plants_choice2.png","-1","plants","","tree","1","0"
"html-button-response","230","823985","0.0-9.0-3.0","1798","1","2","""event"",""trial"",""time""
""fullscreenenter"",""1"",""2876""
","
","
","""event"",""trial"",""time""
""fullscreenenter"",""1"",""2876""
","
","","","","","","10948.299999998882","<p> You have completed the round! <p> In this round, you earned -16 points! </p>","0","","break","","","","","","","","","","","","","",""
"html-button-response","231","825951","0.0-10.0","1798","1","2","""event"",""trial"",""time""
""fullscreenenter"",""1"",""2876""
","
","
","""event"",""trial"",""time""
""fullscreenenter"",""1"",""2876""
","
","","","","","","1964","<p> Now it's time to play another round. </p>","0","","transition_screen","","","","","","","","","","","","","",""
"preload","232","831450","0.0-11.0-0.0","1798","1","2","""event"",""trial"",""time""
""fullscreenenter"",""1"",""2876""
","
","
","""event"",""trial"",""time""
""fullscreenenter"",""1"",""2876""
","
","true","false","[]","[]","[]","","","","","","","","","","","","","","","","","","",""
"learning-instructions","233","842477","0.0-11.0-1.0-0.0","1798","1","2","""event"",""trial"",""time""
""fullscreenenter"",""1"",""2876""
","
","
","""event"",""trial"",""time""
""fullscreenenter"",""1"",""2876""
","
","","","","","","3138.699999999255","<p> Your goal in this round is to deliver furniture to three different buildings. </p><p> You will need to deliver many pieces of furniture. </p></div>","","0","instructions","","","","","","","","","","","","","",""
"learning-instructions","234","862352","0.0-11.0-1.0-0.1","1798","1","2","""event"",""trial"",""time""
""fullscreenenter"",""1"",""2876""
","
","
","""event"",""trial"",""time""
""fullscreenenter"",""1"",""2876""
","
","","","","","","12448.900000000373","<p> On each turn, you will see a picture of a furniture item and three different buildings.  </p><p> You need to select the building that you want to deliver the furniture to.  </p>","","0","instructions","","","","","","","","","","","","","",""
"learning-instructions","235","873681","0.0-11.0-1.0-0.2","1798","1","2","""event"",""trial"",""time""
""fullscreenenter"",""1"",""2876""
","
","
","""event"",""trial"",""time""
""fullscreenenter"",""1"",""2876""
","
","","","","","","3040.5999999996275","<p> You can select the building on the left by pressing 1, the building in the middle by pressing 2, and the building on the right by pressing 3.  </p><br><div class=""choice-instructions-grid""> <div class=""choice-option""><img src=""images/furniture_choice1.png"" class=""choice-option-img"" stage=""instructions"" position=""0"" ><div class=""choice-option-text""> Press ""1."" </div></div><div class=""choice-option""><img src=""images/furniture_choice2.png"" class=""choice-option-img"" stage=""instructions"" position=""1"" ><div class=""choice-option-text""> Press ""2."" </div></div><div class=""choice-option""><img src=""images/furniture_choice3.png"" class=""choice-option-img"" stage=""instructions"" position=""2"" ><div class=""choice-option-text""> Press ""3."" </div></div></div>","","0","instructions","","","","","","","","","","","","","",""
