"trial_type","trial_index","time_elapsed","internal_node_id","subject_id","condition","task_version","interactions","blur_events","focus_events","fullscreenenter_events","fullscreenexit_events","success","timeout","failed_images","failed_audio","failed_video","rt","stimulus","response","button_pressed","task_part","left_choice","middle_choice","right_choice","choice_positions","correct_response","correct_position","key_press","option_selected","points","task_block","correct","stim_cat","block_condition","block_number"
"pavlovia","0","2","0.0-0.0","1523","2","2","""event"",""trial"",""time""
""fullscreenenter"",""1"",""4612""
","
","
","""event"",""trial"",""time""
""fullscreenenter"",""1"",""4612""
","
","","","","","","","","","","","","","","","","","","","","","","","",""
"fullscreen","1","5607","0.0-1.0","1523","2","2","""event"",""trial"",""time""
""fullscreenenter"",""1"",""4612""
","
","
","""event"",""trial"",""time""
""fullscreenenter"",""1"",""4612""
","
","true","","","","","","","","","","","","","","","","","","","","","","",""
"preload","2","10828","0.0-2.0","1523","2","2","""event"",""trial"",""time""
""fullscreenenter"",""1"",""4612""
","
","
","""event"",""trial"",""time""
""fullscreenenter"",""1"",""4612""
","
","true","false","[]","[]","[]","","","","","","","","","","","","","","","","","","",""
"audio-keyboard-response","3","17622","0.0-3.0","1523","2","2","""event"",""trial"",""time""
""fullscreenenter"",""1"",""4612""
","
","
","""event"",""trial"",""time""
""fullscreenenter"",""1"",""4612""
","
","","","","","","6789.333333333333","audio/beep_loop.wav"," ","","","","","","","","","","","","","","","",""
"audio-button-response","4","24205","0.0-4.0","1523","2","2","""event"",""trial"",""time""
""fullscreenenter"",""1"",""4612""
","
","
","""event"",""trial"",""time""
""fullscreenenter"",""1"",""4612""
","
","","","","","","6579","audio/shark.wav","0","","","","","","","","","","","","","","","",""
"audio-button-response","5","26427","0.0-5.0","1523","2","2","""event"",""trial"",""time""
""fullscreenenter"",""1"",""4612""
","
","
","""event"",""trial"",""time""
""fullscreenenter"",""1"",""4612""
","
","","","","","","1221","audio/turtle.wav","1","","","","","","","","","","","","","","","",""
"preload","6","36368","0.0-6.0","1523","2","2","""event"",""trial"",""time""
""fullscreenenter"",""1"",""4612""
","
","
","""event"",""trial"",""time""
""fullscreenenter"",""1"",""4612""
","
","true","false","[]","[]","[]","","","","","","","","","","","","","","","","","","",""
"html-keyboard-response","7","42694","0.0-7.0","1523","2","2","""event"",""trial"",""time""
""fullscreenenter"",""1"",""4612""
","
","
","""event"",""trial"",""time""
""fullscreenenter"",""1"",""4612""
","
","","","","","","6324.700000017881","Welcome to the experiment. Press any key to begin and to advance the instructions."," ","","","","","","","","","","","","","","","",""
"learning-instructions","8","51859","0.0-8.0-0.0-0.0","1523","2","2","""event"",""trial"",""time""
""fullscreenenter"",""1"",""4612""
","
","
","""event"",""trial"",""time""
""fullscreenenter"",""1"",""4612""
","
","","","","","","1420.699999988079","<p> Welcome! Today you are going to play 6 different rounds of a decision-making game. </p><p> Use the mouse to click next to continue. </p>","","0","instructions","","","","","","","","","","","","","",""
"learning-instructions","9","55648","0.0-8.0-0.0-0.1","1523","2","2","""event"",""trial"",""time""
""fullscreenenter"",""1"",""4612""
","
","
","""event"",""trial"",""time""
""fullscreenenter"",""1"",""4612""
","
","","","","","","770","<p> You will start with a practice round to learn the rules. </p>","","0","instructions","","","","","","","","","","","","","",""
"learning-instructions","10","63609","0.0-8.0-0.0-0.2","1523","2","2","""event"",""trial"",""time""
""fullscreenenter"",""1"",""4612""
","
","
","""event"",""trial"",""time""
""fullscreenenter"",""1"",""4612""
","
","","","","","","220","<p> Your goal in this round is to deliver sports equipment to three different parks. </p><p> You will need to deliver many types of equipment. </p></div>","","0","instructions","","","","","","","","","","","","","",""
"learning-instructions","11","73578","0.0-8.0-0.0-0.3","1523","2","2","""event"",""trial"",""time""
""fullscreenenter"",""1"",""4612""
","
","
","""event"",""trial"",""time""
""fullscreenenter"",""1"",""4612""
","
","","","","","","1469.5999999940395","<p> On each turn, you will see one piece of sports equipment and three different parks.  </p><p> You need to select which park to deliver the equipment to.  </p>","","0","instructions","","","","","","","","","","","","","",""
"learning-instructions","12","88258","0.0-8.0-0.0-0.4","1523","2","2","""event"",""trial"",""time""
""fullscreenenter"",""1"",""4612""
","
","
","""event"",""trial"",""time""
""fullscreenenter"",""1"",""4612""
","
","","","","","","1380.2000000178814","<p> You can select the park on the left by pressing the '1' key on your keyboard. <br>You can select the park in the middle by pressing the '2' key on your keyboard. <br>You can select the park on the right by pressing the '3' key on your keyboard.  </p><br><div class=""choice-instructions-grid""> <div class=""choice-option""><img src=""images/park1.png"" class=""choice-option-img"" stage=""instructions"" position=""0"" ><div class=""choice-option-text""> Press ""1."" </div></div><div class=""choice-option""><img src=""images/park2.png"" class=""choice-option-img"" stage=""instructions"" position=""1"" ><div class=""choice-option-text""> Press ""2."" </div></div><div class=""choice-option""><img src=""images/park3.png"" class=""choice-option-img"" stage=""instructions"" position=""2"" ><div class=""choice-option-text""> Press ""3."" </div></div></div>","","0","instructions","","","","","","","","","","","","","",""
"learning-instructions","13","94699","0.0-8.0-0.0-0.5","1523","2","2","""event"",""trial"",""time""
""fullscreenenter"",""1"",""4612""
","
","
","""event"",""trial"",""time""
""fullscreenenter"",""1"",""4612""
","
","","","","","","1060.1000000238419","<p> If the kids in the park you chose like the equipment, they will be very happy! </p><div style='float: center;'><img src='images/check.png' width = '200' height = '200'></img>","","0","instructions","","","","","","","","","","","","","",""
"learning-instructions","14","102998","0.0-8.0-0.0-0.6","1523","2","2","""event"",""trial"",""time""
""fullscreenenter"",""1"",""4612""
","
","
","""event"",""trial"",""time""
""fullscreenenter"",""1"",""4612""
","
","","","","","","2699.199999988079","<p> But, if the kids in the park you chose do not like the equipment, they will be sad. </p><div style='float: center;'><img src='images/x.png' width = '200' height = '200'></img>","","0","instructions","","","","","","","","","","","","","",""
"learning-instructions","15","111208","0.0-8.0-0.0-0.7","1523","2","2","""event"",""trial"",""time""
""fullscreenenter"",""1"",""4612""
","
","
","""event"",""trial"",""time""
""fullscreenenter"",""1"",""4612""
","
","","","","","","1759.800000011921","<p> Importantly, the kids in each park like some pieces of sports equipment more than others. </p>","","0","instructions","","","","","","","","","","","","","",""
"learning-instructions","16","118419","0.0-8.0-0.0-0.8","1523","2","2","""event"",""trial"",""time""
""fullscreenenter"",""1"",""4612""
","
","
","""event"",""trial"",""time""
""fullscreenenter"",""1"",""4612""
","
","","","","","","1160.699999988079","<p> If you choose the best park for each piece of equipment, the kids there will usually be happy. </p>","","0","instructions","","","","","","","","","","","","","",""
"learning-instructions","17","126715","0.0-8.0-0.0-0.9","1523","2","2","""event"",""trial"",""time""
""fullscreenenter"",""1"",""4612""
","
","
","""event"",""trial"",""time""
""fullscreenenter"",""1"",""4612""
","
","","","","","","1657.0999999940395","<p> However, even if you choose the best park for the equipment, the kids may sometimes be sad. </p>","","0","instructions","","","","","","","","","","","","","",""
"learning-instructions","18","140268","0.0-8.0-0.0-0.10","1523","2","2","""event"",""trial"",""time""
""fullscreenenter"",""1"",""4612""
","
","
","""event"",""trial"",""time""
""fullscreenenter"",""1"",""4612""
","
","","","","","","6310.100000023842","<p> Similarly, even if you choose the <i>wrong</i> park for the equipment, the kids may still be happy sometimes.","","0","instructions","","","","","","","","","","","","","",""
"learning-instructions","19","148129","0.0-8.0-0.0-0.11","1523","2","2","""event"",""trial"",""time""
""fullscreenenter"",""1"",""4612""
","
","
","""event"",""trial"",""time""
""fullscreenenter"",""1"",""4612""
","
","","","","","","2800.0999999940395","<p> For example, the best park for this soccer ball is this one.<div style='float: center;'><img src='images/i1.png' width = '500' height = '268'></img>","","0","instructions","","","","","","","","","","","","","",""
"learning-instructions","20","154474","0.0-8.0-0.0-0.12","1523","2","2","""event"",""trial"",""time""
""fullscreenenter"",""1"",""4612""
","
","
","""event"",""trial"",""time""
""fullscreenenter"",""1"",""4612""
","
","","","","","","1035.4000000059605","<p> Let's see what happens if you choose this park for the soccer ball five times.","","0","instructions","","","","","","","","","","","","","",""
"learning-instructions","21","159928","0.0-8.0-0.0-0.13","1523","2","2","""event"",""trial"",""time""
""fullscreenenter"",""1"",""4612""
","
","
","""event"",""trial"",""time""
""fullscreenenter"",""1"",""4612""
","
","","","","","","3279.4000000059605","<p> The kids are happy.<div style='float: left;'><img src='images/i2.png' width = '640' height = '360'></img>","","0","instructions","","","","","","","","","","","","","",""
"learning-instructions","22","162468","0.0-8.0-0.0-0.14","1523","2","2","""event"",""trial"",""time""
""fullscreenenter"",""1"",""4612""
","
","
","""event"",""trial"",""time""
""fullscreenenter"",""1"",""4612""
","
","","","","","","369.19999998807907","<p> The kids are happy.<div style='float: left;'><img src='images/i3.png' width = '640' height = '360'></img>","","0","instructions","","","","","","","","","","","","","",""
"learning-instructions","23","165308","0.0-8.0-0.0-0.15","1523","2","2","""event"",""trial"",""time""
""fullscreenenter"",""1"",""4612""
","
","
","""event"",""trial"",""time""
""fullscreenenter"",""1"",""4612""
","
","","","","","","660","<p> The kids are happy.<div style='float: left;'><img src='images/i4.png' width = '640' height = '360'></img>","","0","instructions","","","","","","","","","","","","","",""
"learning-instructions","24","168112","0.0-8.0-0.0-0.16","1523","2","2","""event"",""trial"",""time""
""fullscreenenter"",""1"",""4612""
","
","
","""event"",""trial"",""time""
""fullscreenenter"",""1"",""4612""
","
","","","","","","594.1000000238419","<p> The kids are sad.<div style='float: left;'><img src='images/i5.png' width = '640' height = '360'></img>","","0","instructions","","","","","","","","","","","","","",""
"learning-instructions","25","171808","0.0-8.0-0.0-0.17","1523","2","2","""event"",""trial"",""time""
""fullscreenenter"",""1"",""4612""
","
","
","""event"",""trial"",""time""
""fullscreenenter"",""1"",""4612""
","
","","","","","","1519.699999988079","<p> The kids are happy.<div style='float: left;'><img src='images/i6.png' width = '640' height = '360'></img>","","0","instructions","","","","","","","","","","","","","",""
"learning-instructions","26","184278","0.0-8.0-0.0-0.18","1523","2","2","""event"",""trial"",""time""
""fullscreenenter"",""1"",""4612""
","
","
","""event"",""trial"",""time""
""fullscreenenter"",""1"",""4612""
","
","","","","","","5180.100000023842","<p> As you can see, selecting that park for the soccer ball made the kids happy most of the time, but not all the time.","","0","instructions","","","","","","","","","","","","","",""
"learning-instructions","27","190987","0.0-8.0-0.0-0.19","1523","2","2","""event"",""trial"",""time""
""fullscreenenter"",""1"",""4612""
","
","
","""event"",""trial"",""time""
""fullscreenenter"",""1"",""4612""
","
","","","","","","698.5","<p> Now let's see what happens if you choose a DIFFERENT park for the soccer ball 5 times.","","0","instructions","","","","","","","","","","","","","",""
"learning-instructions","28","193928","0.0-8.0-0.0-0.20","1523","2","2","""event"",""trial"",""time""
""fullscreenenter"",""1"",""4612""
","
","
","""event"",""trial"",""time""
""fullscreenenter"",""1"",""4612""
","
","","","","","","710.0999999940395","<p> The kids are sad.<div style='float: left;'><img src='images/i7.png' width = '640' height = '360'></img>","","0","instructions","","","","","","","","","","","","","",""
"learning-instructions","29","196808","0.0-8.0-0.0-0.21","1523","2","2","""event"",""trial"",""time""
""fullscreenenter"",""1"",""4612""
","
","
","""event"",""trial"",""time""
""fullscreenenter"",""1"",""4612""
","
","","","","","","670.2999999821186","<p> The kids are sad.<div style='float: left;'><img src='images/i8.png' width = '640' height = '360'></img>","","0","instructions","","","","","","","","","","","","","",""
"learning-instructions","30","199858","0.0-8.0-0.0-0.22","1523","2","2","""event"",""trial"",""time""
""fullscreenenter"",""1"",""4612""
","
","
","""event"",""trial"",""time""
""fullscreenenter"",""1"",""4612""
","
","","","","","","869.1999999880791","<p> The kids are happy.<div style='float: left;'><img src='images/i9.png' width = '640' height = '360'></img>","","0","instructions","","","","","","","","","","","","","",""
"learning-instructions","31","202503","0.0-8.0-0.0-0.23","1523","2","2","""event"",""trial"",""time""
""fullscreenenter"",""1"",""4612""
","
","
","""event"",""trial"",""time""
""fullscreenenter"",""1"",""4612""
","
","","","","","","435.5","<p> The kids are sad.<div style='float: left;'><img src='images/i10.png' width = '640' height = '360'></img>","","0","instructions","","","","","","","","","","","","","",""
"learning-instructions","32","206218","0.0-8.0-0.0-0.24","1523","2","2","""event"",""trial"",""time""
""fullscreenenter"",""1"",""4612""
","
","
","""event"",""trial"",""time""
""fullscreenenter"",""1"",""4612""
","
","","","","","","1519.4000000059605","<p> The kids are sad.<div style='float: left;'><img src='images/i11.png' width = '640' height = '360'></img>","","0","instructions","","","","","","","","","","","","","",""
"learning-instructions","33","215708","0.0-8.0-0.0-0.25","1523","2","2","""event"",""trial"",""time""
""fullscreenenter"",""1"",""4612""
","
","
","""event"",""trial"",""time""
""fullscreenenter"",""1"",""4612""
","
","","","","","","1369.699999988079","<p> As you can see, selecting the wrong park for the soccer ball made the kids sad most of the time, but not all the time.","","0","instructions","","","","","","","","","","","","","",""
"learning-instructions","34","226408","0.0-8.0-0.0-0.26","1523","2","2","""event"",""trial"",""time""
""fullscreenenter"",""1"",""4612""
","
","
","""event"",""trial"",""time""
""fullscreenenter"",""1"",""4612""
","
","","","","","","1589.4000000059605","<p> The different pieces of equipment belong in different parks. You need to try to learn which is the best park for each piece of equipment.","","0","instructions","","","","","","","","","","","","","",""
"learning-instructions","35","243113","0.0-8.0-0.0-0.27","1523","2","2","""event"",""trial"",""time""
""fullscreenenter"",""1"",""4612""
","
","
","""event"",""trial"",""time""
""fullscreenenter"",""1"",""4612""
","
","","","","","","304.7000000178814","<p> Try to choose the best park for each piece of equipment, because you will <b> WIN </b> 1 point for each time you make the kids happy and <b>LOSE</b> 1 point for each time you make them sad. </p><p> Remember, if you make the best choice, you will win 1 point most of the time, but not all the time. </p>","","0","instructions","","","","","","","","","","","","","",""
"learning-instructions","36","251418","0.0-8.0-0.0-0.28","1523","2","2","""event"",""trial"",""time""
""fullscreenenter"",""1"",""4612""
","
","
","""event"",""trial"",""time""
""fullscreenenter"",""1"",""4612""
","
","","","","","","2820","<p> This is just a practice round, but in the real game, your bonus payment will depend on your total number of points.","","0","instructions","","","","","","","","","","","","","",""
"learning-instructions","37","262947","0.0-8.0-0.0-0.29","1523","2","2","""event"",""trial"",""time""
""fullscreenenter"",""1"",""4612""
","
","
","""event"",""trial"",""time""
""fullscreenenter"",""1"",""4612""
","
","","","","","","1199.4000000059605","<p> The position where each park appears will change throughout the game. </p><p> The position where the park appears <i> does not </i> influence how likely the kids are to be happy or sad. </p>","","0","instructions","","","","","","","","","","","","","",""
"learning-instructions","38","274719","0.0-8.0-0.0-0.30","1523","2","2","""event"",""trial"",""time""
""fullscreenenter"",""1"",""4612""
","
","
","""event"",""trial"",""time""
""fullscreenenter"",""1"",""4612""
","
","","","","","","870.9000000059605","<p> You will have 4 seconds to make each choice. Try to respond before time runs out! </p><p> You will lose 1 point each time you do not make a response. </p>","","0","instructions","","","","","","","","","","","","","",""
"learning-instructions","39","282729","0.0-8.0-0.0-0.31","1523","2","2","""event"",""trial"",""time""
""fullscreenenter"",""1"",""4612""
","
","
","""event"",""trial"",""time""
""fullscreenenter"",""1"",""4612""
","
","","","","","","1200.0999999940395","<p> Remember, you should use the 1, 2, and 3 keys to select the park for each piece of equipment. </p><br><div class=""choice-instructions-grid""> <div class=""choice-option""><img src=""images/park1.png"" class=""choice-option-img"" stage=""instructions"" position=""0"" ><div class=""choice-option-text""> Press ""1."" </div></div><div class=""choice-option""><img src=""images/park2.png"" class=""choice-option-img"" stage=""instructions"" position=""1"" ><div class=""choice-option-text""> Press ""2."" </div></div><div class=""choice-option""><img src=""images/park3.png"" class=""choice-option-img"" stage=""instructions"" position=""2"" ><div class=""choice-option-text""> Press ""3."" </div></div></div>","","0","instructions","","","","","","","","","","","","","",""
"html-button-response","40","285318","0.0-8.0-1.0","1523","2","2","""event"",""trial"",""time""
""fullscreenenter"",""1"",""4612""
","
","
","""event"",""trial"",""time""
""fullscreenenter"",""1"",""4612""
","
","","","","","","2475.5","<p> Ready to practice? </p>","0","","","","","","","","","","","","","","","",""
"html-keyboard-response","41","285956","0.0-8.0-2.0-0.0","1523","2","2","""event"",""trial"",""time""
""fullscreenenter"",""1"",""4612""
","
","
","""event"",""trial"",""time""
""fullscreenenter"",""1"",""4612""
","
","","","","","","null","<div style=""font-size:60px;"">+</div>","null","","fixation","","","","","","","","","","","","","",""
"learning-trial","42","289977","0.0-8.0-2.0-1.0","1523","2","2","""event"",""trial"",""time""
""fullscreenenter"",""1"",""4612""
","
","
","""event"",""trial"",""time""
""fullscreenenter"",""1"",""4612""
","
","","","","","","868.9000000059605","images/ball2.png","","","practice","images/park1.png","images/park2.png","images/park3.png","[0,1,2]","0","0","1","images/park1.png","1","practice","","","",""
"html-keyboard-response","43","290496","0.0-8.0-2.0-0.1","1523","2","2","""event"",""trial"",""time""
""fullscreenenter"",""1"",""4612""
","
","
","""event"",""trial"",""time""
""fullscreenenter"",""1"",""4612""
","
","","","","","","null","<div style=""font-size:60px;"">+</div>","null","","fixation","","","","","","","","","","","","","",""
"learning-trial","44","294506","0.0-8.0-2.0-1.1","1523","2","2","""event"",""trial"",""time""
""fullscreenenter"",""1"",""4612""
","
","
","""event"",""trial"",""time""
""fullscreenenter"",""1"",""4612""
","
","","","","","","569.0999999940395","images/ball4.png","","","practice","images/park2.png","images/park1.png","images/park3.png","[1,0,2]","1","0","1","images/park2.png","-1","practice","","","",""
"html-keyboard-response","45","295026","0.0-8.0-2.0-0.2","1523","2","2","""event"",""trial"",""time""
""fullscreenenter"",""1"",""4612""
","
","
","""event"",""trial"",""time""
""fullscreenenter"",""1"",""4612""
","
","","","","","","null","<div style=""font-size:60px;"">+</div>","null","","fixation","","","","","","","","","","","","","",""
"learning-trial","46","299047","0.0-8.0-2.0-1.2","1523","2","2","""event"",""trial"",""time""
""fullscreenenter"",""1"",""4612""
","
","
","""event"",""trial"",""time""
""fullscreenenter"",""1"",""4612""
","
","","","","","","1217.9000000059605","images/ball3.png","","","practice","images/park1.png","images/park2.png","images/park3.png","[0,1,2]","0","0","3","images/park3.png","-1","practice","","","",""
"html-keyboard-response","47","299566","0.0-8.0-2.0-0.3","1523","2","2","""event"",""trial"",""time""
""fullscreenenter"",""1"",""4612""
","
","
","""event"",""trial"",""time""
""fullscreenenter"",""1"",""4612""
","
","","","","","","null","<div style=""font-size:60px;"">+</div>","null","","fixation","","","","","","","","","","","","","",""
"learning-trial","48","303576","0.0-8.0-2.0-1.3","1523","2","2","""event"",""trial"",""time""
""fullscreenenter"",""1"",""4612""
","
","
","""event"",""trial"",""time""
""fullscreenenter"",""1"",""4612""
","
","","","","","","665.6000000238419","images/ball3.png","","","practice","images/park3.png","images/park1.png","images/park2.png","[2,0,1]","0","1","2","images/park1.png","1","practice","","","",""
"html-keyboard-response","49","304096","0.0-8.0-2.0-0.4","1523","2","2","""event"",""trial"",""time""
""fullscreenenter"",""1"",""4612""
","
","
","""event"",""trial"",""time""
""fullscreenenter"",""1"",""4612""
","
","","","","","","null","<div style=""font-size:60px;"">+</div>","null","","fixation","","","","","","","","","","","","","",""
"learning-trial","50","308116","0.0-8.0-2.0-1.4","1523","2","2","""event"",""trial"",""time""
""fullscreenenter"",""1"",""4612""
","
","
","""event"",""trial"",""time""
""fullscreenenter"",""1"",""4612""
","
","","","","","","1907.6000000238419","images/racket1.png","","","practice","images/park3.png","images/park2.png","images/park1.png","[2,1,0]","2","0","1","images/park3.png","1","practice","","","",""
"html-keyboard-response","51","308636","0.0-8.0-2.0-0.5","1523","2","2","""event"",""trial"",""time""
""fullscreenenter"",""1"",""4612""
","
","
","""event"",""trial"",""time""
""fullscreenenter"",""1"",""4612""
","
","","","","","","null","<div style=""font-size:60px;"">+</div>","null","","fixation","","","","","","","","","","","","","",""
"learning-trial","52","312639","0.0-8.0-2.0-1.5","1523","2","2","""event"",""trial"",""time""
""fullscreenenter"",""1"",""4612""
","
","
","""event"",""trial"",""time""
""fullscreenenter"",""1"",""4612""
","
","","","","","","2102.699999988079","images/racket1.png","","","practice","images/park2.png","images/park3.png","images/park1.png","[1,2,0]","2","1","2","images/park3.png","1","practice","","","",""
"html-keyboard-response","53","313141","0.0-8.0-2.0-0.6","1523","2","2","""event"",""trial"",""time""
""fullscreenenter"",""1"",""4612""
","
","
","""event"",""trial"",""time""
""fullscreenenter"",""1"",""4612""
","
","","","","","","null","<div style=""font-size:60px;"">+</div>","null","","fixation","","","","","","","","","","","","","",""
"learning-trial","54","317144","0.0-8.0-2.0-1.6","1523","2","2","""event"",""trial"",""time""
""fullscreenenter"",""1"",""4612""
","
","
","""event"",""trial"",""time""
""fullscreenenter"",""1"",""4612""
","
","","","","","","1473.3999999761581","images/ball2.png","","","practice","images/park1.png","images/park2.png","images/park3.png","[0,1,2]","0","0","1","images/park1.png","-1","practice","","","",""
"html-keyboard-response","55","317647","0.0-8.0-2.0-0.7","1523","2","2","""event"",""trial"",""time""
""fullscreenenter"",""1"",""4612""
","
","
","""event"",""trial"",""time""
""fullscreenenter"",""1"",""4612""
","
","","","","","","null","<div style=""font-size:60px;"">+</div>","null","","fixation","","","","","","","","","","","","","",""
"learning-trial","56","321651","0.0-8.0-2.0-1.7","1523","2","2","""event"",""trial"",""time""
""fullscreenenter"",""1"",""4612""
","
","
","""event"",""trial"",""time""
""fullscreenenter"",""1"",""4612""
","
","","","","","","857.8999999761581","images/racket3.png","","","practice","images/park1.png","images/park2.png","images/park3.png","[0,1,2]","2","2","2","images/park2.png","-1","practice","","","",""
"html-keyboard-response","57","322152","0.0-8.0-2.0-0.8","1523","2","2","""event"",""trial"",""time""
""fullscreenenter"",""1"",""4612""
","
","
","""event"",""trial"",""time""
""fullscreenenter"",""1"",""4612""
","
","","","","","","null","<div style=""font-size:60px;"">+</div>","null","","fixation","","","","","","","","","","","","","",""
"learning-trial","58","326154","0.0-8.0-2.0-1.8","1523","2","2","""event"",""trial"",""time""
""fullscreenenter"",""1"",""4612""
","
","
","""event"",""trial"",""time""
""fullscreenenter"",""1"",""4612""
","
","","","","","","890.5","images/racket4.png","","","practice","images/park2.png","images/park3.png","images/park1.png","[1,2,0]","1","0","1","images/park2.png","1","practice","","","",""
"html-keyboard-response","59","326656","0.0-8.0-2.0-0.9","1523","2","2","""event"",""trial"",""time""
""fullscreenenter"",""1"",""4612""
","
","
","""event"",""trial"",""time""
""fullscreenenter"",""1"",""4612""
","
","","","","","","null","<div style=""font-size:60px;"">+</div>","null","","fixation","","","","","","","","","","","","","",""
"learning-trial","60","330660","0.0-8.0-2.0-1.9","1523","2","2","""event"",""trial"",""time""
""fullscreenenter"",""1"",""4612""
","
","
","""event"",""trial"",""time""
""fullscreenenter"",""1"",""4612""
","
","","","","","","422.60000002384186","images/racket3.png","","","practice","images/park2.png","images/park3.png","images/park1.png","[1,2,0]","2","1","3","images/park1.png","-1","practice","","","",""
"html-keyboard-response","61","331161","0.0-8.0-2.0-0.10","1523","2","2","""event"",""trial"",""time""
""fullscreenenter"",""1"",""4612""
","
","
","""event"",""trial"",""time""
""fullscreenenter"",""1"",""4612""
","
","","","","","","null","<div style=""font-size:60px;"">+</div>","null","","fixation","","","","","","","","","","","","","",""
"learning-trial","62","335165","0.0-8.0-2.0-1.10","1523","2","2","""event"",""trial"",""time""
""fullscreenenter"",""1"",""4612""
","
","
","""event"",""trial"",""time""
""fullscreenenter"",""1"",""4612""
","
","","","","","","416","images/ball4.png","","","practice","images/park2.png","images/park1.png","images/park3.png","[1,0,2]","1","0","1","images/park2.png","1","practice","","","",""
"html-keyboard-response","63","335666","0.0-8.0-2.0-0.11","1523","2","2","""event"",""trial"",""time""
""fullscreenenter"",""1"",""4612""
","
","
","""event"",""trial"",""time""
""fullscreenenter"",""1"",""4612""
","
","","","","","","null","<div style=""font-size:60px;"">+</div>","null","","fixation","","","","","","","","","","","","","",""
"learning-trial","64","339670","0.0-8.0-2.0-1.11","1523","2","2","""event"",""trial"",""time""
""fullscreenenter"",""1"",""4612""
","
","
","""event"",""trial"",""time""
""fullscreenenter"",""1"",""4612""
","
","","","","","","472.90000000596046","images/racket4.png","","","practice","images/park3.png","images/park1.png","images/park2.png","[2,0,1]","1","2","2","images/park1.png","-1","practice","","","",""
"html-button-response","65","341510","0.0-8.0-3.0","1523","2","2","""event"",""trial"",""time""
""fullscreenenter"",""1"",""4612""
","
","
","""event"",""trial"",""time""
""fullscreenenter"",""1"",""4612""
","
","","","","","","1837.2000000178814","<p> You earned 0 points in the practice round! </p>","0","","break","","","","","","","","","","","","","",""
"learning-instructions","66","352637","0.0-8.0-4.0-0.0","1523","2","2","""event"",""trial"",""time""
""fullscreenenter"",""1"",""4612""
","
","
","""event"",""trial"",""time""
""fullscreenenter"",""1"",""4612""
","
","","","","","","3102.899999976158","<p> It's almost time to start the real game. </p><p> Before you start, we're going to ask you a few questions about how the game works. </p>","","0","instructions","","","","","","","","","","","","","",""
"preload","67","354841","0.0-8.0-5.0","1523","2","2","""event"",""trial"",""time""
""fullscreenenter"",""1"",""4612""
","
","
","""event"",""trial"",""time""
""fullscreenenter"",""1"",""4612""
","
","true","false","[]","[]","[]","","","","","","","","","","","","","","","","","","",""
"comp-q","68","361591","0.0-8.0-6.0-0.0","1523","2","2","""event"",""trial"",""time""
""fullscreenenter"",""1"",""4612""
","
","
","""event"",""trial"",""time""
""fullscreenenter"",""1"",""4612""
","
","","","","","","1297.6000000238419","<p> <b> True or False? </b> </p><p> If you choose the best option, you will always earn 1 point. </p>","","0","comp_question","","","","","","","","","","","false","","",""
"comp-q","69","370093","0.0-8.0-6.0-1.0","1523","2","2","""event"",""trial"",""time""
""fullscreenenter"",""1"",""4612""
","
","
","""event"",""trial"",""time""
""fullscreenenter"",""1"",""4612""
","
","","","","","","2949.9000000059605","<p><b> Incorrect. </b> Sometimes you will lose 1 point, even if you choose the best option. </p>","","0","comp_answer","","","","","","","","","","","","","",""
"comp-q","70","376488","0.0-8.0-6.0-0.1","1523","2","2","""event"",""trial"",""time""
""fullscreenenter"",""1"",""4612""
","
","
","""event"",""trial"",""time""
""fullscreenenter"",""1"",""4612""
","
","","","","","","1764.2000000178814","<p> <b> True or False? </b> </p><p> You will have as much time as you want to make each choice. </p>","","1","comp_question","","","","","","","","","","","true","","",""
"comp-q","71","383740","0.0-8.0-6.0-1.1","1523","2","2","""event"",""trial"",""time""
""fullscreenenter"",""1"",""4612""
","
","
","""event"",""trial"",""time""
""fullscreenenter"",""1"",""4612""
","
","","","","","","2445.4000000059605","<p> <b> That's right! </b> You will only have 4 seconds to make each choice. </p>","","0","comp_answer","","","","","","","","","","","","","",""
"comp-q","72","390690","0.0-8.0-6.0-0.2","1523","2","2","""event"",""trial"",""time""
""fullscreenenter"",""1"",""4612""
","
","
","""event"",""trial"",""time""
""fullscreenenter"",""1"",""4612""
","
","","","","","","796.5999999940395","<p> <b> True or False? </b> </p><p> You should use the '1', '2', and '3' keys to make your choices. </p>","","0","comp_question","","","","","","","","","","","true","","",""
"comp-q","73","396517","0.0-8.0-6.0-1.2","1523","2","2","""event"",""trial"",""time""
""fullscreenenter"",""1"",""4612""
","
","
","""event"",""trial"",""time""
""fullscreenenter"",""1"",""4612""
","
","","","","","","993.5","<p> <b> That's right! </b> You should use the '1', '2', and '3' keys to make each choice. </p>","","0","comp_answer","","","","","","","","","","","","","",""
"learning-instructions","74","406837","0.0-8.0-7.0-0.0","1523","2","2","""event"",""trial"",""time""
""fullscreenenter"",""1"",""4612""
","
","
","""event"",""trial"",""time""
""fullscreenenter"",""1"",""4612""
","
","","","","","","1823.5999999940395","<p> It's now time to start the real game. </p>Do your best, because the points you earn in the next rounds will influence your bonus payment. </p>","","0","instructions","","","","","","","","","","","","","",""
"preload","75","410888","0.0-9.0-0.0","1523","2","2","""event"",""trial"",""time""
""fullscreenenter"",""1"",""4612""
","
","
","""event"",""trial"",""time""
""fullscreenenter"",""1"",""4612""
","
","true","false","[]","[]","[]","","","","","","","","","","","","","","","","","","",""
"learning-instructions","76","418784","0.0-9.0-1.0-0.0","1523","2","2","""event"",""trial"",""time""
""fullscreenenter"",""1"",""4612""
","
","
","""event"",""trial"",""time""
""fullscreenenter"",""1"",""4612""
","
","","","","","","1060.5","<p> Your goal in this round is to grow a beautiful garden by watering plants. </p><p> You will need to water many different plants. </p></div>","","0","instructions","","","","","","","","","","","","","",""
"learning-instructions","77","433704","0.0-9.0-1.0-0.1","1523","2","2","""event"",""trial"",""time""
""fullscreenenter"",""1"",""4612""
","
","
","""event"",""trial"",""time""
""fullscreenenter"",""1"",""4612""
","
","","","","","","1620.0999999940395","<p> On each turn, you will see a picture of one of your plants and three different watering cans.  </p><p> Each watering can has a different mixture of water and fertilizer.  </p><p> You need to select which watering can to use for each plant. </p>","","0","instructions","","","","","","","","","","","","","",""
"learning-instructions","78","441722","0.0-9.0-1.0-0.2","1523","2","2","""event"",""trial"",""time""
""fullscreenenter"",""1"",""4612""
","
","
","""event"",""trial"",""time""
""fullscreenenter"",""1"",""4612""
","
","","","","","","268.69999998807907","<p> You can select the watering can on the left by pressing 1, the watering can in the middle by pressing 2, and the watering can on the right by pressing 3. </p><br><div class=""choice-instructions-grid""> <div class=""choice-option""><img src=""images/plants_choice1.png"" class=""choice-option-img"" stage=""instructions"" position=""0"" ><div class=""choice-option-text""> Press ""1."" </div></div><div class=""choice-option""><img src=""images/plants_choice2.png"" class=""choice-option-img"" stage=""instructions"" position=""1"" ><div class=""choice-option-text""> Press ""2."" </div></div><div class=""choice-option""><img src=""images/plants_choice3.png"" class=""choice-option-img"" stage=""instructions"" position=""2"" ><div class=""choice-option-text""> Press ""3."" </div></div></div>","","0","instructions","","","","","","","","","","","","","",""
"learning-instructions","79","446129","0.0-9.0-1.0-0.3","1523","2","2","""event"",""trial"",""time""
""fullscreenenter"",""1"",""4612""
","
","
","""event"",""trial"",""time""
""fullscreenenter"",""1"",""4612""
","
","","","","","","225.30000001192093","<p> If the watering can you chose works for the plant, it will grow! </p><div style='float: center;'><img src='images/check.png' width = '200' height = '200'></img>","","0","instructions","","","","","","","","","","","","","",""
"learning-instructions","80","451453","0.0-9.0-1.0-0.4","1523","2","2","""event"",""trial"",""time""
""fullscreenenter"",""1"",""4612""
","
","
","""event"",""trial"",""time""
""fullscreenenter"",""1"",""4612""
","
","","","","","","509.5","<p> But, if the watering can you chose does not work, your plant will droop. </p><div style='float: center;'><img src='images/x.png' width = '200' height = '200'></img>","","0","instructions","","","","","","","","","","","","","",""
"learning-instructions","81","463263","0.0-9.0-1.0-0.5","1523","2","2","""event"",""trial"",""time""
""fullscreenenter"",""1"",""4612""
","
","
","""event"",""trial"",""time""
""fullscreenenter"",""1"",""4612""
","
","","","","","","1729.7999999821186","<p> Importantly, each plant has one fertilizer mixture that works best for it. </p><p> If you choose the watering can with the right fertilizer, the plant will be more likely to grow. </p>","","0","instructions","","","","","","","","","","","","","",""
"learning-instructions","82","473976","0.0-9.0-1.0-0.6","1523","2","2","""event"",""trial"",""time""
""fullscreenenter"",""1"",""4612""
","
","
","""event"",""trial"",""time""
""fullscreenenter"",""1"",""4612""
","
","","","","","","362.69999998807907","<p> However, even if you choose the best watering can for the plant, the plant may still droop. </p><p> Similarly, even if you choose the <i>wrong</i> watering can, the plant may still grow.","","0","instructions","","","","","","","","","","","","","",""
"learning-instructions","83","487873","0.0-9.0-1.0-0.7","1523","2","2","""event"",""trial"",""time""
""fullscreenenter"",""1"",""4612""
","
","
","""event"",""trial"",""time""
""fullscreenenter"",""1"",""4612""
","
","","","","","","2029.800000011921","<p> Try to choose the best watering can for each plant, because you will <b> WIN </b> 1 point each time a plant grows and <b>LOSE</b>  1 point each time a plant droops. </p><p> Your bonus payment will depend on your total number of points.","","0","instructions","","","","","","","","","","","","","",""
"learning-instructions","84","498125","0.0-9.0-1.0-0.8","1523","2","2","""event"",""trial"",""time""
""fullscreenenter"",""1"",""4612""
","
","
","""event"",""trial"",""time""
""fullscreenenter"",""1"",""4612""
","
","","","","","","2231.800000011921","<p> The position of each watering can will change throughout the round. </p><p> The watering can's position <i> does not </i> influence how likely each plant is to droop or grow. </p>","","0","instructions","","","","","","","","","","","","","",""
"learning-instructions","85","509373","0.0-9.0-1.0-0.9","1523","2","2","""event"",""trial"",""time""
""fullscreenenter"",""1"",""4612""
","
","
","""event"",""trial"",""time""
""fullscreenenter"",""1"",""4612""
","
","","","","","","1950.199999988079","<p> You will have 4 seconds to make each choice. Try to respond before time runs out! </p><p> You will lose 1 point each time you do not make a response. </p>","","0","instructions","","","","","","","","","","","","","",""
"html-keyboard-response","86","509992","0.0-9.0-2.0-0.0","1523","2","2","""event"",""trial"",""time""
""fullscreenenter"",""1"",""4612""
","
","
","""event"",""trial"",""time""
""fullscreenenter"",""1"",""4612""
","
","","","","","","null","<div style=""font-size:60px;"">+</div>","null","","fixation","","","","","","","","","","","","","",""
"learning-trial","87","514007","0.0-9.0-2.0-1.0","1523","2","2","""event"",""trial"",""time""
""fullscreenenter"",""1"",""4612""
","
","
","""event"",""trial"",""time""
""fullscreenenter"",""1"",""4612""
","
","","","","","","1640.2999999821186","images/flower5.png","","","learning","images/plants_choice3.png","images/plants_choice2.png","images/plants_choice1.png","[2,1,0]","0","2","1","images/plants_choice3.png","1","plants","","flower","2","0"
"html-keyboard-response","88","514522","0.0-9.0-2.0-0.1","1523","2","2","""event"",""trial"",""time""
""fullscreenenter"",""1"",""4612""
","
","
","""event"",""trial"",""time""
""fullscreenenter"",""1"",""4612""
","
","","","","","","null","<div style=""font-size:60px;"">+</div>","null","","fixation","","","","","","","","","","","","","",""
"learning-trial","89","518542","0.0-9.0-2.0-1.1","1523","2","2","""event"",""trial"",""time""
""fullscreenenter"",""1"",""4612""
","
","
","""event"",""trial"",""time""
""fullscreenenter"",""1"",""4612""
","
","","","","","","668.5","images/flower3.png","","","learning","images/plants_choice2.png","images/plants_choice3.png","images/plants_choice1.png","[1,2,0]","1","0","2","images/plants_choice3.png","-1","plants","","flower","2","0"
"html-keyboard-response","90","519052","0.0-9.0-2.0-0.2","1523","2","2","""event"",""trial"",""time""
""fullscreenenter"",""1"",""4612""
","
","
","""event"",""trial"",""time""
""fullscreenenter"",""1"",""4612""
","
","","","","","","null","<div style=""font-size:60px;"">+</div>","null","","fixation","","","","","","","","","","","","","",""
"learning-trial","91","523072","0.0-9.0-2.0-1.2","1523","2","2","""event"",""trial"",""time""
""fullscreenenter"",""1"",""4612""
","
","
","""event"",""trial"",""time""
""fullscreenenter"",""1"",""4612""
","
","","","","","","1259.9000000059605","images/flower5.png","","","learning","images/plants_choice3.png","images/plants_choice1.png","images/plants_choice2.png","[2,0,1]","0","1","1","images/plants_choice3.png","-1","plants","","flower","2","0"
"html-keyboard-response","92","523592","0.0-9.0-2.0-0.3","1523","2","2","""event"",""trial"",""time""
""fullscreenenter"",""1"",""4612""
","
","
","""event"",""trial"",""time""
""fullscreenenter"",""1"",""4612""
","
","","","","","","null","<div style=""font-size:60px;"">+</div>","null","","fixation","","","","","","","","","","","","","",""
"learning-trial","93","527612","0.0-9.0-2.0-1.3","1523","2","2","""event"",""trial"",""time""
""fullscreenenter"",""1"",""4612""
","
","
","""event"",""trial"",""time""
""fullscreenenter"",""1"",""4612""
","
","","","","","","1502.5","images/cactus5.png","","","learning","images/plants_choice2.png","images/plants_choice3.png","images/plants_choice1.png","[1,2,0]","2","1","3","images/plants_choice1.png","-1","plants","","cactus","2","0"
"html-keyboard-response","94","528120","0.0-9.0-2.0-0.4","1523","2","2","""event"",""trial"",""time""
""fullscreenenter"",""1"",""4612""
","
","
","""event"",""trial"",""time""
""fullscreenenter"",""1"",""4612""
","
","","","","","","null","<div style=""font-size:60px;"">+</div>","null","","fixation","","","","","","","","","","","","","",""
"learning-trial","95","532142","0.0-9.0-2.0-1.4","1523","2","2","""event"",""trial"",""time""
""fullscreenenter"",""1"",""4612""
","
","
","""event"",""trial"",""time""
""fullscreenenter"",""1"",""4612""
","
","","","","","","460.90000000596046","images/flower3.png","","","learning","images/plants_choice2.png","images/plants_choice1.png","images/plants_choice3.png","[1,0,2]","1","0","1","images/plants_choice2.png","1","plants","","flower","2","0"
"html-keyboard-response","96","532652","0.0-9.0-2.0-0.5","1523","2","2","""event"",""trial"",""time""
""fullscreenenter"",""1"",""4612""
","
","
","""event"",""trial"",""time""
""fullscreenenter"",""1"",""4612""
","
","","","","","","null","<div style=""font-size:60px;"">+</div>","null","","fixation","","","","","","","","","","","","","",""
"learning-trial","97","536662","0.0-9.0-2.0-1.5","1523","2","2","""event"",""trial"",""time""
""fullscreenenter"",""1"",""4612""
","
","
","""event"",""trial"",""time""
""fullscreenenter"",""1"",""4612""
","
","","","","","","1533.300000011921","images/flower5.png","","","learning","images/plants_choice1.png","images/plants_choice3.png","images/plants_choice2.png","[0,2,1]","0","0","2","images/plants_choice3.png","-1","plants","","flower","2","0"
"html-keyboard-response","98","537181","0.0-9.0-2.0-0.6","1523","2","2","""event"",""trial"",""time""
""fullscreenenter"",""1"",""4612""
","
","
","""event"",""trial"",""time""
""fullscreenenter"",""1"",""4612""
","
","","","","","","null","<div style=""font-size:60px;"">+</div>","null","","fixation","","","","","","","","","","","","","",""
"learning-trial","99","541185","0.0-9.0-2.0-1.6","1523","2","2","""event"",""trial"",""time""
""fullscreenenter"",""1"",""4612""
","
","
","""event"",""trial"",""time""
""fullscreenenter"",""1"",""4612""
","
","","","","","","987.1999999880791","images/bush4.png","","","learning","images/plants_choice2.png","images/plants_choice3.png","images/plants_choice1.png","[1,2,0]","2","1","2","images/plants_choice3.png","1","plants","","bush","2","0"
"html-keyboard-response","100","541686","0.0-9.0-2.0-0.7","1523","2","2","""event"",""trial"",""time""
""fullscreenenter"",""1"",""4612""
","
","
","""event"",""trial"",""time""
""fullscreenenter"",""1"",""4612""
","
","","","","","","null","<div style=""font-size:60px;"">+</div>","null","","fixation","","","","","","","","","","","","","",""
"learning-trial","101","545704","0.0-9.0-2.0-1.7","1523","2","2","""event"",""trial"",""time""
""fullscreenenter"",""1"",""4612""
","
","
","""event"",""trial"",""time""
""fullscreenenter"",""1"",""4612""
","
","","","","","","1274.5999999940395","images/flower3.png","","","learning","images/plants_choice1.png","images/plants_choice2.png","images/plants_choice3.png","[0,1,2]","1","1","2","images/plants_choice2.png","1","plants","","flower","2","0"
"html-keyboard-response","102","546205","0.0-9.0-2.0-0.8","1523","2","2","""event"",""trial"",""time""
""fullscreenenter"",""1"",""4612""
","
","
","""event"",""trial"",""time""
""fullscreenenter"",""1"",""4612""
","
","","","","","","null","<div style=""font-size:60px;"">+</div>","null","","fixation","","","","","","","","","","","","","",""
"learning-trial","103","550208","0.0-9.0-2.0-1.8","1523","2","2","""event"",""trial"",""time""
""fullscreenenter"",""1"",""4612""
","
","
","""event"",""trial"",""time""
""fullscreenenter"",""1"",""4612""
","
","","","","","","1314","images/flower5.png","","","learning","images/plants_choice3.png","images/plants_choice1.png","images/plants_choice2.png","[2,0,1]","0","1","2","images/plants_choice1.png","-1","plants","","flower","2","0"
"html-keyboard-response","104","550710","0.0-9.0-2.0-0.9","1523","2","2","""event"",""trial"",""time""
""fullscreenenter"",""1"",""4612""
","
","
","""event"",""trial"",""time""
""fullscreenenter"",""1"",""4612""
","
","","","","","","null","<div style=""font-size:60px;"">+</div>","null","","fixation","","","","","","","","","","","","","",""
"learning-trial","105","554713","0.0-9.0-2.0-1.9","1523","2","2","""event"",""trial"",""time""
""fullscreenenter"",""1"",""4612""
","
","
","""event"",""trial"",""time""
""fullscreenenter"",""1"",""4612""
","
","","","","","","1257.4000000059605","images/bush2.png","","","learning","images/plants_choice2.png","images/plants_choice3.png","images/plants_choice1.png","[1,2,0]","1","0","2","images/plants_choice3.png","-1","plants","","bush","2","0"
"html-keyboard-response","106","555215","0.0-9.0-2.0-0.10","1523","2","2","""event"",""trial"",""time""
""fullscreenenter"",""1"",""4612""
","
","
","""event"",""trial"",""time""
""fullscreenenter"",""1"",""4612""
","
","","","","","","null","<div style=""font-size:60px;"">+</div>","null","","fixation","","","","","","","","","","","","","",""
"learning-trial","107","559217","0.0-9.0-2.0-1.10","1523","2","2","""event"",""trial"",""time""
""fullscreenenter"",""1"",""4612""
","
","
","""event"",""trial"",""time""
""fullscreenenter"",""1"",""4612""
","
","","","","","","931.3000000119209","images/flower5.png","","","learning","images/plants_choice2.png","images/plants_choice1.png","images/plants_choice3.png","[1,0,2]","0","1","1","images/plants_choice2.png","-1","plants","","flower","2","0"
"html-keyboard-response","108","559719","0.0-9.0-2.0-0.11","1523","2","2","""event"",""trial"",""time""
""fullscreenenter"",""1"",""4612""
","
","
","""event"",""trial"",""time""
""fullscreenenter"",""1"",""4612""
","
","","","","","","null","<div style=""font-size:60px;"">+</div>","null","","fixation","","","","","","","","","","","","","",""
"learning-trial","109","563722","0.0-9.0-2.0-1.11","1523","2","2","""event"",""trial"",""time""
""fullscreenenter"",""1"",""4612""
","
","
","""event"",""trial"",""time""
""fullscreenenter"",""1"",""4612""
","
","","","","","","824.1999999880791","images/cactus5.png","","","learning","images/plants_choice2.png","images/plants_choice1.png","images/plants_choice3.png","[1,0,2]","2","2","2","images/plants_choice1.png","1","plants","","cactus","2","0"
"html-keyboard-response","110","564224","0.0-9.0-2.0-0.12","1523","2","2","""event"",""trial"",""time""
""fullscreenenter"",""1"",""4612""
","
","
","""event"",""trial"",""time""
""fullscreenenter"",""1"",""4612""
","
","","","","","","null","<div style=""font-size:60px;"">+</div>","null","","fixation","","","","","","","","","","","","","",""
"learning-trial","111","568227","0.0-9.0-2.0-1.12","1523","2","2","""event"",""trial"",""time""
""fullscreenenter"",""1"",""4612""
","
","
","""event"",""trial"",""time""
""fullscreenenter"",""1"",""4612""
","
","","","","","","1287.5","images/cactus1.png","","","learning","images/plants_choice1.png","images/plants_choice3.png","images/plants_choice2.png","[0,2,1]","1","2","1","images/plants_choice1.png","-1","plants","","cactus","2","0"
"html-keyboard-response","112","568728","0.0-9.0-2.0-0.13","1523","2","2","""event"",""trial"",""time""
""fullscreenenter"",""1"",""4612""
","
","
","""event"",""trial"",""time""
""fullscreenenter"",""1"",""4612""
","
","","","","","","null","<div style=""font-size:60px;"">+</div>","null","","fixation","","","","","","","","","","","","","",""
"learning-trial","113","572731","0.0-9.0-2.0-1.13","1523","2","2","""event"",""trial"",""time""
""fullscreenenter"",""1"",""4612""
","
","
","""event"",""trial"",""time""
""fullscreenenter"",""1"",""4612""
","
","","","","","","734.5","images/bush4.png","","","learning","images/plants_choice3.png","images/plants_choice2.png","images/plants_choice1.png","[2,1,0]","2","0","2","images/plants_choice2.png","-1","plants","","bush","2","0"
"html-keyboard-response","114","573248","0.0-9.0-2.0-0.14","1523","2","2","""event"",""trial"",""time""
""fullscreenenter"",""1"",""4612""
","
","
","""event"",""trial"",""time""
""fullscreenenter"",""1"",""4612""
","
","","","","","","null","<div style=""font-size:60px;"">+</div>","null","","fixation","","","","","","","","","","","","","",""
"learning-trial","115","577251","0.0-9.0-2.0-1.14","1523","2","2","""event"",""trial"",""time""
""fullscreenenter"",""1"",""4612""
","
","
","""event"",""trial"",""time""
""fullscreenenter"",""1"",""4612""
","
","","","","","","780.2999999821186","images/bush1.png","","","learning","images/plants_choice1.png","images/plants_choice3.png","images/plants_choice2.png","[0,2,1]","0","0","2","images/plants_choice3.png","1","plants","","bush","2","0"
"html-keyboard-response","116","577751","0.0-9.0-2.0-0.15","1523","2","2","""event"",""trial"",""time""
""fullscreenenter"",""1"",""4612""
","
","
","""event"",""trial"",""time""
""fullscreenenter"",""1"",""4612""
","
","","","","","","null","<div style=""font-size:60px;"">+</div>","null","","fixation","","","","","","","","","","","","","",""
"learning-trial","117","581754","0.0-9.0-2.0-1.15","1523","2","2","""event"",""trial"",""time""
""fullscreenenter"",""1"",""4612""
","
","
","""event"",""trial"",""time""
""fullscreenenter"",""1"",""4612""
","
","","","","","","424.40000000596046","images/cactus3.png","","","learning","images/plants_choice2.png","images/plants_choice3.png","images/plants_choice1.png","[1,2,0]","0","2","2","images/plants_choice3.png","-1","plants","","cactus","2","0"
"html-keyboard-response","118","582255","0.0-9.0-2.0-0.16","1523","2","2","""event"",""trial"",""time""
""fullscreenenter"",""1"",""4612""
","
","
","""event"",""trial"",""time""
""fullscreenenter"",""1"",""4612""
","
","","","","","","null","<div style=""font-size:60px;"">+</div>","null","","fixation","","","","","","","","","","","","","",""
"learning-trial","119","586258","0.0-9.0-2.0-1.16","1523","2","2","""event"",""trial"",""time""
""fullscreenenter"",""1"",""4612""
","
","
","""event"",""trial"",""time""
""fullscreenenter"",""1"",""4612""
","
","","","","","","284.2000000178814","images/flower2.png","","","learning","images/plants_choice1.png","images/plants_choice3.png","images/plants_choice2.png","[0,2,1]","2","1","1","images/plants_choice1.png","-1","plants","","flower","2","0"
"html-keyboard-response","120","586760","0.0-9.0-2.0-0.17","1523","2","2","""event"",""trial"",""time""
""fullscreenenter"",""1"",""4612""
","
","
","""event"",""trial"",""time""
""fullscreenenter"",""1"",""4612""
","
","","","","","","null","<div style=""font-size:60px;"">+</div>","null","","fixation","","","","","","","","","","","","","",""
"learning-trial","121","590763","0.0-9.0-2.0-1.17","1523","2","2","""event"",""trial"",""time""
""fullscreenenter"",""1"",""4612""
","
","
","""event"",""trial"",""time""
""fullscreenenter"",""1"",""4612""
","
","","","","","","374.5","images/cactus1.png","","","learning","images/plants_choice3.png","images/plants_choice2.png","images/plants_choice1.png","[2,1,0]","1","1","3","images/plants_choice1.png","-1","plants","","cactus","2","0"
"html-keyboard-response","122","591264","0.0-9.0-2.0-0.18","1523","2","2","""event"",""trial"",""time""
""fullscreenenter"",""1"",""4612""
","
","
","""event"",""trial"",""time""
""fullscreenenter"",""1"",""4612""
","
","","","","","","null","<div style=""font-size:60px;"">+</div>","null","","fixation","","","","","","","","","","","","","",""
"learning-trial","123","595268","0.0-9.0-2.0-1.18","1523","2","2","""event"",""trial"",""time""
""fullscreenenter"",""1"",""4612""
","
","
","""event"",""trial"",""time""
""fullscreenenter"",""1"",""4612""
","
","","","","","","252.80000001192093","images/bush2.png","","","learning","images/plants_choice1.png","images/plants_choice2.png","images/plants_choice3.png","[0,1,2]","1","1","2","images/plants_choice2.png","-1","plants","","bush","2","0"
"html-keyboard-response","124","595769","0.0-9.0-2.0-0.19","1523","2","2","""event"",""trial"",""time""
""fullscreenenter"",""1"",""4612""
","
","
","""event"",""trial"",""time""
""fullscreenenter"",""1"",""4612""
","
","","","","","","null","<div style=""font-size:60px;"">+</div>","null","","fixation","","","","","","","","","","","","","",""
"learning-trial","125","599773","0.0-9.0-2.0-1.19","1523","2","2","""event"",""trial"",""time""
""fullscreenenter"",""1"",""4612""
","
","
","""event"",""trial"",""time""
""fullscreenenter"",""1"",""4612""
","
","","","","","","234.80000001192093","images/flower2.png","","","learning","images/plants_choice3.png","images/plants_choice2.png","images/plants_choice1.png","[2,1,0]","2","0","3","images/plants_choice1.png","-1","plants","","flower","2","0"
"html-keyboard-response","126","600275","0.0-9.0-2.0-0.20","1523","2","2","""event"",""trial"",""time""
""fullscreenenter"",""1"",""4612""
","
","
","""event"",""trial"",""time""
""fullscreenenter"",""1"",""4612""
","
","","","","","","null","<div style=""font-size:60px;"">+</div>","null","","fixation","","","","","","","","","","","","","",""
"learning-trial","127","604278","0.0-9.0-2.0-1.20","1523","2","2","""event"",""trial"",""time""
""fullscreenenter"",""1"",""4612""
","
","
","""event"",""trial"",""time""
""fullscreenenter"",""1"",""4612""
","
","","","","","","283.5","images/flower2.png","","","learning","images/plants_choice2.png","images/plants_choice1.png","images/plants_choice3.png","[1,0,2]","2","2","1","images/plants_choice2.png","-1","plants","","flower","2","0"
"html-keyboard-response","128","604779","0.0-9.0-2.0-0.21","1523","2","2","""event"",""trial"",""time""
""fullscreenenter"",""1"",""4612""
","
","
","""event"",""trial"",""time""
""fullscreenenter"",""1"",""4612""
","
","","","","","","null","<div style=""font-size:60px;"">+</div>","null","","fixation","","","","","","","","","","","","","",""
"learning-trial","129","608782","0.0-9.0-2.0-1.21","1523","2","2","""event"",""trial"",""time""
""fullscreenenter"",""1"",""4612""
","
","
","""event"",""trial"",""time""
""fullscreenenter"",""1"",""4612""
","
","","","","","","843.8000000119209","images/bush4.png","","","learning","images/plants_choice3.png","images/plants_choice2.png","images/plants_choice1.png","[2,1,0]","2","0","1","images/plants_choice3.png","1","plants","","bush","2","0"
"html-keyboard-response","130","609284","0.0-9.0-2.0-0.22","1523","2","2","""event"",""trial"",""time""
""fullscreenenter"",""1"",""4612""
","
","
","""event"",""trial"",""time""
""fullscreenenter"",""1"",""4612""
","
","","","","","","null","<div style=""font-size:60px;"">+</div>","null","","fixation","","","","","","","","","","","","","",""
"learning-trial","131","613288","0.0-9.0-2.0-1.22","1523","2","2","""event"",""trial"",""time""
""fullscreenenter"",""1"",""4612""
","
","
","""event"",""trial"",""time""
""fullscreenenter"",""1"",""4612""
","
","","","","","","311.7000000178814","images/bush1.png","","","learning","images/plants_choice3.png","images/plants_choice1.png","images/plants_choice2.png","[2,0,1]","0","1","3","images/plants_choice2.png","-1","plants","","bush","2","0"
"html-keyboard-response","132","613790","0.0-9.0-2.0-0.23","1523","2","2","""event"",""trial"",""time""
""fullscreenenter"",""1"",""4612""
","
","
","""event"",""trial"",""time""
""fullscreenenter"",""1"",""4612""
","
","","","","","","null","<div style=""font-size:60px;"">+</div>","null","","fixation","","","","","","","","","","","","","",""
"learning-trial","133","617793","0.0-9.0-2.0-1.23","1523","2","2","""event"",""trial"",""time""
""fullscreenenter"",""1"",""4612""
","
","
","""event"",""trial"",""time""
""fullscreenenter"",""1"",""4612""
","
","","","","","","497","images/bush4.png","","","learning","images/plants_choice3.png","images/plants_choice1.png","images/plants_choice2.png","[2,0,1]","2","0","2","images/plants_choice1.png","-1","plants","","bush","2","0"
"html-keyboard-response","134","618295","0.0-9.0-2.0-0.24","1523","2","2","""event"",""trial"",""time""
""fullscreenenter"",""1"",""4612""
","
","
","""event"",""trial"",""time""
""fullscreenenter"",""1"",""4612""
","
","","","","","","null","<div style=""font-size:60px;"">+</div>","null","","fixation","","","","","","","","","","","","","",""
"learning-trial","135","622300","0.0-9.0-2.0-1.24","1523","2","2","""event"",""trial"",""time""
""fullscreenenter"",""1"",""4612""
","
","
","""event"",""trial"",""time""
""fullscreenenter"",""1"",""4612""
","
","","","","","","316.7999999821186","images/flower3.png","","","learning","images/plants_choice3.png","images/plants_choice1.png","images/plants_choice2.png","[2,0,1]","1","2","1","images/plants_choice3.png","-1","plants","","flower","2","0"
"html-keyboard-response","136","622801","0.0-9.0-2.0-0.25","1523","2","2","""event"",""trial"",""time""
""fullscreenenter"",""1"",""4612""
","
","
","""event"",""trial"",""time""
""fullscreenenter"",""1"",""4612""
","
","","","","","","null","<div style=""font-size:60px;"">+</div>","null","","fixation","","","","","","","","","","","","","",""
"learning-trial","137","626805","0.0-9.0-2.0-1.25","1523","2","2","""event"",""trial"",""time""
""fullscreenenter"",""1"",""4612""
","
","
","""event"",""trial"",""time""
""fullscreenenter"",""1"",""4612""
","
","","","","","","366.30000001192093","images/flower2.png","","","learning","images/plants_choice2.png","images/plants_choice3.png","images/plants_choice1.png","[1,2,0]","2","1","3","images/plants_choice1.png","-1","plants","","flower","2","0"
"html-keyboard-response","138","627306","0.0-9.0-2.0-0.26","1523","2","2","""event"",""trial"",""time""
""fullscreenenter"",""1"",""4612""
","
","
","""event"",""trial"",""time""
""fullscreenenter"",""1"",""4612""
","
","","","","","","null","<div style=""font-size:60px;"">+</div>","null","","fixation","","","","","","","","","","","","","",""
"learning-trial","139","631309","0.0-9.0-2.0-1.26","1523","2","2","""event"",""trial"",""time""
""fullscreenenter"",""1"",""4612""
","
","
","""event"",""trial"",""time""
""fullscreenenter"",""1"",""4612""
","
","","","","","","279.7999999821186","images/cactus5.png","","","learning","images/plants_choice3.png","images/plants_choice1.png","images/plants_choice2.png","[2,0,1]","2","0","2","images/plants_choice1.png","-1","plants","","cactus","2","0"
"html-keyboard-response","140","631811","0.0-9.0-2.0-0.27","1523","2","2","""event"",""trial"",""time""
""fullscreenenter"",""1"",""4612""
","
","
","""event"",""trial"",""time""
""fullscreenenter"",""1"",""4612""
","
","","","","","","null","<div style=""font-size:60px;"">+</div>","null","","fixation","","","","","","","","","","","","","",""
"learning-trial","141","635814","0.0-9.0-2.0-1.27","1523","2","2","""event"",""trial"",""time""
""fullscreenenter"",""1"",""4612""
","
","
","""event"",""trial"",""time""
""fullscreenenter"",""1"",""4612""
","
","","","","","","433.59999999403954","images/flower5.png","","","learning","images/plants_choice1.png","images/plants_choice2.png","images/plants_choice3.png","[0,1,2]","0","0","1","images/plants_choice1.png","1","plants","","flower","2","0"
"html-keyboard-response","142","636315","0.0-9.0-2.0-0.28","1523","2","2","""event"",""trial"",""time""
""fullscreenenter"",""1"",""4612""
","
","
","""event"",""trial"",""time""
""fullscreenenter"",""1"",""4612""
","
","","","","","","null","<div style=""font-size:60px;"">+</div>","null","","fixation","","","","","","","","","","","","","",""
"learning-trial","143","640318","0.0-9.0-2.0-1.28","1523","2","2","""event"",""trial"",""time""
""fullscreenenter"",""1"",""4612""
","
","
","""event"",""trial"",""time""
""fullscreenenter"",""1"",""4612""
","
","","","","","","397.2999999821186","images/cactus5.png","","","learning","images/plants_choice1.png","images/plants_choice2.png","images/plants_choice3.png","[0,1,2]","2","2","1","images/plants_choice1.png","-1","plants","","cactus","2","0"
"html-keyboard-response","144","640819","0.0-9.0-2.0-0.29","1523","2","2","""event"",""trial"",""time""
""fullscreenenter"",""1"",""4612""
","
","
","""event"",""trial"",""time""
""fullscreenenter"",""1"",""4612""
","
","","","","","","null","<div style=""font-size:60px;"">+</div>","null","","fixation","","","","","","","","","","","","","",""
"learning-trial","145","644822","0.0-9.0-2.0-1.29","1523","2","2","""event"",""trial"",""time""
""fullscreenenter"",""1"",""4612""
","
","
","""event"",""trial"",""time""
""fullscreenenter"",""1"",""4612""
","
","","","","","","423.59999999403954","images/flower5.png","","","learning","images/plants_choice2.png","images/plants_choice3.png","images/plants_choice1.png","[1,2,0]","0","2","1","images/plants_choice2.png","-1","plants","","flower","2","0"
"html-keyboard-response","146","645335","0.0-9.0-2.0-0.30","1523","2","2","""event"",""trial"",""time""
""fullscreenenter"",""1"",""4612""
","
","
","""event"",""trial"",""time""
""fullscreenenter"",""1"",""4612""
","
","","","","","","null","<div style=""font-size:60px;"">+</div>","null","","fixation","","","","","","","","","","","","","",""
"learning-trial","147","649337","0.0-9.0-2.0-1.30","1523","2","2","""event"",""trial"",""time""
""fullscreenenter"",""1"",""4612""
","
","
","""event"",""trial"",""time""
""fullscreenenter"",""1"",""4612""
","
","","","","","","823.2000000178814","images/cactus1.png","","","learning","images/plants_choice1.png","images/plants_choice2.png","images/plants_choice3.png","[0,1,2]","1","1","3","images/plants_choice3.png","-1","plants","","cactus","2","0"
"html-keyboard-response","148","649838","0.0-9.0-2.0-0.31","1523","2","2","""event"",""trial"",""time""
""fullscreenenter"",""1"",""4612""
","
","
","""event"",""trial"",""time""
""fullscreenenter"",""1"",""4612""
","
","","","","","","null","<div style=""font-size:60px;"">+</div>","null","","fixation","","","","","","","","","","","","","",""
"learning-trial","149","653841","0.0-9.0-2.0-1.31","1523","2","2","""event"",""trial"",""time""
""fullscreenenter"",""1"",""4612""
","
","
","""event"",""trial"",""time""
""fullscreenenter"",""1"",""4612""
","
","","","","","","536.4000000059605","images/cactus5.png","","","learning","images/plants_choice3.png","images/plants_choice1.png","images/plants_choice2.png","[2,0,1]","2","0","2","images/plants_choice1.png","-1","plants","","cactus","2","0"
"html-keyboard-response","150","654343","0.0-9.0-2.0-0.32","1523","2","2","""event"",""trial"",""time""
""fullscreenenter"",""1"",""4612""
","
","
","""event"",""trial"",""time""
""fullscreenenter"",""1"",""4612""
","
","","","","","","null","<div style=""font-size:60px;"">+</div>","null","","fixation","","","","","","","","","","","","","",""
"learning-trial","151","658345","0.0-9.0-2.0-1.32","1523","2","2","""event"",""trial"",""time""
""fullscreenenter"",""1"",""4612""
","
","
","""event"",""trial"",""time""
""fullscreenenter"",""1"",""4612""
","
","","","","","","248.2999999821186","images/flower5.png","","","learning","images/plants_choice2.png","images/plants_choice3.png","images/plants_choice1.png","[1,2,0]","0","2","1","images/plants_choice2.png","-1","plants","","flower","2","0"
"html-keyboard-response","152","658846","0.0-9.0-2.0-0.33","1523","2","2","""event"",""trial"",""time""
""fullscreenenter"",""1"",""4612""
","
","
","""event"",""trial"",""time""
""fullscreenenter"",""1"",""4612""
","
","","","","","","null","<div style=""font-size:60px;"">+</div>","null","","fixation","","","","","","","","","","","","","",""
"learning-trial","153","662849","0.0-9.0-2.0-1.33","1523","2","2","""event"",""trial"",""time""
""fullscreenenter"",""1"",""4612""
","
","
","""event"",""trial"",""time""
""fullscreenenter"",""1"",""4612""
","
","","","","","","476","images/cactus3.png","","","learning","images/plants_choice2.png","images/plants_choice3.png","images/plants_choice1.png","[1,2,0]","0","2","3","images/plants_choice1.png","1","plants","","cactus","2","0"
"html-keyboard-response","154","663350","0.0-9.0-2.0-0.34","1523","2","2","""event"",""trial"",""time""
""fullscreenenter"",""1"",""4612""
","
","
","""event"",""trial"",""time""
""fullscreenenter"",""1"",""4612""
","
","","","","","","null","<div style=""font-size:60px;"">+</div>","null","","fixation","","","","","","","","","","","","","",""
"learning-trial","155","667354","0.0-9.0-2.0-1.34","1523","2","2","""event"",""trial"",""time""
""fullscreenenter"",""1"",""4612""
","
","
","""event"",""trial"",""time""
""fullscreenenter"",""1"",""4612""
","
","","","","","","450.30000001192093","images/cactus5.png","","","learning","images/plants_choice1.png","images/plants_choice2.png","images/plants_choice3.png","[0,1,2]","2","2","2","images/plants_choice2.png","-1","plants","","cactus","2","0"
"html-keyboard-response","156","667855","0.0-9.0-2.0-0.35","1523","2","2","""event"",""trial"",""time""
""fullscreenenter"",""1"",""4612""
","
","
","""event"",""trial"",""time""
""fullscreenenter"",""1"",""4612""
","
","","","","","","null","<div style=""font-size:60px;"">+</div>","null","","fixation","","","","","","","","","","","","","",""
"learning-trial","157","671859","0.0-9.0-2.0-1.35","1523","2","2","""event"",""trial"",""time""
""fullscreenenter"",""1"",""4612""
","
","
","""event"",""trial"",""time""
""fullscreenenter"",""1"",""4612""
","
","","","","","","1281.1000000238419","images/bush4.png","","","learning","images/plants_choice3.png","images/plants_choice1.png","images/plants_choice2.png","[2,0,1]","2","0","3","images/plants_choice2.png","-1","plants","","bush","2","0"
"html-keyboard-response","158","672360","0.0-9.0-2.0-0.36","1523","2","2","""event"",""trial"",""time""
""fullscreenenter"",""1"",""4612""
","
","
","""event"",""trial"",""time""
""fullscreenenter"",""1"",""4612""
","
","","","","","","null","<div style=""font-size:60px;"">+</div>","null","","fixation","","","","","","","","","","","","","",""
"learning-trial","159","676363","0.0-9.0-2.0-1.36","1523","2","2","""event"",""trial"",""time""
""fullscreenenter"",""1"",""4612""
","
","
","""event"",""trial"",""time""
""fullscreenenter"",""1"",""4612""
","
","","","","","","1224.5","images/cactus1.png","","","learning","images/plants_choice2.png","images/plants_choice1.png","images/plants_choice3.png","[1,0,2]","1","0","3","images/plants_choice3.png","-1","plants","","cactus","2","0"
"html-keyboard-response","160","676865","0.0-9.0-2.0-0.37","1523","2","2","""event"",""trial"",""time""
""fullscreenenter"",""1"",""4612""
","
","
","""event"",""trial"",""time""
""fullscreenenter"",""1"",""4612""
","
","","","","","","null","<div style=""font-size:60px;"">+</div>","null","","fixation","","","","","","","","","","","","","",""
"learning-trial","161","680868","0.0-9.0-2.0-1.37","1523","2","2","""event"",""trial"",""time""
""fullscreenenter"",""1"",""4612""
","
","
","""event"",""trial"",""time""
""fullscreenenter"",""1"",""4612""
","
","","","","","","351","images/cactus3.png","","","learning","images/plants_choice2.png","images/plants_choice3.png","images/plants_choice1.png","[1,2,0]","0","2","3","images/plants_choice1.png","1","plants","","cactus","2","0"
"html-keyboard-response","162","681369","0.0-9.0-2.0-0.38","1523","2","2","""event"",""trial"",""time""
""fullscreenenter"",""1"",""4612""
","
","
","""event"",""trial"",""time""
""fullscreenenter"",""1"",""4612""
","
","","","","","","null","<div style=""font-size:60px;"">+</div>","null","","fixation","","","","","","","","","","","","","",""
"learning-trial","163","685372","0.0-9.0-2.0-1.38","1523","2","2","""event"",""trial"",""time""
""fullscreenenter"",""1"",""4612""
","
","
","""event"",""trial"",""time""
""fullscreenenter"",""1"",""4612""
","
","","","","","","283.40000000596046","images/flower3.png","","","learning","images/plants_choice3.png","images/plants_choice1.png","images/plants_choice2.png","[2,0,1]","1","2","2","images/plants_choice1.png","-1","plants","","flower","2","0"
"html-keyboard-response","164","685888","0.0-9.0-2.0-0.39","1523","2","2","""event"",""trial"",""time""
""fullscreenenter"",""1"",""4612""
","
","
","""event"",""trial"",""time""
""fullscreenenter"",""1"",""4612""
","
","","","","","","null","<div style=""font-size:60px;"">+</div>","null","","fixation","","","","","","","","","","","","","",""
"learning-trial","165","689891","0.0-9.0-2.0-1.39","1523","2","2","""event"",""trial"",""time""
""fullscreenenter"",""1"",""4612""
","
","
","""event"",""trial"",""time""
""fullscreenenter"",""1"",""4612""
","
","","","","","","330.2999999821186","images/bush1.png","","","learning","images/plants_choice1.png","images/plants_choice3.png","images/plants_choice2.png","[0,2,1]","0","0","1","images/plants_choice1.png","1","plants","","bush","2","0"
"html-keyboard-response","166","690392","0.0-9.0-2.0-0.40","1523","2","2","""event"",""trial"",""time""
""fullscreenenter"",""1"",""4612""
","
","
","""event"",""trial"",""time""
""fullscreenenter"",""1"",""4612""
","
","","","","","","null","<div style=""font-size:60px;"">+</div>","null","","fixation","","","","","","","","","","","","","",""
"learning-trial","167","694396","0.0-9.0-2.0-1.40","1523","2","2","""event"",""trial"",""time""
""fullscreenenter"",""1"",""4612""
","
","
","""event"",""trial"",""time""
""fullscreenenter"",""1"",""4612""
","
","","","","","","301.30000001192093","images/bush1.png","","","learning","images/plants_choice2.png","images/plants_choice1.png","images/plants_choice3.png","[1,0,2]","0","1","3","images/plants_choice3.png","-1","plants","","bush","2","0"
"html-keyboard-response","168","694897","0.0-9.0-2.0-0.41","1523","2","2","""event"",""trial"",""time""
""fullscreenenter"",""1"",""4612""
","
","
","""event"",""trial"",""time""
""fullscreenenter"",""1"",""4612""
","
","","","","","","null","<div style=""font-size:60px;"">+</div>","null","","fixation","","","","","","","","","","","","","",""
"learning-trial","169","698900","0.0-9.0-2.0-1.41","1523","2","2","""event"",""trial"",""time""
""fullscreenenter"",""1"",""4612""
","
","
","""event"",""trial"",""time""
""fullscreenenter"",""1"",""4612""
","
","","","","","","361.7000000178814","images/bush2.png","","","learning","images/plants_choice3.png","images/plants_choice2.png","images/plants_choice1.png","[2,1,0]","1","1","2","images/plants_choice2.png","1","plants","","bush","2","0"
"html-keyboard-response","170","699401","0.0-9.0-2.0-0.42","1523","2","2","""event"",""trial"",""time""
""fullscreenenter"",""1"",""4612""
","
","
","""event"",""trial"",""time""
""fullscreenenter"",""1"",""4612""
","
","","","","","","null","<div style=""font-size:60px;"">+</div>","null","","fixation","","","","","","","","","","","","","",""
"learning-trial","171","703405","0.0-9.0-2.0-1.42","1523","2","2","""event"",""trial"",""time""
""fullscreenenter"",""1"",""4612""
","
","
","""event"",""trial"",""time""
""fullscreenenter"",""1"",""4612""
","
","","","","","","391.90000000596046","images/bush2.png","","","learning","images/plants_choice3.png","images/plants_choice2.png","images/plants_choice1.png","[2,1,0]","1","1","1","images/plants_choice3.png","1","plants","","bush","2","0"
"html-keyboard-response","172","703906","0.0-9.0-2.0-0.43","1523","2","2","""event"",""trial"",""time""
""fullscreenenter"",""1"",""4612""
","
","
","""event"",""trial"",""time""
""fullscreenenter"",""1"",""4612""
","
","","","","","","null","<div style=""font-size:60px;"">+</div>","null","","fixation","","","","","","","","","","","","","",""
"learning-trial","173","707908","0.0-9.0-2.0-1.43","1523","2","2","""event"",""trial"",""time""
""fullscreenenter"",""1"",""4612""
","
","
","""event"",""trial"",""time""
""fullscreenenter"",""1"",""4612""
","
","","","","","","334.2999999821186","images/bush2.png","","","learning","images/plants_choice1.png","images/plants_choice3.png","images/plants_choice2.png","[0,2,1]","1","2","3","images/plants_choice2.png","1","plants","","bush","2","0"
"html-keyboard-response","174","708409","0.0-9.0-2.0-0.44","1523","2","2","""event"",""trial"",""time""
""fullscreenenter"",""1"",""4612""
","
","
","""event"",""trial"",""time""
""fullscreenenter"",""1"",""4612""
","
","","","","","","null","<div style=""font-size:60px;"">+</div>","null","","fixation","","","","","","","","","","","","","",""
"learning-trial","175","712412","0.0-9.0-2.0-1.44","1523","2","2","""event"",""trial"",""time""
""fullscreenenter"",""1"",""4612""
","
","
","""event"",""trial"",""time""
""fullscreenenter"",""1"",""4612""
","
","","","","","","46.099999994039536","images/bush4.png","","","learning","images/plants_choice3.png","images/plants_choice2.png","images/plants_choice1.png","[2,1,0]","2","0","2","images/plants_choice2.png","-1","plants","","bush","2","0"
"html-keyboard-response","176","712913","0.0-9.0-2.0-0.45","1523","2","2","""event"",""trial"",""time""
""fullscreenenter"",""1"",""4612""
","
","
","""event"",""trial"",""time""
""fullscreenenter"",""1"",""4612""
","
","","","","","","null","<div style=""font-size:60px;"">+</div>","null","","fixation","","","","","","","","","","","","","",""
"learning-trial","177","716916","0.0-9.0-2.0-1.45","1523","2","2","""event"",""trial"",""time""
""fullscreenenter"",""1"",""4612""
","
","
","""event"",""trial"",""time""
""fullscreenenter"",""1"",""4612""
","
","","","","","","101.09999999403954","images/cactus3.png","","","learning","images/plants_choice2.png","images/plants_choice3.png","images/plants_choice1.png","[1,2,0]","0","2","1","images/plants_choice2.png","1","plants","","cactus","2","0"
"html-keyboard-response","178","717417","0.0-9.0-2.0-0.46","1523","2","2","""event"",""trial"",""time""
""fullscreenenter"",""1"",""4612""
","
","
","""event"",""trial"",""time""
""fullscreenenter"",""1"",""4612""
","
","","","","","","null","<div style=""font-size:60px;"">+</div>","null","","fixation","","","","","","","","","","","","","",""
"learning-trial","179","721421","0.0-9.0-2.0-1.46","1523","2","2","""event"",""trial"",""time""
""fullscreenenter"",""1"",""4612""
","
","
","""event"",""trial"",""time""
""fullscreenenter"",""1"",""4612""
","
","","","","","","97.10000002384186","images/cactus1.png","","","learning","images/plants_choice1.png","images/plants_choice2.png","images/plants_choice3.png","[0,1,2]","1","1","3","images/plants_choice3.png","-1","plants","","cactus","2","0"
"html-keyboard-response","180","721922","0.0-9.0-2.0-0.47","1523","2","2","""event"",""trial"",""time""
""fullscreenenter"",""1"",""4612""
","
","
","""event"",""trial"",""time""
""fullscreenenter"",""1"",""4612""
","
","","","","","","null","<div style=""font-size:60px;"">+</div>","null","","fixation","","","","","","","","","","","","","",""
"learning-trial","181","725925","0.0-9.0-2.0-1.47","1523","2","2","""event"",""trial"",""time""
""fullscreenenter"",""1"",""4612""
","
","
","""event"",""trial"",""time""
""fullscreenenter"",""1"",""4612""
","
","","","","","","743.5","images/flower3.png","","","learning","images/plants_choice2.png","images/plants_choice1.png","images/plants_choice3.png","[1,0,2]","1","0","2","images/plants_choice1.png","-1","plants","","flower","2","0"
"html-keyboard-response","182","726426","0.0-9.0-2.0-0.48","1523","2","2","""event"",""trial"",""time""
""fullscreenenter"",""1"",""4612""
","
","
","""event"",""trial"",""time""
""fullscreenenter"",""1"",""4612""
","
","","","","","","null","<div style=""font-size:60px;"">+</div>","null","","fixation","","","","","","","","","","","","","",""
"learning-trial","183","730430","0.0-9.0-2.0-1.48","1523","2","2","""event"",""trial"",""time""
""fullscreenenter"",""1"",""4612""
","
","
","""event"",""trial"",""time""
""fullscreenenter"",""1"",""4612""
","
","","","","","","670.6999999880791","images/cactus3.png","","","learning","images/plants_choice2.png","images/plants_choice3.png","images/plants_choice1.png","[1,2,0]","0","2","1","images/plants_choice2.png","-1","plants","","cactus","2","0"
"html-keyboard-response","184","730931","0.0-9.0-2.0-0.49","1523","2","2","""event"",""trial"",""time""
""fullscreenenter"",""1"",""4612""
","
","
","""event"",""trial"",""time""
""fullscreenenter"",""1"",""4612""
","
","","","","","","null","<div style=""font-size:60px;"">+</div>","null","","fixation","","","","","","","","","","","","","",""
"learning-trial","185","734935","0.0-9.0-2.0-1.49","1523","2","2","""event"",""trial"",""time""
""fullscreenenter"",""1"",""4612""
","
","
","""event"",""trial"",""time""
""fullscreenenter"",""1"",""4612""
","
","","","","","","324.40000000596046","images/cactus5.png","","","learning","images/plants_choice2.png","images/plants_choice3.png","images/plants_choice1.png","[1,2,0]","2","1","3","images/plants_choice1.png","-1","plants","","cactus","2","0"
"html-keyboard-response","186","735436","0.0-9.0-2.0-0.50","1523","2","2","""event"",""trial"",""time""
""fullscreenenter"",""1"",""4612""
","
","
","""event"",""trial"",""time""
""fullscreenenter"",""1"",""4612""
","
","","","","","","null","<div style=""font-size:60px;"">+</div>","null","","fixation","","","","","","","","","","","","","",""
"learning-trial","187","739439","0.0-9.0-2.0-1.50","1523","2","2","""event"",""trial"",""time""
""fullscreenenter"",""1"",""4612""
","
","
","""event"",""trial"",""time""
""fullscreenenter"",""1"",""4612""
","
","","","","","","338.5","images/bush1.png","","","learning","images/plants_choice1.png","images/plants_choice2.png","images/plants_choice3.png","[0,1,2]","0","0","2","images/plants_choice2.png","1","plants","","bush","2","0"
"html-keyboard-response","188","739941","0.0-9.0-2.0-0.51","1523","2","2","""event"",""trial"",""time""
""fullscreenenter"",""1"",""4612""
","
","
","""event"",""trial"",""time""
""fullscreenenter"",""1"",""4612""
","
","","","","","","null","<div style=""font-size:60px;"">+</div>","null","","fixation","","","","","","","","","","","","","",""
"learning-trial","189","743958","0.0-9.0-2.0-1.51","1523","2","2","""event"",""trial"",""time""
""fullscreenenter"",""1"",""4612""
","
","
","""event"",""trial"",""time""
""fullscreenenter"",""1"",""4612""
","
","","","","","","285.19999998807907","images/flower3.png","","","learning","images/plants_choice1.png","images/plants_choice3.png","images/plants_choice2.png","[0,2,1]","1","2","1","images/plants_choice1.png","-1","plants","","flower","2","0"
"html-keyboard-response","190","744459","0.0-9.0-2.0-0.52","1523","2","2","""event"",""trial"",""time""
""fullscreenenter"",""1"",""4612""
","
","
","""event"",""trial"",""time""
""fullscreenenter"",""1"",""4612""
","
","","","","","","null","<div style=""font-size:60px;"">+</div>","null","","fixation","","","","","","","","","","","","","",""
"learning-trial","191","748461","0.0-9.0-2.0-1.52","1523","2","2","""event"",""trial"",""time""
""fullscreenenter"",""1"",""4612""
","
","
","""event"",""trial"",""time""
""fullscreenenter"",""1"",""4612""
","
","","","","","","604.3000000119209","images/bush2.png","","","learning","images/plants_choice1.png","images/plants_choice3.png","images/plants_choice2.png","[0,2,1]","1","2","3","images/plants_choice2.png","1","plants","","bush","2","0"
"html-keyboard-response","192","748963","0.0-9.0-2.0-0.53","1523","2","2","""event"",""trial"",""time""
""fullscreenenter"",""1"",""4612""
","
","
","""event"",""trial"",""time""
""fullscreenenter"",""1"",""4612""
","
","","","","","","null","<div style=""font-size:60px;"">+</div>","null","","fixation","","","","","","","","","","","","","",""
"learning-trial","193","752966","0.0-9.0-2.0-1.53","1523","2","2","""event"",""trial"",""time""
""fullscreenenter"",""1"",""4612""
","
","
","""event"",""trial"",""time""
""fullscreenenter"",""1"",""4612""
","
","","","","","","1732.7999999821186","images/flower2.png","","","learning","images/plants_choice2.png","images/plants_choice3.png","images/plants_choice1.png","[1,2,0]","2","1","1","images/plants_choice2.png","-1","plants","","flower","2","0"
"html-keyboard-response","194","753467","0.0-9.0-2.0-0.54","1523","2","2","""event"",""trial"",""time""
""fullscreenenter"",""1"",""4612""
","
","
","""event"",""trial"",""time""
""fullscreenenter"",""1"",""4612""
","
","","","","","","null","<div style=""font-size:60px;"">+</div>","null","","fixation","","","","","","","","","","","","","",""
"learning-trial","195","757472","0.0-9.0-2.0-1.54","1523","2","2","""event"",""trial"",""time""
""fullscreenenter"",""1"",""4612""
","
","
","""event"",""trial"",""time""
""fullscreenenter"",""1"",""4612""
","
","","","","","","3022.199999988079","images/cactus1.png","","","learning","images/plants_choice3.png","images/plants_choice1.png","images/plants_choice2.png","[2,0,1]","1","2","3","images/plants_choice2.png","1","plants","","cactus","2","0"
"html-keyboard-response","196","757973","0.0-9.0-2.0-0.55","1523","2","2","""event"",""trial"",""time""
""fullscreenenter"",""1"",""4612""
","
","
","""event"",""trial"",""time""
""fullscreenenter"",""1"",""4612""
","
","","","","","","null","<div style=""font-size:60px;"">+</div>","null","","fixation","","","","","","","","","","","","","",""
"learning-trial","197","761976","0.0-9.0-2.0-1.55","1523","2","2","""event"",""trial"",""time""
""fullscreenenter"",""1"",""4612""
","
","
","""event"",""trial"",""time""
""fullscreenenter"",""1"",""4612""
","
","","","","","","1692.800000011921","images/cactus3.png","","","learning","images/plants_choice1.png","images/plants_choice2.png","images/plants_choice3.png","[0,1,2]","0","0","2","images/plants_choice2.png","-1","plants","","cactus","2","0"
"html-keyboard-response","198","762477","0.0-9.0-2.0-0.56","1523","2","2","""event"",""trial"",""time""
""fullscreenenter"",""1"",""4612""
","
","
","""event"",""trial"",""time""
""fullscreenenter"",""1"",""4612""
","
","","","","","","null","<div style=""font-size:60px;"">+</div>","null","","fixation","","","","","","","","","","","","","",""
"learning-trial","199","766480","0.0-9.0-2.0-1.56","1523","2","2","""event"",""trial"",""time""
""fullscreenenter"",""1"",""4612""
","
","
","""event"",""trial"",""time""
""fullscreenenter"",""1"",""4612""
","
","","","","","","1045.4000000059605","images/bush4.png","","","learning","images/plants_choice2.png","images/plants_choice1.png","images/plants_choice3.png","[1,0,2]","2","2","1","images/plants_choice2.png","-1","plants","","bush","2","0"
"html-keyboard-response","200","766981","0.0-9.0-2.0-0.57","1523","2","2","""event"",""trial"",""time""
""fullscreenenter"",""1"",""4612""
","
","
","""event"",""trial"",""time""
""fullscreenenter"",""1"",""4612""
","
","","","","","","null","<div style=""font-size:60px;"">+</div>","null","","fixation","","","","","","","","","","","","","",""
"learning-trial","201","770985","0.0-9.0-2.0-1.57","1523","2","2","""event"",""trial"",""time""
""fullscreenenter"",""1"",""4612""
","
","
","""event"",""trial"",""time""
""fullscreenenter"",""1"",""4612""
","
","","","","","","1056.7000000178814","images/flower2.png","","","learning","images/plants_choice2.png","images/plants_choice3.png","images/plants_choice1.png","[1,2,0]","2","1","2","images/plants_choice3.png","1","plants","","flower","2","0"
"html-keyboard-response","202","771486","0.0-9.0-2.0-0.58","1523","2","2","""event"",""trial"",""time""
""fullscreenenter"",""1"",""4612""
","
","
","""event"",""trial"",""time""
""fullscreenenter"",""1"",""4612""
","
","","","","","","null","<div style=""font-size:60px;"">+</div>","null","","fixation","","","","","","","","","","","","","",""
"learning-trial","203","775489","0.0-9.0-2.0-1.58","1523","2","2","""event"",""trial"",""time""
""fullscreenenter"",""1"",""4612""
","
","
","""event"",""trial"",""time""
""fullscreenenter"",""1"",""4612""
","
","","","","","","570.8000000119209","images/flower2.png","","","learning","images/plants_choice3.png","images/plants_choice2.png","images/plants_choice1.png","[2,1,0]","2","0","2","images/plants_choice2.png","-1","plants","","flower","2","0"
"html-keyboard-response","204","775990","0.0-9.0-2.0-0.59","1523","2","2","""event"",""trial"",""time""
""fullscreenenter"",""1"",""4612""
","
","
","""event"",""trial"",""time""
""fullscreenenter"",""1"",""4612""
","
","","","","","","null","<div style=""font-size:60px;"">+</div>","null","","fixation","","","","","","","","","","","","","",""
"learning-trial","205","779993","0.0-9.0-2.0-1.59","1523","2","2","""event"",""trial"",""time""
""fullscreenenter"",""1"",""4612""
","
","
","""event"",""trial"",""time""
""fullscreenenter"",""1"",""4612""
","
","","","","","","1497.800000011921","images/cactus5.png","","","learning","images/plants_choice2.png","images/plants_choice3.png","images/plants_choice1.png","[1,2,0]","2","1","1","images/plants_choice2.png","-1","plants","","cactus","2","0"
"html-keyboard-response","206","780495","0.0-9.0-2.0-0.60","1523","2","2","""event"",""trial"",""time""
""fullscreenenter"",""1"",""4612""
","
","
","""event"",""trial"",""time""
""fullscreenenter"",""1"",""4612""
","
","","","","","","null","<div style=""font-size:60px;"">+</div>","null","","fixation","","","","","","","","","","","","","",""
"learning-trial","207","784498","0.0-9.0-2.0-1.60","1523","2","2","""event"",""trial"",""time""
""fullscreenenter"",""1"",""4612""
","
","
","""event"",""trial"",""time""
""fullscreenenter"",""1"",""4612""
","
","","","","","","1593.7000000178814","images/bush1.png","","","learning","images/plants_choice2.png","images/plants_choice1.png","images/plants_choice3.png","[1,0,2]","0","1","3","images/plants_choice3.png","-1","plants","","bush","2","0"
"html-keyboard-response","208","784999","0.0-9.0-2.0-0.61","1523","2","2","""event"",""trial"",""time""
""fullscreenenter"",""1"",""4612""
","
","
","""event"",""trial"",""time""
""fullscreenenter"",""1"",""4612""
","
","","","","","","null","<div style=""font-size:60px;"">+</div>","null","","fixation","","","","","","","","","","","","","",""
"learning-trial","209","789002","0.0-9.0-2.0-1.61","1523","2","2","""event"",""trial"",""time""
""fullscreenenter"",""1"",""4612""
","
","
","""event"",""trial"",""time""
""fullscreenenter"",""1"",""4612""
","
","","","","","","1416.5","images/flower3.png","","","learning","images/plants_choice2.png","images/plants_choice1.png","images/plants_choice3.png","[1,0,2]","1","0","1","images/plants_choice2.png","1","plants","","flower","2","0"
"html-keyboard-response","210","789508","0.0-9.0-2.0-0.62","1523","2","2","""event"",""trial"",""time""
""fullscreenenter"",""1"",""4612""
","
","
","""event"",""trial"",""time""
""fullscreenenter"",""1"",""4612""
","
","","","","","","null","<div style=""font-size:60px;"">+</div>","null","","fixation","","","","","","","","","","","","","",""
"learning-trial","211","793511","0.0-9.0-2.0-1.62","1523","2","2","""event"",""trial"",""time""
""fullscreenenter"",""1"",""4612""
","
","
","""event"",""trial"",""time""
""fullscreenenter"",""1"",""4612""
","
","","","","","","1264","images/bush1.png","","","learning","images/plants_choice3.png","images/plants_choice1.png","images/plants_choice2.png","[2,0,1]","0","1","1","images/plants_choice3.png","-1","plants","","bush","2","0"
"html-keyboard-response","212","794012","0.0-9.0-2.0-0.63","1523","2","2","""event"",""trial"",""time""
""fullscreenenter"",""1"",""4612""
","
","
","""event"",""trial"",""time""
""fullscreenenter"",""1"",""4612""
","
","","","","","","null","<div style=""font-size:60px;"">+</div>","null","","fixation","","","","","","","","","","","","","",""
"learning-trial","213","798015","0.0-9.0-2.0-1.63","1523","2","2","""event"",""trial"",""time""
""fullscreenenter"",""1"",""4612""
","
","
","""event"",""trial"",""time""
""fullscreenenter"",""1"",""4612""
","
","","","","","","748.2999999821186","images/bush1.png","","","learning","images/plants_choice3.png","images/plants_choice1.png","images/plants_choice2.png","[2,0,1]","0","1","2","images/plants_choice1.png","-1","plants","","bush","2","0"
"html-keyboard-response","214","798518","0.0-9.0-2.0-0.64","1523","2","2","""event"",""trial"",""time""
""fullscreenenter"",""1"",""4612""
","
","
","""event"",""trial"",""time""
""fullscreenenter"",""1"",""4612""
","
","","","","","","null","<div style=""font-size:60px;"">+</div>","null","","fixation","","","","","","","","","","","","","",""
"learning-trial","215","802521","0.0-9.0-2.0-1.64","1523","2","2","""event"",""trial"",""time""
""fullscreenenter"",""1"",""4612""
","
","
","""event"",""trial"",""time""
""fullscreenenter"",""1"",""4612""
","
","","","","","","2854.2999999821186","images/cactus3.png","","","learning","images/plants_choice1.png","images/plants_choice2.png","images/plants_choice3.png","[0,1,2]","0","0","3","images/plants_choice3.png","-1","plants","","cactus","2","0"
"html-keyboard-response","216","803022","0.0-9.0-2.0-0.65","1523","2","2","""event"",""trial"",""time""
""fullscreenenter"",""1"",""4612""
","
","
","""event"",""trial"",""time""
""fullscreenenter"",""1"",""4612""
","
","","","","","","null","<div style=""font-size:60px;"">+</div>","null","","fixation","","","","","","","","","","","","","",""
"learning-trial","217","807026","0.0-9.0-2.0-1.65","1523","2","2","""event"",""trial"",""time""
""fullscreenenter"",""1"",""4612""
","
","
","""event"",""trial"",""time""
""fullscreenenter"",""1"",""4612""
","
","","","","","","1328.7000000178814","images/bush2.png","","","learning","images/plants_choice3.png","images/plants_choice2.png","images/plants_choice1.png","[2,1,0]","1","1","1","images/plants_choice3.png","-1","plants","","bush","2","0"
"html-keyboard-response","218","807527","0.0-9.0-2.0-0.66","1523","2","2","""event"",""trial"",""time""
""fullscreenenter"",""1"",""4612""
","
","
","""event"",""trial"",""time""
""fullscreenenter"",""1"",""4612""
","
","","","","","","null","<div style=""font-size:60px;"">+</div>","null","","fixation","","","","","","","","","","","","","",""
"learning-trial","219","811530","0.0-9.0-2.0-1.66","1523","2","2","""event"",""trial"",""time""
""fullscreenenter"",""1"",""4612""
","
","
","""event"",""trial"",""time""
""fullscreenenter"",""1"",""4612""
","
","","","","","","822","images/cactus1.png","","","learning","images/plants_choice2.png","images/plants_choice1.png","images/plants_choice3.png","[1,0,2]","1","0","3","images/plants_choice3.png","-1","plants","","cactus","2","0"
"html-keyboard-response","220","812031","0.0-9.0-2.0-0.67","1523","2","2","""event"",""trial"",""time""
""fullscreenenter"",""1"",""4612""
","
","
","""event"",""trial"",""time""
""fullscreenenter"",""1"",""4612""
","
","","","","","","null","<div style=""font-size:60px;"">+</div>","null","","fixation","","","","","","","","","","","","","",""
"learning-trial","221","816035","0.0-9.0-2.0-1.67","1523","2","2","""event"",""trial"",""time""
""fullscreenenter"",""1"",""4612""
","
","
","""event"",""trial"",""time""
""fullscreenenter"",""1"",""4612""
","
","","","","","","416.30000001192093","images/cactus3.png","","","learning","images/plants_choice2.png","images/plants_choice1.png","images/plants_choice3.png","[1,0,2]","0","1","1","images/plants_choice2.png","-1","plants","","cactus","2","0"
"html-keyboard-response","222","816537","0.0-9.0-2.0-0.68","1523","2","2","""event"",""trial"",""time""
""fullscreenenter"",""1"",""4612""
","
","
","""event"",""trial"",""time""
""fullscreenenter"",""1"",""4612""
","
","","","","","","null","<div style=""font-size:60px;"">+</div>","null","","fixation","","","","","","","","","","","","","",""
"learning-trial","223","820540","0.0-9.0-2.0-1.68","1523","2","2","""event"",""trial"",""time""
""fullscreenenter"",""1"",""4612""
","
","
","""event"",""trial"",""time""
""fullscreenenter"",""1"",""4612""
","
","","","","","","266.19999998807907","images/bush2.png","","","learning","images/plants_choice2.png","images/plants_choice1.png","images/plants_choice3.png","[1,0,2]","1","0","2","images/plants_choice1.png","-1","plants","","bush","2","0"
"html-keyboard-response","224","821042","0.0-9.0-2.0-0.69","1523","2","2","""event"",""trial"",""time""
""fullscreenenter"",""1"",""4612""
","
","
","""event"",""trial"",""time""
""fullscreenenter"",""1"",""4612""
","
","","","","","","null","<div style=""font-size:60px;"">+</div>","null","","fixation","","","","","","","","","","","","","",""
"learning-trial","225","825045","0.0-9.0-2.0-1.69","1523","2","2","""event"",""trial"",""time""
""fullscreenenter"",""1"",""4612""
","
","
","""event"",""trial"",""time""
""fullscreenenter"",""1"",""4612""
","
","","","","","","419.60000002384186","images/cactus1.png","","","learning","images/plants_choice2.png","images/plants_choice1.png","images/plants_choice3.png","[1,0,2]","1","0","3","images/plants_choice3.png","-1","plants","","cactus","2","0"
"html-keyboard-response","226","825546","0.0-9.0-2.0-0.70","1523","2","2","""event"",""trial"",""time""
""fullscreenenter"",""1"",""4612""
","
","
","""event"",""trial"",""time""
""fullscreenenter"",""1"",""4612""
","
","","","","","","null","<div style=""font-size:60px;"">+</div>","null","","fixation","","","","","","","","","","","","","",""
"learning-trial","227","829550","0.0-9.0-2.0-1.70","1523","2","2","""event"",""trial"",""time""
""fullscreenenter"",""1"",""4612""
","
","
","""event"",""trial"",""time""
""fullscreenenter"",""1"",""4612""
","
","","","","","","216.39999997615814","images/bush4.png","","","learning","images/plants_choice2.png","images/plants_choice1.png","images/plants_choice3.png","[1,0,2]","2","2","3","images/plants_choice3.png","1","plants","","bush","2","0"
"html-keyboard-response","228","830051","0.0-9.0-2.0-0.71","1523","2","2","""event"",""trial"",""time""
""fullscreenenter"",""1"",""4612""
","
","
","""event"",""trial"",""time""
""fullscreenenter"",""1"",""4612""
","
","","","","","","null","<div style=""font-size:60px;"">+</div>","null","","fixation","","","","","","","","","","","","","",""
"learning-trial","229","834055","0.0-9.0-2.0-1.71","1523","2","2","""event"",""trial"",""time""
""fullscreenenter"",""1"",""4612""
","
","
","""event"",""trial"",""time""
""fullscreenenter"",""1"",""4612""
","
","","","","","","247","images/flower2.png","","","learning","images/plants_choice1.png","images/plants_choice2.png","images/plants_choice3.png","[0,1,2]","2","2","2","images/plants_choice2.png","-1","plants","","flower","2","0"
"html-button-response","230","836534","0.0-9.0-3.0","1523","2","2","""event"",""trial"",""time""
""fullscreenenter"",""1"",""4612""
","
","
","""event"",""trial"",""time""
""fullscreenenter"",""1"",""4612""
","
","","","","","","2477.5","<p> You have completed the round! <p> In this round, you earned -30 points! </p>","0","","break","","","","","","","","","","","","","",""
"html-button-response","231","837863","0.0-10.0","1523","2","2","""event"",""trial"",""time""
""fullscreenenter"",""1"",""4612""
","
","
","""event"",""trial"",""time""
""fullscreenenter"",""1"",""4612""
","
","","","","","","1328.2000000178814","<p> Now it's time to play another round. </p>","0","","transition_screen","","","","","","","","","","","","","",""
"preload","232","841452","0.0-11.0-0.0","1523","2","2","""event"",""trial"",""time""
""fullscreenenter"",""1"",""4612""
","
","
","""event"",""trial"",""time""
""fullscreenenter"",""1"",""4612""
","
","true","false","[]","[]","[]","","","","","","","","","","","","","","","","","","",""
"learning-instructions","233","863704","0.0-11.0-1.0-0.0","1523","2","2","""event"",""trial"",""time""
""fullscreenenter"",""1"",""4612""
","
","
","""event"",""trial"",""time""
""fullscreenenter"",""1"",""4612""
","
","","","","","","14161.5","<p> Your goal in this round is to deliver furniture to three different buildings. </p><p> You will need to deliver many pieces of furniture. </p></div>","","0","instructions","","","","","","","","","","","","","",""
"learning-instructions","234","871293","0.0-11.0-1.0-0.1","1523","2","2","""event"",""trial"",""time""
""fullscreenenter"",""1"",""4612""
","
","
","""event"",""trial"",""time""
""fullscreenenter"",""1"",""4612""
","
","","","","","","149.90000000596046","<p> On each turn, you will see a picture of a furniture item and three different buildings.  </p><p> You need to select the building that you want to deliver the furniture to.  </p>","","0","instructions","","","","","","","","","","","","","",""
"learning-instructions","235","881304","0.0-11.0-1.0-0.2","1523","2","2","""event"",""trial"",""time""
""fullscreenenter"",""1"",""4612""
","
","
","""event"",""trial"",""time""
""fullscreenenter"",""1"",""4612""
","
","","","","","","1711.0999999940395","<p> You can select the building on the left by pressing 1, the building in the middle by pressing 2, and the building on the right by pressing 3.  </p><br><div class=""choice-instructions-grid""> <div class=""choice-option""><img src=""images/furniture_choice1.png"" class=""choice-option-img"" stage=""instructions"" position=""0"" ><div class=""choice-option-text""> Press ""1."" </div></div><div class=""choice-option""><img src=""images/furniture_choice2.png"" class=""choice-option-img"" stage=""instructions"" position=""1"" ><div class=""choice-option-text""> Press ""2."" </div></div><div class=""choice-option""><img src=""images/furniture_choice3.png"" class=""choice-option-img"" stage=""instructions"" position=""2"" ><div class=""choice-option-text""> Press ""3."" </div></div></div>","","0","instructions","","","","","","","","","","","","","",""
