"trial_type","trial_index","time_elapsed","internal_node_id","subject_id","condition","task_version","interactions","blur_events","focus_events","fullscreenenter_events","fullscreenexit_events","success","timeout","failed_images","failed_audio","failed_video","rt","stimulus","response","button_pressed","task_part","left_choice","middle_choice","right_choice","choice_positions","correct_response","correct_position","key_press","option_selected","points","task_block","correct","stim_cat","block_condition","block_number"
"pavlovia","0","12","0.0-0.0","1809","2","2","""event"",""trial"",""time""
""focus"",""0"",""2""
""fullscreenenter"",""1"",""5938""
","
","""event"",""trial"",""time""
""focus"",""0"",""2""
","""event"",""trial"",""time""
""fullscreenenter"",""1"",""5938""
","
","","","","","","","","","","","","","","","","","","","","","","","",""
"fullscreen","1","6721","0.0-1.0","1809","2","2","""event"",""trial"",""time""
""focus"",""0"",""2""
""fullscreenenter"",""1"",""5938""
","
","""event"",""trial"",""time""
""focus"",""0"",""2""
","""event"",""trial"",""time""
""fullscreenenter"",""1"",""5938""
","
","true","","","","","","","","","","","","","","","","","","","","","","",""
"preload","2","9627","0.0-2.0","1809","2","2","""event"",""trial"",""time""
""focus"",""0"",""2""
""fullscreenenter"",""1"",""5938""
","
","""event"",""trial"",""time""
""focus"",""0"",""2""
","""event"",""trial"",""time""
""fullscreenenter"",""1"",""5938""
","
","true","false","[]","[]","[]","","","","","","","","","","","","","","","","","","",""
"audio-keyboard-response","3","12698","0.0-3.0","1809","2","2","""event"",""trial"",""time""
""focus"",""0"",""2""
""fullscreenenter"",""1"",""5938""
","
","""event"",""trial"",""time""
""focus"",""0"",""2""
","""event"",""trial"",""time""
""fullscreenenter"",""1"",""5938""
","
","","","","","","3072.000000000001","audio/beep_loop.wav","audiovolumeup","","","","","","","","","","","","","","","",""
"audio-button-response","4","16386","0.0-4.0","1809","2","2","""event"",""trial"",""time""
""focus"",""0"",""2""
""fullscreenenter"",""1"",""5938""
","
","""event"",""trial"",""time""
""focus"",""0"",""2""
","""event"",""trial"",""time""
""fullscreenenter"",""1"",""5938""
","
","","","","","","3691","audio/shark.wav","4","","","","","","","","","","","","","","","",""
"audio-button-response","5","20569","0.0-5.0","1809","2","2","""event"",""trial"",""time""
""focus"",""0"",""2""
""fullscreenenter"",""1"",""5938""
","
","""event"",""trial"",""time""
""focus"",""0"",""2""
","""event"",""trial"",""time""
""fullscreenenter"",""1"",""5938""
","
","","","","","","3179","audio/turtle.wav","1","","","","","","","","","","","","","","","",""
"preload","6","24598","0.0-6.0","1809","2","2","""event"",""trial"",""time""
""focus"",""0"",""2""
""fullscreenenter"",""1"",""5938""
","
","""event"",""trial"",""time""
""focus"",""0"",""2""
","""event"",""trial"",""time""
""fullscreenenter"",""1"",""5938""
","
","true","false","[]","[]","[]","","","","","","","","","","","","","","","","","","",""
"html-keyboard-response","7","28042","0.0-7.0","1809","2","2","""event"",""trial"",""time""
""focus"",""0"",""2""
""fullscreenenter"",""1"",""5938""
","
","""event"",""trial"",""time""
""focus"",""0"",""2""
","""event"",""trial"",""time""
""fullscreenenter"",""1"",""5938""
","
","","","","","","3442","Welcome to the experiment. Press any key to begin and to advance the instructions.","arrowright","","","","","","","","","","","","","","","",""
"learning-instructions","8","37040","0.0-8.0-0.0-0.0","1809","2","2","""event"",""trial"",""time""
""focus"",""0"",""2""
""fullscreenenter"",""1"",""5938""
","
","""event"",""trial"",""time""
""focus"",""0"",""2""
","""event"",""trial"",""time""
""fullscreenenter"",""1"",""5938""
","
","","","","","","1230","<p> Welcome! Today you are going to play 6 different rounds of a decision-making game. </p><p> Use the mouse to click next to continue. </p>","","0","instructions","","","","","","","","","","","","","",""
"learning-instructions","9","41250","0.0-8.0-0.0-0.1","1809","2","2","""event"",""trial"",""time""
""focus"",""0"",""2""
""fullscreenenter"",""1"",""5938""
","
","""event"",""trial"",""time""
""focus"",""0"",""2""
","""event"",""trial"",""time""
""fullscreenenter"",""1"",""5938""
","
","","","","","","1186","<p> You will start with a practice round to learn the rules. </p>","","0","instructions","","","","","","","","","","","","","",""
"learning-instructions","10","49391","0.0-8.0-0.0-0.2","1809","2","2","""event"",""trial"",""time""
""focus"",""0"",""2""
""fullscreenenter"",""1"",""5938""
","
","""event"",""trial"",""time""
""focus"",""0"",""2""
","""event"",""trial"",""time""
""fullscreenenter"",""1"",""5938""
","
","","","","","","388","<p> Your goal in this round is to deliver sports equipment to three different parks. </p><p> You will need to deliver many types of equipment. </p></div>","","0","instructions","","","","","","","","","","","","","",""
"learning-instructions","11","58315","0.0-8.0-0.0-0.3","1809","2","2","""event"",""trial"",""time""
""focus"",""0"",""2""
""fullscreenenter"",""1"",""5938""
","
","""event"",""trial"",""time""
""focus"",""0"",""2""
","""event"",""trial"",""time""
""fullscreenenter"",""1"",""5938""
","
","","","","","","426","<p> On each turn, you will see one piece of sports equipment and three different parks.  </p><p> You need to select which park to deliver the equipment to.  </p>","","0","instructions","","","","","","","","","","","","","",""
"learning-instructions","12","76424","0.0-8.0-0.0-0.4","1809","2","2","""event"",""trial"",""time""
""focus"",""0"",""2""
""fullscreenenter"",""1"",""5938""
","
","""event"",""trial"",""time""
""focus"",""0"",""2""
","""event"",""trial"",""time""
""fullscreenenter"",""1"",""5938""
","
","","","","","","4816","<p> You can select the park on the left by pressing the '1' key on your keyboard. <br>You can select the park in the middle by pressing the '2' key on your keyboard. <br>You can select the park on the right by pressing the '3' key on your keyboard.  </p><br><div class=""choice-instructions-grid""> <div class=""choice-option""><img src=""images/park1.png"" class=""choice-option-img"" stage=""instructions"" position=""0"" ><div class=""choice-option-text""> Press ""1."" </div></div><div class=""choice-option""><img src=""images/park2.png"" class=""choice-option-img"" stage=""instructions"" position=""1"" ><div class=""choice-option-text""> Press ""2."" </div></div><div class=""choice-option""><img src=""images/park3.png"" class=""choice-option-img"" stage=""instructions"" position=""2"" ><div class=""choice-option-text""> Press ""3."" </div></div></div>","","0","instructions","","","","","","","","","","","","","",""
"learning-instructions","13","82772","0.0-8.0-0.0-0.5","1809","2","2","""event"",""trial"",""time""
""focus"",""0"",""2""
""fullscreenenter"",""1"",""5938""
","
","""event"",""trial"",""time""
""focus"",""0"",""2""
","""event"",""trial"",""time""
""fullscreenenter"",""1"",""5938""
","
","","","","","","946","<p> If the kids in the park you chose like the equipment, they will be very happy! </p><div style='float: center;'><img src='images/check.png' width = '200' height = '200'></img>","","0","instructions","","","","","","","","","","","","","",""
"learning-instructions","14","89657","0.0-8.0-0.0-0.6","1809","2","2","""event"",""trial"",""time""
""focus"",""0"",""2""
""fullscreenenter"",""1"",""5938""
","
","""event"",""trial"",""time""
""focus"",""0"",""2""
","""event"",""trial"",""time""
""fullscreenenter"",""1"",""5938""
","
","","","","","","1281","<p> But, if the kids in the park you chose do not like the equipment, they will be sad. </p><div style='float: center;'><img src='images/x.png' width = '200' height = '200'></img>","","0","instructions","","","","","","","","","","","","","",""
"learning-instructions","15","97142","0.0-8.0-0.0-0.7","1809","2","2","""event"",""trial"",""time""
""focus"",""0"",""2""
""fullscreenenter"",""1"",""5938""
","
","""event"",""trial"",""time""
""focus"",""0"",""2""
","""event"",""trial"",""time""
""fullscreenenter"",""1"",""5938""
","
","","","","","","1055","<p> Importantly, the kids in each park like some pieces of sports equipment more than others. </p>","","0","instructions","","","","","","","","","","","","","",""
"learning-instructions","16","103652","0.0-8.0-0.0-0.8","1809","2","2","""event"",""trial"",""time""
""focus"",""0"",""2""
""fullscreenenter"",""1"",""5938""
","
","""event"",""trial"",""time""
""focus"",""0"",""2""
","""event"",""trial"",""time""
""fullscreenenter"",""1"",""5938""
","
","","","","","","440","<p> If you choose the best park for each piece of equipment, the kids there will usually be happy. </p>","","0","instructions","","","","","","","","","","","","","",""
"learning-instructions","17","111170","0.0-8.0-0.0-0.9","1809","2","2","""event"",""trial"",""time""
""focus"",""0"",""2""
""fullscreenenter"",""1"",""5938""
","
","""event"",""trial"",""time""
""focus"",""0"",""2""
","""event"",""trial"",""time""
""fullscreenenter"",""1"",""5938""
","
","","","","","","865","<p> However, even if you choose the best park for the equipment, the kids may sometimes be sad. </p>","","0","instructions","","","","","","","","","","","","","",""
"learning-instructions","18","118837","0.0-8.0-0.0-0.10","1809","2","2","""event"",""trial"",""time""
""focus"",""0"",""2""
""fullscreenenter"",""1"",""5938""
","
","""event"",""trial"",""time""
""focus"",""0"",""2""
","""event"",""trial"",""time""
""fullscreenenter"",""1"",""5938""
","
","","","","","","426","<p> Similarly, even if you choose the <i>wrong</i> park for the equipment, the kids may still be happy sometimes.","","0","instructions","","","","","","","","","","","","","",""
"learning-instructions","19","125361","0.0-8.0-0.0-0.11","1809","2","2","""event"",""trial"",""time""
""focus"",""0"",""2""
""fullscreenenter"",""1"",""5938""
","
","""event"",""trial"",""time""
""focus"",""0"",""2""
","""event"",""trial"",""time""
""fullscreenenter"",""1"",""5938""
","
","","","","","","1465","<p> For example, the best park for this soccer ball is this one.<div style='float: center;'><img src='images/i1.png' width = '500' height = '268'></img>","","0","instructions","","","","","","","","","","","","","",""
"learning-instructions","20","131597","0.0-8.0-0.0-0.12","1809","2","2","""event"",""trial"",""time""
""focus"",""0"",""2""
""fullscreenenter"",""1"",""5938""
","
","""event"",""trial"",""time""
""focus"",""0"",""2""
","""event"",""trial"",""time""
""fullscreenenter"",""1"",""5938""
","
","","","","","","928","<p> Let's see what happens if you choose this park for the soccer ball five times.","","0","instructions","","","","","","","","","","","","","",""
"learning-instructions","21","134178","0.0-8.0-0.0-0.13","1809","2","2","""event"",""trial"",""time""
""focus"",""0"",""2""
""fullscreenenter"",""1"",""5938""
","
","""event"",""trial"",""time""
""focus"",""0"",""2""
","""event"",""trial"",""time""
""fullscreenenter"",""1"",""5938""
","
","","","","","","394","<p> The kids are happy.<div style='float: left;'><img src='images/i2.png' width = '640' height = '360'></img>","","0","instructions","","","","","","","","","","","","","",""
"learning-instructions","22","136738","0.0-8.0-0.0-0.14","1809","2","2","""event"",""trial"",""time""
""focus"",""0"",""2""
""fullscreenenter"",""1"",""5938""
","
","""event"",""trial"",""time""
""focus"",""0"",""2""
","""event"",""trial"",""time""
""fullscreenenter"",""1"",""5938""
","
","","","","","","373","<p> The kids are happy.<div style='float: left;'><img src='images/i3.png' width = '640' height = '360'></img>","","0","instructions","","","","","","","","","","","","","",""
"learning-instructions","23","139305","0.0-8.0-0.0-0.15","1809","2","2","""event"",""trial"",""time""
""focus"",""0"",""2""
""fullscreenenter"",""1"",""5938""
","
","""event"",""trial"",""time""
""focus"",""0"",""2""
","""event"",""trial"",""time""
""fullscreenenter"",""1"",""5938""
","
","","","","","","369","<p> The kids are happy.<div style='float: left;'><img src='images/i4.png' width = '640' height = '360'></img>","","0","instructions","","","","","","","","","","","","","",""
"learning-instructions","24","141816","0.0-8.0-0.0-0.16","1809","2","2","""event"",""trial"",""time""
""focus"",""0"",""2""
""fullscreenenter"",""1"",""5938""
","
","""event"",""trial"",""time""
""focus"",""0"",""2""
","""event"",""trial"",""time""
""fullscreenenter"",""1"",""5938""
","
","","","","","","299","<p> The kids are sad.<div style='float: left;'><img src='images/i5.png' width = '640' height = '360'></img>","","0","instructions","","","","","","","","","","","","","",""
"learning-instructions","25","145462","0.0-8.0-0.0-0.17","1809","2","2","""event"",""trial"",""time""
""focus"",""0"",""2""
""fullscreenenter"",""1"",""5938""
","
","""event"",""trial"",""time""
""focus"",""0"",""2""
","""event"",""trial"",""time""
""fullscreenenter"",""1"",""5938""
","
","","","","","","1460","<p> The kids are happy.<div style='float: left;'><img src='images/i6.png' width = '640' height = '360'></img>","","0","instructions","","","","","","","","","","","","","",""
"learning-instructions","26","154482","0.0-8.0-0.0-0.18","1809","2","2","""event"",""trial"",""time""
""focus"",""0"",""2""
""fullscreenenter"",""1"",""5938""
","
","""event"",""trial"",""time""
""focus"",""0"",""2""
","""event"",""trial"",""time""
""fullscreenenter"",""1"",""5938""
","
","","","","","","1733","<p> As you can see, selecting that park for the soccer ball made the kids happy most of the time, but not all the time.","","0","instructions","","","","","","","","","","","","","",""
"learning-instructions","27","161584","0.0-8.0-0.0-0.19","1809","2","2","""event"",""trial"",""time""
""focus"",""0"",""2""
""fullscreenenter"",""1"",""5938""
","
","""event"",""trial"",""time""
""focus"",""0"",""2""
","""event"",""trial"",""time""
""fullscreenenter"",""1"",""5938""
","
","","","","","","1081","<p> Now let's see what happens if you choose a DIFFERENT park for the soccer ball 5 times.","","0","instructions","","","","","","","","","","","","","",""
"learning-instructions","28","164158","0.0-8.0-0.0-0.20","1809","2","2","""event"",""trial"",""time""
""focus"",""0"",""2""
""fullscreenenter"",""1"",""5938""
","
","""event"",""trial"",""time""
""focus"",""0"",""2""
","""event"",""trial"",""time""
""fullscreenenter"",""1"",""5938""
","
","","","","","","359","<p> The kids are sad.<div style='float: left;'><img src='images/i7.png' width = '640' height = '360'></img>","","0","instructions","","","","","","","","","","","","","",""
"learning-instructions","29","166711","0.0-8.0-0.0-0.21","1809","2","2","""event"",""trial"",""time""
""focus"",""0"",""2""
""fullscreenenter"",""1"",""5938""
","
","""event"",""trial"",""time""
""focus"",""0"",""2""
","""event"",""trial"",""time""
""fullscreenenter"",""1"",""5938""
","
","","","","","","341","<p> The kids are sad.<div style='float: left;'><img src='images/i8.png' width = '640' height = '360'></img>","","0","instructions","","","","","","","","","","","","","",""
"learning-instructions","30","169285","0.0-8.0-0.0-0.22","1809","2","2","""event"",""trial"",""time""
""focus"",""0"",""2""
""fullscreenenter"",""1"",""5938""
","
","""event"",""trial"",""time""
""focus"",""0"",""2""
","""event"",""trial"",""time""
""fullscreenenter"",""1"",""5938""
","
","","","","","","399","<p> The kids are happy.<div style='float: left;'><img src='images/i9.png' width = '640' height = '360'></img>","","0","instructions","","","","","","","","","","","","","",""
"learning-instructions","31","172585","0.0-8.0-0.0-0.23","1809","2","2","""event"",""trial"",""time""
""focus"",""0"",""2""
""fullscreenenter"",""1"",""5938""
","
","""event"",""trial"",""time""
""focus"",""0"",""2""
","""event"",""trial"",""time""
""fullscreenenter"",""1"",""5938""
","
","","","","","","1085","<p> The kids are sad.<div style='float: left;'><img src='images/i10.png' width = '640' height = '360'></img>","","0","instructions","","","","","","","","","","","","","",""
"learning-instructions","32","177465","0.0-8.0-0.0-0.24","1809","2","2","""event"",""trial"",""time""
""focus"",""0"",""2""
""fullscreenenter"",""1"",""5938""
","
","""event"",""trial"",""time""
""focus"",""0"",""2""
","""event"",""trial"",""time""
""fullscreenenter"",""1"",""5938""
","
","","","","","","2658","<p> The kids are sad.<div style='float: left;'><img src='images/i11.png' width = '640' height = '360'></img>","","0","instructions","","","","","","","","","","","","","",""
"learning-instructions","33","186747","0.0-8.0-0.0-0.25","1809","2","2","""event"",""trial"",""time""
""focus"",""0"",""2""
""fullscreenenter"",""1"",""5938""
","
","""event"",""trial"",""time""
""focus"",""0"",""2""
","""event"",""trial"",""time""
""fullscreenenter"",""1"",""5938""
","
","","","","","","1134","<p> As you can see, selecting the wrong park for the soccer ball made the kids sad most of the time, but not all the time.","","0","instructions","","","","","","","","","","","","","",""
"learning-instructions","34","196685","0.0-8.0-0.0-0.26","1809","2","2","""event"",""trial"",""time""
""focus"",""0"",""2""
""fullscreenenter"",""1"",""5938""
","
","""event"",""trial"",""time""
""focus"",""0"",""2""
","""event"",""trial"",""time""
""fullscreenenter"",""1"",""5938""
","
","","","","","","812","<p> The different pieces of equipment belong in different parks. You need to try to learn which is the best park for each piece of equipment.","","0","instructions","","","","","","","","","","","","","",""
"learning-instructions","35","213695","0.0-8.0-0.0-0.27","1809","2","2","""event"",""trial"",""time""
""focus"",""0"",""2""
""fullscreenenter"",""1"",""5938""
","
","""event"",""trial"",""time""
""focus"",""0"",""2""
","""event"",""trial"",""time""
""fullscreenenter"",""1"",""5938""
","
","","","","","","617","<p> Try to choose the best park for each piece of equipment, because you will <b> WIN </b> 1 point for each time you make the kids happy and <b>LOSE</b> 1 point for each time you make them sad. </p><p> Remember, if you make the best choice, you will win 1 point most of the time, but not all the time. </p>","","0","instructions","","","","","","","","","","","","","",""
"learning-instructions","36","219549","0.0-8.0-0.0-0.28","1809","2","2","""event"",""trial"",""time""
""focus"",""0"",""2""
""fullscreenenter"",""1"",""5938""
","
","""event"",""trial"",""time""
""focus"",""0"",""2""
","""event"",""trial"",""time""
""fullscreenenter"",""1"",""5938""
","
","","","","","","370","<p> This is just a practice round, but in the real game, your bonus payment will depend on your total number of points.","","0","instructions","","","","","","","","","","","","","",""
"learning-instructions","37","230234","0.0-8.0-0.0-0.29","1809","2","2","""event"",""trial"",""time""
""focus"",""0"",""2""
""fullscreenenter"",""1"",""5938""
","
","""event"",""trial"",""time""
""focus"",""0"",""2""
","""event"",""trial"",""time""
""fullscreenenter"",""1"",""5938""
","
","","","","","","356","<p> The position where each park appears will change throughout the game. </p><p> The position where the park appears <i> does not </i> influence how likely the kids are to be happy or sad. </p>","","0","instructions","","","","","","","","","","","","","",""
"learning-instructions","38","241154","0.0-8.0-0.0-0.30","1809","2","2","""event"",""trial"",""time""
""focus"",""0"",""2""
""fullscreenenter"",""1"",""5938""
","
","""event"",""trial"",""time""
""focus"",""0"",""2""
","""event"",""trial"",""time""
""fullscreenenter"",""1"",""5938""
","
","","","","","","448","<p> You will have 4 seconds to make each choice. Try to respond before time runs out! </p><p> You will lose 1 point each time you do not make a response. </p>","","0","instructions","","","","","","","","","","","","","",""
"learning-instructions","39","342168","0.0-8.0-0.0-0.31","1809","2","2","""event"",""trial"",""time""
""focus"",""0"",""2""
""fullscreenenter"",""1"",""5938""
","
","""event"",""trial"",""time""
""focus"",""0"",""2""
","""event"",""trial"",""time""
""fullscreenenter"",""1"",""5938""
","
","","","","","","94208","<p> Remember, you should use the 1, 2, and 3 keys to select the park for each piece of equipment. </p><br><div class=""choice-instructions-grid""> <div class=""choice-option""><img src=""images/park1.png"" class=""choice-option-img"" stage=""instructions"" position=""0"" ><div class=""choice-option-text""> Press ""1."" </div></div><div class=""choice-option""><img src=""images/park2.png"" class=""choice-option-img"" stage=""instructions"" position=""1"" ><div class=""choice-option-text""> Press ""2."" </div></div><div class=""choice-option""><img src=""images/park3.png"" class=""choice-option-img"" stage=""instructions"" position=""2"" ><div class=""choice-option-text""> Press ""3."" </div></div></div>","","0","instructions","","","","","","","","","","","","","",""
"html-button-response","40","344466","0.0-8.0-1.0","1809","2","2","""event"",""trial"",""time""
""focus"",""0"",""2""
""fullscreenenter"",""1"",""5938""
","
","""event"",""trial"",""time""
""focus"",""0"",""2""
","""event"",""trial"",""time""
""fullscreenenter"",""1"",""5938""
","
","","","","","","2184","<p> Ready to practice? </p>","0","","","","","","","","","","","","","","","",""
"html-keyboard-response","41","345070","0.0-8.0-2.0-0.0","1809","2","2","""event"",""trial"",""time""
""focus"",""0"",""2""
""fullscreenenter"",""1"",""5938""
","
","""event"",""trial"",""time""
""focus"",""0"",""2""
","""event"",""trial"",""time""
""fullscreenenter"",""1"",""5938""
","
","","","","","","null","<div style=""font-size:60px;"">+</div>","null","","fixation","","","","","","","","","","","","","",""
"learning-trial","42","349081","0.0-8.0-2.0-1.0","1809","2","2","""event"",""trial"",""time""
""focus"",""0"",""2""
""fullscreenenter"",""1"",""5938""
","
","""event"",""trial"",""time""
""focus"",""0"",""2""
","""event"",""trial"",""time""
""fullscreenenter"",""1"",""5938""
","
","","","","","","1313","images/ball4.png","","","practice","images/park2.png","images/park1.png","images/park3.png","[1,0,2]","2","2","1","images/park2.png","-1","practice","","","",""
"html-keyboard-response","43","349588","0.0-8.0-2.0-0.1","1809","2","2","""event"",""trial"",""time""
""focus"",""0"",""2""
""fullscreenenter"",""1"",""5938""
","
","""event"",""trial"",""time""
""focus"",""0"",""2""
","""event"",""trial"",""time""
""fullscreenenter"",""1"",""5938""
","
","","","","","","null","<div style=""font-size:60px;"">+</div>","null","","fixation","","","","","","","","","","","","","",""
"learning-trial","44","353593","0.0-8.0-2.0-1.1","1809","2","2","""event"",""trial"",""time""
""focus"",""0"",""2""
""fullscreenenter"",""1"",""5938""
","
","""event"",""trial"",""time""
""focus"",""0"",""2""
","""event"",""trial"",""time""
""fullscreenenter"",""1"",""5938""
","
","","","","","","771","images/racket3.png","","","practice","images/park1.png","images/park3.png","images/park2.png","[0,2,1]","0","0","2","images/park3.png","1","practice","","","",""
"html-keyboard-response","45","354105","0.0-8.0-2.0-0.2","1809","2","2","""event"",""trial"",""time""
""focus"",""0"",""2""
""fullscreenenter"",""1"",""5938""
","
","""event"",""trial"",""time""
""focus"",""0"",""2""
","""event"",""trial"",""time""
""fullscreenenter"",""1"",""5938""
","
","","","","","","null","<div style=""font-size:60px;"">+</div>","null","","fixation","","","","","","","","","","","","","",""
"learning-trial","46","358112","0.0-8.0-2.0-1.2","1809","2","2","""event"",""trial"",""time""
""focus"",""0"",""2""
""fullscreenenter"",""1"",""5938""
","
","""event"",""trial"",""time""
""focus"",""0"",""2""
","""event"",""trial"",""time""
""fullscreenenter"",""1"",""5938""
","
","","","","","","1451","images/racket1.png","","","practice","images/park1.png","images/park2.png","images/park3.png","[0,1,2]","0","0","3","images/park3.png","-1","practice","","","",""
"html-keyboard-response","47","358624","0.0-8.0-2.0-0.3","1809","2","2","""event"",""trial"",""time""
""focus"",""0"",""2""
""fullscreenenter"",""1"",""5938""
","
","""event"",""trial"",""time""
""focus"",""0"",""2""
","""event"",""trial"",""time""
""fullscreenenter"",""1"",""5938""
","
","","","","","","null","<div style=""font-size:60px;"">+</div>","null","","fixation","","","","","","","","","","","","","",""
"learning-trial","48","362646","0.0-8.0-2.0-1.3","1809","2","2","""event"",""trial"",""time""
""focus"",""0"",""2""
""fullscreenenter"",""1"",""5938""
","
","""event"",""trial"",""time""
""focus"",""0"",""2""
","""event"",""trial"",""time""
""fullscreenenter"",""1"",""5938""
","
","","","","","","2038","images/racket3.png","","","practice","images/park2.png","images/park3.png","images/park1.png","[1,2,0]","0","2","2","images/park3.png","-1","practice","","","",""
"html-keyboard-response","49","363146","0.0-8.0-2.0-0.4","1809","2","2","""event"",""trial"",""time""
""focus"",""0"",""2""
""fullscreenenter"",""1"",""5938""
","
","""event"",""trial"",""time""
""focus"",""0"",""2""
","""event"",""trial"",""time""
""fullscreenenter"",""1"",""5938""
","
","","","","","","null","<div style=""font-size:60px;"">+</div>","null","","fixation","","","","","","","","","","","","","",""
"learning-trial","50","367158","0.0-8.0-2.0-1.4","1809","2","2","""event"",""trial"",""time""
""focus"",""0"",""2""
""fullscreenenter"",""1"",""5938""
","
","""event"",""trial"",""time""
""focus"",""0"",""2""
","""event"",""trial"",""time""
""fullscreenenter"",""1"",""5938""
","
","","","","","","1349","images/ball2.png","","","practice","images/park2.png","images/park1.png","images/park3.png","[1,0,2]","1","0","2","images/park1.png","-1","practice","","","",""
"html-keyboard-response","51","367680","0.0-8.0-2.0-0.5","1809","2","2","""event"",""trial"",""time""
""focus"",""0"",""2""
""fullscreenenter"",""1"",""5938""
","
","""event"",""trial"",""time""
""focus"",""0"",""2""
","""event"",""trial"",""time""
""fullscreenenter"",""1"",""5938""
","
","","","","","","null","<div style=""font-size:60px;"">+</div>","null","","fixation","","","","","","","","","","","","","",""
"learning-trial","52","371691","0.0-8.0-2.0-1.5","1809","2","2","""event"",""trial"",""time""
""focus"",""0"",""2""
""fullscreenenter"",""1"",""5938""
","
","""event"",""trial"",""time""
""focus"",""0"",""2""
","""event"",""trial"",""time""
""fullscreenenter"",""1"",""5938""
","
","","","","","","1409","images/ball4.png","","","practice","images/park2.png","images/park1.png","images/park3.png","[1,0,2]","2","2","3","images/park3.png","1","practice","","","",""
"html-keyboard-response","53","372206","0.0-8.0-2.0-0.6","1809","2","2","""event"",""trial"",""time""
""focus"",""0"",""2""
""fullscreenenter"",""1"",""5938""
","
","""event"",""trial"",""time""
""focus"",""0"",""2""
","""event"",""trial"",""time""
""fullscreenenter"",""1"",""5938""
","
","","","","","","null","<div style=""font-size:60px;"">+</div>","null","","fixation","","","","","","","","","","","","","",""
"learning-trial","54","376213","0.0-8.0-2.0-1.6","1809","2","2","""event"",""trial"",""time""
""focus"",""0"",""2""
""fullscreenenter"",""1"",""5938""
","
","""event"",""trial"",""time""
""focus"",""0"",""2""
","""event"",""trial"",""time""
""fullscreenenter"",""1"",""5938""
","
","","","","","","2976","images/racket2.png","","","practice","images/park1.png","images/park2.png","images/park3.png","[0,1,2]","2","2","1","images/park1.png","-1","practice","","","",""
"html-keyboard-response","55","376714","0.0-8.0-2.0-0.7","1809","2","2","""event"",""trial"",""time""
""focus"",""0"",""2""
""fullscreenenter"",""1"",""5938""
","
","""event"",""trial"",""time""
""focus"",""0"",""2""
","""event"",""trial"",""time""
""fullscreenenter"",""1"",""5938""
","
","","","","","","null","<div style=""font-size:60px;"">+</div>","null","","fixation","","","","","","","","","","","","","",""
"learning-trial","56","380722","0.0-8.0-2.0-1.7","1809","2","2","""event"",""trial"",""time""
""focus"",""0"",""2""
""fullscreenenter"",""1"",""5938""
","
","""event"",""trial"",""time""
""focus"",""0"",""2""
","""event"",""trial"",""time""
""fullscreenenter"",""1"",""5938""
","
","","","","","","3444","images/racket4.png","","","practice","images/park2.png","images/park3.png","images/park1.png","[1,2,0]","1","0","1","images/park2.png","1","practice","","","",""
"html-keyboard-response","57","381231","0.0-8.0-2.0-0.8","1809","2","2","""event"",""trial"",""time""
""focus"",""0"",""2""
""fullscreenenter"",""1"",""5938""
","
","""event"",""trial"",""time""
""focus"",""0"",""2""
","""event"",""trial"",""time""
""fullscreenenter"",""1"",""5938""
","
","","","","","","null","<div style=""font-size:60px;"">+</div>","null","","fixation","","","","","","","","","","","","","",""
"learning-trial","58","385241","0.0-8.0-2.0-1.8","1809","2","2","""event"",""trial"",""time""
""focus"",""0"",""2""
""fullscreenenter"",""1"",""5938""
","
","""event"",""trial"",""time""
""focus"",""0"",""2""
","""event"",""trial"",""time""
""fullscreenenter"",""1"",""5938""
","
","","","","","","997","images/racket4.png","","","practice","images/park2.png","images/park3.png","images/park1.png","[1,2,0]","1","0","1","images/park2.png","1","practice","","","",""
"html-keyboard-response","59","385742","0.0-8.0-2.0-0.9","1809","2","2","""event"",""trial"",""time""
""focus"",""0"",""2""
""fullscreenenter"",""1"",""5938""
","
","""event"",""trial"",""time""
""focus"",""0"",""2""
","""event"",""trial"",""time""
""fullscreenenter"",""1"",""5938""
","
","","","","","","null","<div style=""font-size:60px;"">+</div>","null","","fixation","","","","","","","","","","","","","",""
"learning-trial","60","389758","0.0-8.0-2.0-1.9","1809","2","2","""event"",""trial"",""time""
""focus"",""0"",""2""
""fullscreenenter"",""1"",""5938""
","
","""event"",""trial"",""time""
""focus"",""0"",""2""
","""event"",""trial"",""time""
""fullscreenenter"",""1"",""5938""
","
","","","","","","1612","images/ball2.png","","","practice","images/park2.png","images/park1.png","images/park3.png","[1,0,2]","1","0","3","images/park3.png","-1","practice","","","",""
"html-keyboard-response","61","390269","0.0-8.0-2.0-0.10","1809","2","2","""event"",""trial"",""time""
""focus"",""0"",""2""
""fullscreenenter"",""1"",""5938""
","
","""event"",""trial"",""time""
""focus"",""0"",""2""
","""event"",""trial"",""time""
""fullscreenenter"",""1"",""5938""
","
","","","","","","null","<div style=""font-size:60px;"">+</div>","null","","fixation","","","","","","","","","","","","","",""
"learning-trial","62","394276","0.0-8.0-2.0-1.10","1809","2","2","""event"",""trial"",""time""
""focus"",""0"",""2""
""fullscreenenter"",""1"",""5938""
","
","""event"",""trial"",""time""
""focus"",""0"",""2""
","""event"",""trial"",""time""
""fullscreenenter"",""1"",""5938""
","
","","","","","","2211","images/racket2.png","","","practice","images/park1.png","images/park3.png","images/park2.png","[0,2,1]","2","1","1","images/park1.png","-1","practice","","","",""
"html-keyboard-response","63","394788","0.0-8.0-2.0-0.11","1809","2","2","""event"",""trial"",""time""
""focus"",""0"",""2""
""fullscreenenter"",""1"",""5938""
","
","""event"",""trial"",""time""
""focus"",""0"",""2""
","""event"",""trial"",""time""
""fullscreenenter"",""1"",""5938""
","
","","","","","","null","<div style=""font-size:60px;"">+</div>","null","","fixation","","","","","","","","","","","","","",""
"learning-trial","64","398805","0.0-8.0-2.0-1.11","1809","2","2","""event"",""trial"",""time""
""focus"",""0"",""2""
""fullscreenenter"",""1"",""5938""
","
","""event"",""trial"",""time""
""focus"",""0"",""2""
","""event"",""trial"",""time""
""fullscreenenter"",""1"",""5938""
","
","","","","","","1868","images/racket1.png","","","practice","images/park2.png","images/park1.png","images/park3.png","[1,0,2]","0","1","1","images/park2.png","-1","practice","","","",""
"html-button-response","65","412597","0.0-8.0-3.0","1809","2","2","""event"",""trial"",""time""
""focus"",""0"",""2""
""fullscreenenter"",""1"",""5938""
","
","""event"",""trial"",""time""
""focus"",""0"",""2""
","""event"",""trial"",""time""
""fullscreenenter"",""1"",""5938""
","
","","","","","","13790","<p> You earned -4 points in the practice round! </p>","0","","break","","","","","","","","","","","","","",""
"learning-instructions","66","422451","0.0-8.0-4.0-0.0","1809","2","2","""event"",""trial"",""time""
""focus"",""0"",""2""
""fullscreenenter"",""1"",""5938""
","
","""event"",""trial"",""time""
""focus"",""0"",""2""
","""event"",""trial"",""time""
""fullscreenenter"",""1"",""5938""
","
","","","","","","2172","<p> It's almost time to start the real game. </p><p> Before you start, we're going to ask you a few questions about how the game works. </p>","","0","instructions","","","","","","","","","","","","","",""
"preload","67","424152","0.0-8.0-5.0","1809","2","2","""event"",""trial"",""time""
""focus"",""0"",""2""
""fullscreenenter"",""1"",""5938""
","
","""event"",""trial"",""time""
""focus"",""0"",""2""
","""event"",""trial"",""time""
""fullscreenenter"",""1"",""5938""
","
","true","false","[]","[]","[]","","","","","","","","","","","","","","","","","","",""
"comp-q","68","432782","0.0-8.0-6.0-0.0","1809","2","2","""event"",""trial"",""time""
""focus"",""0"",""2""
""fullscreenenter"",""1"",""5938""
","
","""event"",""trial"",""time""
""focus"",""0"",""2""
","""event"",""trial"",""time""
""fullscreenenter"",""1"",""5938""
","
","","","","","","3170","<p> <b> True or False? </b> </p><p> If you choose the best option, you will always earn 1 point. </p>","","1","comp_question","","","","","","","","","","","true","","",""
"comp-q","69","440645","0.0-8.0-6.0-1.0","1809","2","2","""event"",""trial"",""time""
""focus"",""0"",""2""
""fullscreenenter"",""1"",""5938""
","
","""event"",""trial"",""time""
""focus"",""0"",""2""
","""event"",""trial"",""time""
""fullscreenenter"",""1"",""5938""
","
","","","","","","2190","<p><b> That's right! </b> Sometimes you will lose 1 point, even if you choose the best option. </p>","","0","comp_answer","","","","","","","","","","","","","",""
"comp-q","70","448503","0.0-8.0-6.0-0.1","1809","2","2","""event"",""trial"",""time""
""focus"",""0"",""2""
""fullscreenenter"",""1"",""5938""
","
","""event"",""trial"",""time""
""focus"",""0"",""2""
","""event"",""trial"",""time""
""fullscreenenter"",""1"",""5938""
","
","","","","","","3200","<p> <b> True or False? </b> </p><p> You will have as much time as you want to make each choice. </p>","","1","comp_question","","","","","","","","","","","true","","",""
"comp-q","71","454807","0.0-8.0-6.0-1.1","1809","2","2","""event"",""trial"",""time""
""focus"",""0"",""2""
""fullscreenenter"",""1"",""5938""
","
","""event"",""trial"",""time""
""focus"",""0"",""2""
","""event"",""trial"",""time""
""fullscreenenter"",""1"",""5938""
","
","","","","","","1473","<p> <b> That's right! </b> You will only have 4 seconds to make each choice. </p>","","0","comp_answer","","","","","","","","","","","","","",""
"comp-q","72","462129","0.0-8.0-6.0-0.2","1809","2","2","""event"",""trial"",""time""
""focus"",""0"",""2""
""fullscreenenter"",""1"",""5938""
","
","""event"",""trial"",""time""
""focus"",""0"",""2""
","""event"",""trial"",""time""
""fullscreenenter"",""1"",""5938""
","
","","","","","","1158","<p> <b> True or False? </b> </p><p> You should use the '1', '2', and '3' keys to make your choices. </p>","","0","comp_question","","","","","","","","","","","true","","",""
"comp-q","73","469703","0.0-8.0-6.0-1.2","1809","2","2","""event"",""trial"",""time""
""focus"",""0"",""2""
""fullscreenenter"",""1"",""5938""
","
","""event"",""trial"",""time""
""focus"",""0"",""2""
","""event"",""trial"",""time""
""fullscreenenter"",""1"",""5938""
","
","","","","","","2716","<p> <b> That's right! </b> You should use the '1', '2', and '3' keys to make each choice. </p>","","0","comp_answer","","","","","","","","","","","","","",""
"learning-instructions","74","480098","0.0-8.0-7.0-0.0","1809","2","2","""event"",""trial"",""time""
""focus"",""0"",""2""
""fullscreenenter"",""1"",""5938""
","
","""event"",""trial"",""time""
""focus"",""0"",""2""
","""event"",""trial"",""time""
""fullscreenenter"",""1"",""5938""
","
","","","","","","1900","<p> It's now time to start the real game. </p>Do your best, because the points you earn in the next rounds will influence your bonus payment. </p>","","0","instructions","","","","","","","","","","","","","",""
"preload","75","481604","0.0-9.0-0.0","1809","2","2","""event"",""trial"",""time""
""focus"",""0"",""2""
""fullscreenenter"",""1"",""5938""
","
","""event"",""trial"",""time""
""focus"",""0"",""2""
","""event"",""trial"",""time""
""fullscreenenter"",""1"",""5938""
","
","true","false","[]","[]","[]","","","","","","","","","","","","","","","","","","",""
"learning-instructions","76","489514","0.0-9.0-1.0-0.0","1809","2","2","""event"",""trial"",""time""
""focus"",""0"",""2""
""fullscreenenter"",""1"",""5938""
","
","""event"",""trial"",""time""
""focus"",""0"",""2""
","""event"",""trial"",""time""
""fullscreenenter"",""1"",""5938""
","
","","","","","","1406","<p> Your goal in this round is to buy different types of fruits. </p><p> You will try to purchase many fruits from different stores. </p></div>","","0","instructions","","","","","","","","","","","","","",""
"learning-instructions","77","500200","0.0-9.0-1.0-0.1","1809","2","2","""event"",""trial"",""time""
""focus"",""0"",""2""
""fullscreenenter"",""1"",""5938""
","
","""event"",""trial"",""time""
""focus"",""0"",""2""
","""event"",""trial"",""time""
""fullscreenenter"",""1"",""5938""
","
","","","","","","2182","<p> On each turn, you will see a picture of a fruit and three different stores.  </p><p> You need to select the store where you can buy that fruit.  </p>","","0","instructions","","","","","","","","","","","","","",""
"learning-instructions","78","508952","0.0-9.0-1.0-0.2","1809","2","2","""event"",""trial"",""time""
""focus"",""0"",""2""
""fullscreenenter"",""1"",""5938""
","
","""event"",""trial"",""time""
""focus"",""0"",""2""
","""event"",""trial"",""time""
""fullscreenenter"",""1"",""5938""
","
","","","","","","1366","<p> You can select the store on the left by pressing 1, the store in the middle by pressing 2, and the store on the right by pressing 3. </p><br><div class=""choice-instructions-grid""> <div class=""choice-option""><img src=""images/fruit_choice1.png"" class=""choice-option-img"" stage=""instructions"" position=""0"" ><div class=""choice-option-text""> Press ""1."" </div></div><div class=""choice-option""><img src=""images/fruit_choice2.png"" class=""choice-option-img"" stage=""instructions"" position=""1"" ><div class=""choice-option-text""> Press ""2."" </div></div><div class=""choice-option""><img src=""images/fruit_choice3.png"" class=""choice-option-img"" stage=""instructions"" position=""2"" ><div class=""choice-option-text""> Press ""3."" </div></div></div>","","0","instructions","","","","","","","","","","","","","",""
"learning-instructions","79","515856","0.0-9.0-1.0-0.3","1809","2","2","""event"",""trial"",""time""
""focus"",""0"",""2""
""fullscreenenter"",""1"",""5938""
","
","""event"",""trial"",""time""
""focus"",""0"",""2""
","""event"",""trial"",""time""
""fullscreenenter"",""1"",""5938""
","
","","","","","","1946","<p> If you find the fruit in the store you chose, you will get to buy and eat it! </p><div style='float: center;'><img src='images/check.png' width = '200' height = '200'></img>","","0","instructions","","","","","","","","","","","","","",""
"learning-instructions","80","520738","0.0-9.0-1.0-0.4","1809","2","2","""event"",""trial"",""time""
""focus"",""0"",""2""
""fullscreenenter"",""1"",""5938""
","
","""event"",""trial"",""time""
""focus"",""0"",""2""
","""event"",""trial"",""time""
""fullscreenenter"",""1"",""5938""
","
","","","","","","405","<p> But, if the fruit is not in that store, you will be hungry. </p><div style='float: center;'><img src='images/x.png' width = '200' height = '200'></img>","","0","instructions","","","","","","","","","","","","","",""
"learning-instructions","81","535893","0.0-9.0-1.0-0.5","1809","2","2","""event"",""trial"",""time""
""focus"",""0"",""2""
""fullscreenenter"",""1"",""5938""
","
","""event"",""trial"",""time""
""focus"",""0"",""2""
","""event"",""trial"",""time""
""fullscreenenter"",""1"",""5938""
","
","","","","","","5365","<p> Importantly, each fruit is more likely to be found in one of the stores. </p><p> If you choose the correct store, you will be more likely to be able to buy the fruit! </p>","","0","instructions","","","","","","","","","","","","","",""
"learning-instructions","82","547184","0.0-9.0-1.0-0.6","1809","2","2","""event"",""trial"",""time""
""focus"",""0"",""2""
""fullscreenenter"",""1"",""5938""
","
","""event"",""trial"",""time""
""focus"",""0"",""2""
","""event"",""trial"",""time""
""fullscreenenter"",""1"",""5938""
","
","","","","","","826","<p> However, even if you choose the best store for the fruit, the store might not have it sometimes. </p><p> Similarly, even if you choose the <i>wrong</i> store, it might still have the fruit.","","0","instructions","","","","","","","","","","","","","",""
"learning-instructions","83","559800","0.0-9.0-1.0-0.7","1809","2","2","""event"",""trial"",""time""
""focus"",""0"",""2""
""fullscreenenter"",""1"",""5938""
","
","""event"",""trial"",""time""
""focus"",""0"",""2""
","""event"",""trial"",""time""
""fullscreenenter"",""1"",""5938""
","
","","","","","","418","<p> Try to choose the best store for each fruit, because you will <b> WIN </b> 1 point for each fruit you eat and <b>LOSE</b> 1 point each time you are hungry. </p><p> Your bonus payment will depend on your total number of points.","","0","instructions","","","","","","","","","","","","","",""
"learning-instructions","84","568518","0.0-9.0-1.0-0.8","1809","2","2","""event"",""trial"",""time""
""focus"",""0"",""2""
""fullscreenenter"",""1"",""5938""
","
","""event"",""trial"",""time""
""focus"",""0"",""2""
","""event"",""trial"",""time""
""fullscreenenter"",""1"",""5938""
","
","","","","","","495","<p> The position of each store will change throughout the round. </p><p> The store's position <i> does not </i> influence how likely you are to find the fruit. </p>","","0","instructions","","","","","","","","","","","","","",""
"learning-instructions","85","578327","0.0-9.0-1.0-0.9","1809","2","2","""event"",""trial"",""time""
""focus"",""0"",""2""
""fullscreenenter"",""1"",""5938""
","
","""event"",""trial"",""time""
""focus"",""0"",""2""
","""event"",""trial"",""time""
""fullscreenenter"",""1"",""5938""
","
","","","","","","502","<p> You will have 4 seconds to make each choice. Try to respond before time runs out! </p><p> You will lose 1 point each time you do not make a response. </p>","","0","instructions","","","","","","","","","","","","","",""
"html-keyboard-response","86","578941","0.0-9.0-2.0-0.0","1809","2","2","""event"",""trial"",""time""
""focus"",""0"",""2""
""fullscreenenter"",""1"",""5938""
","
","""event"",""trial"",""time""
""focus"",""0"",""2""
","""event"",""trial"",""time""
""fullscreenenter"",""1"",""5938""
","
","","","","","","null","<div style=""font-size:60px;"">+</div>","null","","fixation","","","","","","","","","","","","","",""
"learning-trial","87","582952","0.0-9.0-2.0-1.0","1809","2","2","""event"",""trial"",""time""
""focus"",""0"",""2""
""fullscreenenter"",""1"",""5938""
","
","""event"",""trial"",""time""
""focus"",""0"",""2""
","""event"",""trial"",""time""
""fullscreenenter"",""1"",""5938""
","
","","","","","","1085","images/straw2.png","","","learning","images/fruit_choice2.png","images/fruit_choice3.png","images/fruit_choice1.png","[1,2,0]","2","1","2","images/fruit_choice3.png","1","fruit","","straw","2","0"
"html-keyboard-response","88","583464","0.0-9.0-2.0-0.1","1809","2","2","""event"",""trial"",""time""
""focus"",""0"",""2""
""fullscreenenter"",""1"",""5938""
","
","""event"",""trial"",""time""
""focus"",""0"",""2""
","""event"",""trial"",""time""
""fullscreenenter"",""1"",""5938""
","
","","","","","","null","<div style=""font-size:60px;"">+</div>","null","","fixation","","","","","","","","","","","","","",""
"learning-trial","89","587477","0.0-9.0-2.0-1.1","1809","2","2","""event"",""trial"",""time""
""focus"",""0"",""2""
""fullscreenenter"",""1"",""5938""
","
","""event"",""trial"",""time""
""focus"",""0"",""2""
","""event"",""trial"",""time""
""fullscreenenter"",""1"",""5938""
","
","","","","","","1792","images/straw5.png","","","learning","images/fruit_choice3.png","images/fruit_choice1.png","images/fruit_choice2.png","[2,0,1]","0","1","1","images/fruit_choice3.png","-1","fruit","","straw","2","0"
"html-keyboard-response","90","587983","0.0-9.0-2.0-0.2","1809","2","2","""event"",""trial"",""time""
""focus"",""0"",""2""
""fullscreenenter"",""1"",""5938""
","
","""event"",""trial"",""time""
""focus"",""0"",""2""
","""event"",""trial"",""time""
""fullscreenenter"",""1"",""5938""
","
","","","","","","null","<div style=""font-size:60px;"">+</div>","null","","fixation","","","","","","","","","","","","","",""
"learning-trial","91","591987","0.0-9.0-2.0-1.2","1809","2","2","""event"",""trial"",""time""
""focus"",""0"",""2""
""fullscreenenter"",""1"",""5938""
","
","""event"",""trial"",""time""
""focus"",""0"",""2""
","""event"",""trial"",""time""
""fullscreenenter"",""1"",""5938""
","
","","","","","","1620","images/banana4.png","","","learning","images/fruit_choice2.png","images/fruit_choice3.png","images/fruit_choice1.png","[1,2,0]","0","2","2","images/fruit_choice3.png","-1","fruit","","banana","2","0"
"html-keyboard-response","92","592494","0.0-9.0-2.0-0.3","1809","2","2","""event"",""trial"",""time""
""focus"",""0"",""2""
""fullscreenenter"",""1"",""5938""
","
","""event"",""trial"",""time""
""focus"",""0"",""2""
","""event"",""trial"",""time""
""fullscreenenter"",""1"",""5938""
","
","","","","","","null","<div style=""font-size:60px;"">+</div>","null","","fixation","","","","","","","","","","","","","",""
"learning-trial","93","596509","0.0-9.0-2.0-1.3","1809","2","2","""event"",""trial"",""time""
""focus"",""0"",""2""
""fullscreenenter"",""1"",""5938""
","
","""event"",""trial"",""time""
""focus"",""0"",""2""
","""event"",""trial"",""time""
""fullscreenenter"",""1"",""5938""
","
","","","","","","1728","images/banana4.png","","","learning","images/fruit_choice3.png","images/fruit_choice1.png","images/fruit_choice2.png","[2,0,1]","0","1","2","images/fruit_choice1.png","1","fruit","","banana","2","0"
"html-keyboard-response","94","597021","0.0-9.0-2.0-0.4","1809","2","2","""event"",""trial"",""time""
""focus"",""0"",""2""
""fullscreenenter"",""1"",""5938""
","
","""event"",""trial"",""time""
""focus"",""0"",""2""
","""event"",""trial"",""time""
""fullscreenenter"",""1"",""5938""
","
","","","","","","null","<div style=""font-size:60px;"">+</div>","null","","fixation","","","","","","","","","","","","","",""
"learning-trial","95","601027","0.0-9.0-2.0-1.4","1809","2","2","""event"",""trial"",""time""
""focus"",""0"",""2""
""fullscreenenter"",""1"",""5938""
","
","""event"",""trial"",""time""
""focus"",""0"",""2""
","""event"",""trial"",""time""
""fullscreenenter"",""1"",""5938""
","
","","","","","","1335","images/banana4.png","","","learning","images/fruit_choice3.png","images/fruit_choice2.png","images/fruit_choice1.png","[2,1,0]","0","2","3","images/fruit_choice1.png","1","fruit","","banana","2","0"
"html-keyboard-response","96","601529","0.0-9.0-2.0-0.5","1809","2","2","""event"",""trial"",""time""
""focus"",""0"",""2""
""fullscreenenter"",""1"",""5938""
","
","""event"",""trial"",""time""
""focus"",""0"",""2""
","""event"",""trial"",""time""
""fullscreenenter"",""1"",""5938""
","
","","","","","","null","<div style=""font-size:60px;"">+</div>","null","","fixation","","","","","","","","","","","","","",""
"learning-trial","97","605530","0.0-9.0-2.0-1.5","1809","2","2","""event"",""trial"",""time""
""focus"",""0"",""2""
""fullscreenenter"",""1"",""5938""
","
","""event"",""trial"",""time""
""focus"",""0"",""2""
","""event"",""trial"",""time""
""fullscreenenter"",""1"",""5938""
","
","","","","","","1490","images/apple2.png","","","learning","images/fruit_choice1.png","images/fruit_choice2.png","images/fruit_choice3.png","[0,1,2]","2","2","2","images/fruit_choice2.png","-1","fruit","","apple","2","0"
"html-keyboard-response","98","606041","0.0-9.0-2.0-0.6","1809","2","2","""event"",""trial"",""time""
""focus"",""0"",""2""
""fullscreenenter"",""1"",""5938""
","
","""event"",""trial"",""time""
""focus"",""0"",""2""
","""event"",""trial"",""time""
""fullscreenenter"",""1"",""5938""
","
","","","","","","null","<div style=""font-size:60px;"">+</div>","null","","fixation","","","","","","","","","","","","","",""
"learning-trial","99","610057","0.0-9.0-2.0-1.6","1809","2","2","""event"",""trial"",""time""
""focus"",""0"",""2""
""fullscreenenter"",""1"",""5938""
","
","""event"",""trial"",""time""
""focus"",""0"",""2""
","""event"",""trial"",""time""
""fullscreenenter"",""1"",""5938""
","
","","","","","","1791","images/straw2.png","","","learning","images/fruit_choice3.png","images/fruit_choice2.png","images/fruit_choice1.png","[2,1,0]","2","0","1","images/fruit_choice3.png","1","fruit","","straw","2","0"
"html-keyboard-response","100","610569","0.0-9.0-2.0-0.7","1809","2","2","""event"",""trial"",""time""
""focus"",""0"",""2""
""fullscreenenter"",""1"",""5938""
","
","""event"",""trial"",""time""
""focus"",""0"",""2""
","""event"",""trial"",""time""
""fullscreenenter"",""1"",""5938""
","
","","","","","","null","<div style=""font-size:60px;"">+</div>","null","","fixation","","","","","","","","","","","","","",""
"learning-trial","101","614580","0.0-9.0-2.0-1.7","1809","2","2","""event"",""trial"",""time""
""focus"",""0"",""2""
""fullscreenenter"",""1"",""5938""
","
","""event"",""trial"",""time""
""focus"",""0"",""2""
","""event"",""trial"",""time""
""fullscreenenter"",""1"",""5938""
","
","","","","","","2275","images/apple3.png","","","learning","images/fruit_choice2.png","images/fruit_choice3.png","images/fruit_choice1.png","[1,2,0]","1","0","2","images/fruit_choice3.png","-1","fruit","","apple","2","0"
"html-keyboard-response","102","615081","0.0-9.0-2.0-0.8","1809","2","2","""event"",""trial"",""time""
""focus"",""0"",""2""
""fullscreenenter"",""1"",""5938""
","
","""event"",""trial"",""time""
""focus"",""0"",""2""
","""event"",""trial"",""time""
""fullscreenenter"",""1"",""5938""
","
","","","","","","null","<div style=""font-size:60px;"">+</div>","null","","fixation","","","","","","","","","","","","","",""
"learning-trial","103","619090","0.0-9.0-2.0-1.8","1809","2","2","""event"",""trial"",""time""
""focus"",""0"",""2""
""fullscreenenter"",""1"",""5938""
","
","""event"",""trial"",""time""
""focus"",""0"",""2""
","""event"",""trial"",""time""
""fullscreenenter"",""1"",""5938""
","
","","","","","","null","images/banana2.png","","","learning","images/fruit_choice2.png","images/fruit_choice1.png","images/fruit_choice3.png","[1,0,2]","2","2","null","null","-1","fruit","","banana","2","0"
"html-keyboard-response","104","619592","0.0-9.0-2.0-0.9","1809","2","2","""event"",""trial"",""time""
""focus"",""0"",""2""
""fullscreenenter"",""1"",""5938""
","
","""event"",""trial"",""time""
""focus"",""0"",""2""
","""event"",""trial"",""time""
""fullscreenenter"",""1"",""5938""
","
","","","","","","null","<div style=""font-size:60px;"">+</div>","null","","fixation","","","","","","","","","","","","","",""
"learning-trial","105","623603","0.0-9.0-2.0-1.9","1809","2","2","""event"",""trial"",""time""
""focus"",""0"",""2""
""fullscreenenter"",""1"",""5938""
","
","""event"",""trial"",""time""
""focus"",""0"",""2""
","""event"",""trial"",""time""
""fullscreenenter"",""1"",""5938""
","
","","","","","","947","images/apple2.png","","","learning","images/fruit_choice1.png","images/fruit_choice3.png","images/fruit_choice2.png","[0,2,1]","2","1","2","images/fruit_choice3.png","1","fruit","","apple","2","0"
"html-keyboard-response","106","624113","0.0-9.0-2.0-0.10","1809","2","2","""event"",""trial"",""time""
""focus"",""0"",""2""
""fullscreenenter"",""1"",""5938""
","
","""event"",""trial"",""time""
""focus"",""0"",""2""
","""event"",""trial"",""time""
""fullscreenenter"",""1"",""5938""
","
","","","","","","null","<div style=""font-size:60px;"">+</div>","null","","fixation","","","","","","","","","","","","","",""
"learning-trial","107","628121","0.0-9.0-2.0-1.10","1809","2","2","""event"",""trial"",""time""
""focus"",""0"",""2""
""fullscreenenter"",""1"",""5938""
","
","""event"",""trial"",""time""
""focus"",""0"",""2""
","""event"",""trial"",""time""
""fullscreenenter"",""1"",""5938""
","
","","","","","","1979","images/straw4.png","","","learning","images/fruit_choice2.png","images/fruit_choice3.png","images/fruit_choice1.png","[1,2,0]","1","0","1","images/fruit_choice2.png","1","fruit","","straw","2","0"
"html-keyboard-response","108","628622","0.0-9.0-2.0-0.11","1809","2","2","""event"",""trial"",""time""
""focus"",""0"",""2""
""fullscreenenter"",""1"",""5938""
","
","""event"",""trial"",""time""
""focus"",""0"",""2""
","""event"",""trial"",""time""
""fullscreenenter"",""1"",""5938""
","
","","","","","","null","<div style=""font-size:60px;"">+</div>","null","","fixation","","","","","","","","","","","","","",""
"learning-trial","109","632635","0.0-9.0-2.0-1.11","1809","2","2","""event"",""trial"",""time""
""focus"",""0"",""2""
""fullscreenenter"",""1"",""5938""
","
","""event"",""trial"",""time""
""focus"",""0"",""2""
","""event"",""trial"",""time""
""fullscreenenter"",""1"",""5938""
","
","","","","","","2081","images/apple4.png","","","learning","images/fruit_choice1.png","images/fruit_choice2.png","images/fruit_choice3.png","[0,1,2]","0","0","2","images/fruit_choice2.png","-1","fruit","","apple","2","0"
"html-keyboard-response","110","633145","0.0-9.0-2.0-0.12","1809","2","2","""event"",""trial"",""time""
""focus"",""0"",""2""
""fullscreenenter"",""1"",""5938""
","
","""event"",""trial"",""time""
""focus"",""0"",""2""
","""event"",""trial"",""time""
""fullscreenenter"",""1"",""5938""
","
","","","","","","null","<div style=""font-size:60px;"">+</div>","null","","fixation","","","","","","","","","","","","","",""
"learning-trial","111","637161","0.0-9.0-2.0-1.12","1809","2","2","""event"",""trial"",""time""
""focus"",""0"",""2""
""fullscreenenter"",""1"",""5938""
","
","""event"",""trial"",""time""
""focus"",""0"",""2""
","""event"",""trial"",""time""
""fullscreenenter"",""1"",""5938""
","
","","","","","","1588","images/straw5.png","","","learning","images/fruit_choice3.png","images/fruit_choice2.png","images/fruit_choice1.png","[2,1,0]","0","2","2","images/fruit_choice2.png","-1","fruit","","straw","2","0"
"html-keyboard-response","112","637672","0.0-9.0-2.0-0.13","1809","2","2","""event"",""trial"",""time""
""focus"",""0"",""2""
""fullscreenenter"",""1"",""5938""
","
","""event"",""trial"",""time""
""focus"",""0"",""2""
","""event"",""trial"",""time""
""fullscreenenter"",""1"",""5938""
","
","","","","","","null","<div style=""font-size:60px;"">+</div>","null","","fixation","","","","","","","","","","","","","",""
"learning-trial","113","641675","0.0-9.0-2.0-1.13","1809","2","2","""event"",""trial"",""time""
""focus"",""0"",""2""
""fullscreenenter"",""1"",""5938""
","
","""event"",""trial"",""time""
""focus"",""0"",""2""
","""event"",""trial"",""time""
""fullscreenenter"",""1"",""5938""
","
","","","","","","1771","images/banana4.png","","","learning","images/fruit_choice3.png","images/fruit_choice2.png","images/fruit_choice1.png","[2,1,0]","0","2","3","images/fruit_choice1.png","1","fruit","","banana","2","0"
"html-keyboard-response","114","642198","0.0-9.0-2.0-0.14","1809","2","2","""event"",""trial"",""time""
""focus"",""0"",""2""
""fullscreenenter"",""1"",""5938""
","
","""event"",""trial"",""time""
""focus"",""0"",""2""
","""event"",""trial"",""time""
""fullscreenenter"",""1"",""5938""
","
","","","","","","null","<div style=""font-size:60px;"">+</div>","null","","fixation","","","","","","","","","","","","","",""
"learning-trial","115","646206","0.0-9.0-2.0-1.14","1809","2","2","""event"",""trial"",""time""
""focus"",""0"",""2""
""fullscreenenter"",""1"",""5938""
","
","""event"",""trial"",""time""
""focus"",""0"",""2""
","""event"",""trial"",""time""
""fullscreenenter"",""1"",""5938""
","
","","","","","","1507","images/straw2.png","","","learning","images/fruit_choice1.png","images/fruit_choice3.png","images/fruit_choice2.png","[0,2,1]","2","1","3","images/fruit_choice2.png","-1","fruit","","straw","2","0"
"html-keyboard-response","116","646717","0.0-9.0-2.0-0.15","1809","2","2","""event"",""trial"",""time""
""focus"",""0"",""2""
""fullscreenenter"",""1"",""5938""
","
","""event"",""trial"",""time""
""focus"",""0"",""2""
","""event"",""trial"",""time""
""fullscreenenter"",""1"",""5938""
","
","","","","","","null","<div style=""font-size:60px;"">+</div>","null","","fixation","","","","","","","","","","","","","",""
"learning-trial","117","650719","0.0-9.0-2.0-1.15","1809","2","2","""event"",""trial"",""time""
""focus"",""0"",""2""
""fullscreenenter"",""1"",""5938""
","
","""event"",""trial"",""time""
""focus"",""0"",""2""
","""event"",""trial"",""time""
""fullscreenenter"",""1"",""5938""
","
","","","","","","1390","images/banana2.png","","","learning","images/fruit_choice3.png","images/fruit_choice1.png","images/fruit_choice2.png","[2,0,1]","2","0","3","images/fruit_choice2.png","-1","fruit","","banana","2","0"
"html-keyboard-response","118","651219","0.0-9.0-2.0-0.16","1809","2","2","""event"",""trial"",""time""
""focus"",""0"",""2""
""fullscreenenter"",""1"",""5938""
","
","""event"",""trial"",""time""
""focus"",""0"",""2""
","""event"",""trial"",""time""
""fullscreenenter"",""1"",""5938""
","
","","","","","","null","<div style=""font-size:60px;"">+</div>","null","","fixation","","","","","","","","","","","","","",""
"learning-trial","119","655229","0.0-9.0-2.0-1.16","1809","2","2","""event"",""trial"",""time""
""focus"",""0"",""2""
""fullscreenenter"",""1"",""5938""
","
","""event"",""trial"",""time""
""focus"",""0"",""2""
","""event"",""trial"",""time""
""fullscreenenter"",""1"",""5938""
","
","","","","","","1681","images/apple3.png","","","learning","images/fruit_choice1.png","images/fruit_choice3.png","images/fruit_choice2.png","[0,2,1]","1","2","3","images/fruit_choice2.png","1","fruit","","apple","2","0"
"html-keyboard-response","120","655730","0.0-9.0-2.0-0.17","1809","2","2","""event"",""trial"",""time""
""focus"",""0"",""2""
""fullscreenenter"",""1"",""5938""
","
","""event"",""trial"",""time""
""focus"",""0"",""2""
","""event"",""trial"",""time""
""fullscreenenter"",""1"",""5938""
","
","","","","","","null","<div style=""font-size:60px;"">+</div>","null","","fixation","","","","","","","","","","","","","",""
"learning-trial","121","659742","0.0-9.0-2.0-1.17","1809","2","2","""event"",""trial"",""time""
""focus"",""0"",""2""
""fullscreenenter"",""1"",""5938""
","
","""event"",""trial"",""time""
""focus"",""0"",""2""
","""event"",""trial"",""time""
""fullscreenenter"",""1"",""5938""
","
","","","","","","2284","images/banana2.png","","","learning","images/fruit_choice2.png","images/fruit_choice3.png","images/fruit_choice1.png","[1,2,0]","2","1","3","images/fruit_choice1.png","-1","fruit","","banana","2","0"
"html-keyboard-response","122","660248","0.0-9.0-2.0-0.18","1809","2","2","""event"",""trial"",""time""
""focus"",""0"",""2""
""fullscreenenter"",""1"",""5938""
","
","""event"",""trial"",""time""
""focus"",""0"",""2""
","""event"",""trial"",""time""
""fullscreenenter"",""1"",""5938""
","
","","","","","","null","<div style=""font-size:60px;"">+</div>","null","","fixation","","","","","","","","","","","","","",""
"learning-trial","123","664265","0.0-9.0-2.0-1.18","1809","2","2","""event"",""trial"",""time""
""focus"",""0"",""2""
""fullscreenenter"",""1"",""5938""
","
","""event"",""trial"",""time""
""focus"",""0"",""2""
","""event"",""trial"",""time""
""fullscreenenter"",""1"",""5938""
","
","","","","","","3112","images/straw5.png","","","learning","images/fruit_choice2.png","images/fruit_choice1.png","images/fruit_choice3.png","[1,0,2]","0","1","3","images/fruit_choice3.png","-1","fruit","","straw","2","0"
"html-keyboard-response","124","664776","0.0-9.0-2.0-0.19","1809","2","2","""event"",""trial"",""time""
""focus"",""0"",""2""
""fullscreenenter"",""1"",""5938""
","
","""event"",""trial"",""time""
""focus"",""0"",""2""
","""event"",""trial"",""time""
""fullscreenenter"",""1"",""5938""
","
","","","","","","null","<div style=""font-size:60px;"">+</div>","null","","fixation","","","","","","","","","","","","","",""
"learning-trial","125","668783","0.0-9.0-2.0-1.19","1809","2","2","""event"",""trial"",""time""
""focus"",""0"",""2""
""fullscreenenter"",""1"",""5938""
","
","""event"",""trial"",""time""
""focus"",""0"",""2""
","""event"",""trial"",""time""
""fullscreenenter"",""1"",""5938""
","
","","","","","","1239","images/apple4.png","","","learning","images/fruit_choice2.png","images/fruit_choice3.png","images/fruit_choice1.png","[1,2,0]","0","2","3","images/fruit_choice1.png","1","fruit","","apple","2","0"
"html-keyboard-response","126","669294","0.0-9.0-2.0-0.20","1809","2","2","""event"",""trial"",""time""
""focus"",""0"",""2""
""fullscreenenter"",""1"",""5938""
","
","""event"",""trial"",""time""
""focus"",""0"",""2""
","""event"",""trial"",""time""
""fullscreenenter"",""1"",""5938""
","
","","","","","","null","<div style=""font-size:60px;"">+</div>","null","","fixation","","","","","","","","","","","","","",""
"learning-trial","127","673312","0.0-9.0-2.0-1.20","1809","2","2","""event"",""trial"",""time""
""focus"",""0"",""2""
""fullscreenenter"",""1"",""5938""
","
","""event"",""trial"",""time""
""focus"",""0"",""2""
","""event"",""trial"",""time""
""fullscreenenter"",""1"",""5938""
","
","","","","","","1809","images/banana2.png","","","learning","images/fruit_choice3.png","images/fruit_choice1.png","images/fruit_choice2.png","[2,0,1]","2","0","2","images/fruit_choice1.png","-1","fruit","","banana","2","0"
"html-keyboard-response","128","673813","0.0-9.0-2.0-0.21","1809","2","2","""event"",""trial"",""time""
""focus"",""0"",""2""
""fullscreenenter"",""1"",""5938""
","
","""event"",""trial"",""time""
""focus"",""0"",""2""
","""event"",""trial"",""time""
""fullscreenenter"",""1"",""5938""
","
","","","","","","null","<div style=""font-size:60px;"">+</div>","null","","fixation","","","","","","","","","","","","","",""
"learning-trial","129","677834","0.0-9.0-2.0-1.21","1809","2","2","""event"",""trial"",""time""
""focus"",""0"",""2""
""fullscreenenter"",""1"",""5938""
","
","""event"",""trial"",""time""
""focus"",""0"",""2""
","""event"",""trial"",""time""
""fullscreenenter"",""1"",""5938""
","
","","","","","","1510","images/straw5.png","","","learning","images/fruit_choice3.png","images/fruit_choice1.png","images/fruit_choice2.png","[2,0,1]","0","1","2","images/fruit_choice1.png","1","fruit","","straw","2","0"
"html-keyboard-response","130","678335","0.0-9.0-2.0-0.22","1809","2","2","""event"",""trial"",""time""
""focus"",""0"",""2""
""fullscreenenter"",""1"",""5938""
","
","""event"",""trial"",""time""
""focus"",""0"",""2""
","""event"",""trial"",""time""
""fullscreenenter"",""1"",""5938""
","
","","","","","","null","<div style=""font-size:60px;"">+</div>","null","","fixation","","","","","","","","","","","","","",""
"learning-trial","131","682341","0.0-9.0-2.0-1.22","1809","2","2","""event"",""trial"",""time""
""focus"",""0"",""2""
""fullscreenenter"",""1"",""5938""
","
","""event"",""trial"",""time""
""focus"",""0"",""2""
","""event"",""trial"",""time""
""fullscreenenter"",""1"",""5938""
","
","","","","","","1624","images/apple3.png","","","learning","images/fruit_choice2.png","images/fruit_choice3.png","images/fruit_choice1.png","[1,2,0]","1","0","1","images/fruit_choice2.png","1","fruit","","apple","2","0"
"html-keyboard-response","132","682859","0.0-9.0-2.0-0.23","1809","2","2","""event"",""trial"",""time""
""focus"",""0"",""2""
""fullscreenenter"",""1"",""5938""
","
","""event"",""trial"",""time""
""focus"",""0"",""2""
","""event"",""trial"",""time""
""fullscreenenter"",""1"",""5938""
","
","","","","","","null","<div style=""font-size:60px;"">+</div>","null","","fixation","","","","","","","","","","","","","",""
"learning-trial","133","686869","0.0-9.0-2.0-1.23","1809","2","2","""event"",""trial"",""time""
""focus"",""0"",""2""
""fullscreenenter"",""1"",""5938""
","
","""event"",""trial"",""time""
""focus"",""0"",""2""
","""event"",""trial"",""time""
""fullscreenenter"",""1"",""5938""
","
","","","","","","2414","images/straw4.png","","","learning","images/fruit_choice3.png","images/fruit_choice1.png","images/fruit_choice2.png","[2,0,1]","1","2","3","images/fruit_choice2.png","1","fruit","","straw","2","0"
"html-keyboard-response","134","687381","0.0-9.0-2.0-0.24","1809","2","2","""event"",""trial"",""time""
""focus"",""0"",""2""
""fullscreenenter"",""1"",""5938""
","
","""event"",""trial"",""time""
""focus"",""0"",""2""
","""event"",""trial"",""time""
""fullscreenenter"",""1"",""5938""
","
","","","","","","null","<div style=""font-size:60px;"">+</div>","null","","fixation","","","","","","","","","","","","","",""
"learning-trial","135","691384","0.0-9.0-2.0-1.24","1809","2","2","""event"",""trial"",""time""
""focus"",""0"",""2""
""fullscreenenter"",""1"",""5938""
","
","""event"",""trial"",""time""
""focus"",""0"",""2""
","""event"",""trial"",""time""
""fullscreenenter"",""1"",""5938""
","
","","","","","","1264","images/apple3.png","","","learning","images/fruit_choice2.png","images/fruit_choice1.png","images/fruit_choice3.png","[1,0,2]","1","0","1","images/fruit_choice2.png","-1","fruit","","apple","2","0"
"html-keyboard-response","136","691886","0.0-9.0-2.0-0.25","1809","2","2","""event"",""trial"",""time""
""focus"",""0"",""2""
""fullscreenenter"",""1"",""5938""
","
","""event"",""trial"",""time""
""focus"",""0"",""2""
","""event"",""trial"",""time""
""fullscreenenter"",""1"",""5938""
","
","","","","","","null","<div style=""font-size:60px;"">+</div>","null","","fixation","","","","","","","","","","","","","",""
"learning-trial","137","695902","0.0-9.0-2.0-1.25","1809","2","2","""event"",""trial"",""time""
""focus"",""0"",""2""
""fullscreenenter"",""1"",""5938""
","
","""event"",""trial"",""time""
""focus"",""0"",""2""
","""event"",""trial"",""time""
""fullscreenenter"",""1"",""5938""
","
","","","","","","1836","images/banana2.png","","","learning","images/fruit_choice3.png","images/fruit_choice2.png","images/fruit_choice1.png","[2,1,0]","2","0","2","images/fruit_choice2.png","-1","fruit","","banana","2","0"
"html-keyboard-response","138","696414","0.0-9.0-2.0-0.26","1809","2","2","""event"",""trial"",""time""
""focus"",""0"",""2""
""fullscreenenter"",""1"",""5938""
","
","""event"",""trial"",""time""
""focus"",""0"",""2""
","""event"",""trial"",""time""
""fullscreenenter"",""1"",""5938""
","
","","","","","","null","<div style=""font-size:60px;"">+</div>","null","","fixation","","","","","","","","","","","","","",""
"learning-trial","139","700419","0.0-9.0-2.0-1.26","1809","2","2","""event"",""trial"",""time""
""focus"",""0"",""2""
""fullscreenenter"",""1"",""5938""
","
","""event"",""trial"",""time""
""focus"",""0"",""2""
","""event"",""trial"",""time""
""fullscreenenter"",""1"",""5938""
","
","","","","","","1109","images/banana5.png","","","learning","images/fruit_choice1.png","images/fruit_choice2.png","images/fruit_choice3.png","[0,1,2]","1","1","1","images/fruit_choice1.png","-1","fruit","","banana","2","0"
"html-keyboard-response","140","700921","0.0-9.0-2.0-0.27","1809","2","2","""event"",""trial"",""time""
""focus"",""0"",""2""
""fullscreenenter"",""1"",""5938""
","
","""event"",""trial"",""time""
""focus"",""0"",""2""
","""event"",""trial"",""time""
""fullscreenenter"",""1"",""5938""
","
","","","","","","null","<div style=""font-size:60px;"">+</div>","null","","fixation","","","","","","","","","","","","","",""
"learning-trial","141","704926","0.0-9.0-2.0-1.27","1809","2","2","""event"",""trial"",""time""
""focus"",""0"",""2""
""fullscreenenter"",""1"",""5938""
","
","""event"",""trial"",""time""
""focus"",""0"",""2""
","""event"",""trial"",""time""
""fullscreenenter"",""1"",""5938""
","
","","","","","","1051","images/straw2.png","","","learning","images/fruit_choice1.png","images/fruit_choice3.png","images/fruit_choice2.png","[0,2,1]","2","1","3","images/fruit_choice2.png","-1","fruit","","straw","2","0"
"html-keyboard-response","142","705439","0.0-9.0-2.0-0.28","1809","2","2","""event"",""trial"",""time""
""focus"",""0"",""2""
""fullscreenenter"",""1"",""5938""
","
","""event"",""trial"",""time""
""focus"",""0"",""2""
","""event"",""trial"",""time""
""fullscreenenter"",""1"",""5938""
","
","","","","","","null","<div style=""font-size:60px;"">+</div>","null","","fixation","","","","","","","","","","","","","",""
"learning-trial","143","709463","0.0-9.0-2.0-1.28","1809","2","2","""event"",""trial"",""time""
""focus"",""0"",""2""
""fullscreenenter"",""1"",""5938""
","
","""event"",""trial"",""time""
""focus"",""0"",""2""
","""event"",""trial"",""time""
""fullscreenenter"",""1"",""5938""
","
","","","","","","1182","images/apple2.png","","","learning","images/fruit_choice3.png","images/fruit_choice1.png","images/fruit_choice2.png","[2,0,1]","2","0","3","images/fruit_choice2.png","-1","fruit","","apple","2","0"
"html-keyboard-response","144","709983","0.0-9.0-2.0-0.29","1809","2","2","""event"",""trial"",""time""
""focus"",""0"",""2""
""fullscreenenter"",""1"",""5938""
","
","""event"",""trial"",""time""
""focus"",""0"",""2""
","""event"",""trial"",""time""
""fullscreenenter"",""1"",""5938""
","
","","","","","","null","<div style=""font-size:60px;"">+</div>","null","","fixation","","","","","","","","","","","","","",""
"learning-trial","145","713989","0.0-9.0-2.0-1.29","1809","2","2","""event"",""trial"",""time""
""focus"",""0"",""2""
""fullscreenenter"",""1"",""5938""
","
","""event"",""trial"",""time""
""focus"",""0"",""2""
","""event"",""trial"",""time""
""fullscreenenter"",""1"",""5938""
","
","","","","","","818","images/straw2.png","","","learning","images/fruit_choice3.png","images/fruit_choice1.png","images/fruit_choice2.png","[2,0,1]","2","0","3","images/fruit_choice2.png","-1","fruit","","straw","2","0"
"html-keyboard-response","146","714502","0.0-9.0-2.0-0.30","1809","2","2","""event"",""trial"",""time""
""focus"",""0"",""2""
""fullscreenenter"",""1"",""5938""
","
","""event"",""trial"",""time""
""focus"",""0"",""2""
","""event"",""trial"",""time""
""fullscreenenter"",""1"",""5938""
","
","","","","","","null","<div style=""font-size:60px;"">+</div>","null","","fixation","","","","","","","","","","","","","",""
"learning-trial","147","718517","0.0-9.0-2.0-1.30","1809","2","2","""event"",""trial"",""time""
""focus"",""0"",""2""
""fullscreenenter"",""1"",""5938""
","
","""event"",""trial"",""time""
""focus"",""0"",""2""
","""event"",""trial"",""time""
""fullscreenenter"",""1"",""5938""
","
","","","","","","1344","images/banana5.png","","","learning","images/fruit_choice2.png","images/fruit_choice3.png","images/fruit_choice1.png","[1,2,0]","1","0","3","images/fruit_choice1.png","-1","fruit","","banana","2","0"
"html-keyboard-response","148","719018","0.0-9.0-2.0-0.31","1809","2","2","""event"",""trial"",""time""
""focus"",""0"",""2""
""fullscreenenter"",""1"",""5938""
","
","""event"",""trial"",""time""
""focus"",""0"",""2""
","""event"",""trial"",""time""
""fullscreenenter"",""1"",""5938""
","
","","","","","","null","<div style=""font-size:60px;"">+</div>","null","","fixation","","","","","","","","","","","","","",""
"learning-trial","149","723032","0.0-9.0-2.0-1.31","1809","2","2","""event"",""trial"",""time""
""focus"",""0"",""2""
""fullscreenenter"",""1"",""5938""
","
","""event"",""trial"",""time""
""focus"",""0"",""2""
","""event"",""trial"",""time""
""fullscreenenter"",""1"",""5938""
","
","","","","","","1030","images/banana4.png","","","learning","images/fruit_choice3.png","images/fruit_choice2.png","images/fruit_choice1.png","[2,1,0]","0","2","3","images/fruit_choice1.png","1","fruit","","banana","2","0"
"html-keyboard-response","150","723546","0.0-9.0-2.0-0.32","1809","2","2","""event"",""trial"",""time""
""focus"",""0"",""2""
""fullscreenenter"",""1"",""5938""
","
","""event"",""trial"",""time""
""focus"",""0"",""2""
","""event"",""trial"",""time""
""fullscreenenter"",""1"",""5938""
","
","","","","","","null","<div style=""font-size:60px;"">+</div>","null","","fixation","","","","","","","","","","","","","",""
"learning-trial","151","727552","0.0-9.0-2.0-1.32","1809","2","2","""event"",""trial"",""time""
""focus"",""0"",""2""
""fullscreenenter"",""1"",""5938""
","
","""event"",""trial"",""time""
""focus"",""0"",""2""
","""event"",""trial"",""time""
""fullscreenenter"",""1"",""5938""
","
","","","","","","1077","images/banana5.png","","","learning","images/fruit_choice1.png","images/fruit_choice2.png","images/fruit_choice3.png","[0,1,2]","1","1","1","images/fruit_choice1.png","-1","fruit","","banana","2","0"
"html-keyboard-response","152","728056","0.0-9.0-2.0-0.33","1809","2","2","""event"",""trial"",""time""
""focus"",""0"",""2""
""fullscreenenter"",""1"",""5938""
","
","""event"",""trial"",""time""
""focus"",""0"",""2""
","""event"",""trial"",""time""
""fullscreenenter"",""1"",""5938""
","
","","","","","","null","<div style=""font-size:60px;"">+</div>","null","","fixation","","","","","","","","","","","","","",""
"learning-trial","153","732058","0.0-9.0-2.0-1.33","1809","2","2","""event"",""trial"",""time""
""focus"",""0"",""2""
""fullscreenenter"",""1"",""5938""
","
","""event"",""trial"",""time""
""focus"",""0"",""2""
","""event"",""trial"",""time""
""fullscreenenter"",""1"",""5938""
","
","","","","","","1722","images/banana2.png","","","learning","images/fruit_choice2.png","images/fruit_choice3.png","images/fruit_choice1.png","[1,2,0]","2","1","2","images/fruit_choice3.png","-1","fruit","","banana","2","0"
"html-keyboard-response","154","732572","0.0-9.0-2.0-0.34","1809","2","2","""event"",""trial"",""time""
""focus"",""0"",""2""
""fullscreenenter"",""1"",""5938""
","
","""event"",""trial"",""time""
""focus"",""0"",""2""
","""event"",""trial"",""time""
""fullscreenenter"",""1"",""5938""
","
","","","","","","null","<div style=""font-size:60px;"">+</div>","null","","fixation","","","","","","","","","","","","","",""
"learning-trial","155","736587","0.0-9.0-2.0-1.34","1809","2","2","""event"",""trial"",""time""
""focus"",""0"",""2""
""fullscreenenter"",""1"",""5938""
","
","""event"",""trial"",""time""
""focus"",""0"",""2""
","""event"",""trial"",""time""
""fullscreenenter"",""1"",""5938""
","
","","","","","","1386","images/straw4.png","","","learning","images/fruit_choice2.png","images/fruit_choice3.png","images/fruit_choice1.png","[1,2,0]","1","0","1","images/fruit_choice2.png","1","fruit","","straw","2","0"
"html-keyboard-response","156","737090","0.0-9.0-2.0-0.35","1809","2","2","""event"",""trial"",""time""
""focus"",""0"",""2""
""fullscreenenter"",""1"",""5938""
","
","""event"",""trial"",""time""
""focus"",""0"",""2""
","""event"",""trial"",""time""
""fullscreenenter"",""1"",""5938""
","
","","","","","","null","<div style=""font-size:60px;"">+</div>","null","","fixation","","","","","","","","","","","","","",""
"learning-trial","157","741099","0.0-9.0-2.0-1.35","1809","2","2","""event"",""trial"",""time""
""focus"",""0"",""2""
""fullscreenenter"",""1"",""5938""
","
","""event"",""trial"",""time""
""focus"",""0"",""2""
","""event"",""trial"",""time""
""fullscreenenter"",""1"",""5938""
","
","","","","","","2369","images/banana5.png","","","learning","images/fruit_choice2.png","images/fruit_choice1.png","images/fruit_choice3.png","[1,0,2]","1","0","1","images/fruit_choice2.png","1","fruit","","banana","2","0"
"html-keyboard-response","158","741601","0.0-9.0-2.0-0.36","1809","2","2","""event"",""trial"",""time""
""focus"",""0"",""2""
""fullscreenenter"",""1"",""5938""
","
","""event"",""trial"",""time""
""focus"",""0"",""2""
","""event"",""trial"",""time""
""fullscreenenter"",""1"",""5938""
","
","","","","","","null","<div style=""font-size:60px;"">+</div>","null","","fixation","","","","","","","","","","","","","",""
"learning-trial","159","745604","0.0-9.0-2.0-1.36","1809","2","2","""event"",""trial"",""time""
""focus"",""0"",""2""
""fullscreenenter"",""1"",""5938""
","
","""event"",""trial"",""time""
""focus"",""0"",""2""
","""event"",""trial"",""time""
""fullscreenenter"",""1"",""5938""
","
","","","","","","1608","images/straw2.png","","","learning","images/fruit_choice3.png","images/fruit_choice1.png","images/fruit_choice2.png","[2,0,1]","2","0","3","images/fruit_choice2.png","-1","fruit","","straw","2","0"
"html-keyboard-response","160","746105","0.0-9.0-2.0-0.37","1809","2","2","""event"",""trial"",""time""
""focus"",""0"",""2""
""fullscreenenter"",""1"",""5938""
","
","""event"",""trial"",""time""
""focus"",""0"",""2""
","""event"",""trial"",""time""
""fullscreenenter"",""1"",""5938""
","
","","","","","","null","<div style=""font-size:60px;"">+</div>","null","","fixation","","","","","","","","","","","","","",""
"learning-trial","161","750120","0.0-9.0-2.0-1.37","1809","2","2","""event"",""trial"",""time""
""focus"",""0"",""2""
""fullscreenenter"",""1"",""5938""
","
","""event"",""trial"",""time""
""focus"",""0"",""2""
","""event"",""trial"",""time""
""fullscreenenter"",""1"",""5938""
","
","","","","","","1137","images/straw5.png","","","learning","images/fruit_choice2.png","images/fruit_choice3.png","images/fruit_choice1.png","[1,2,0]","0","2","2","images/fruit_choice3.png","1","fruit","","straw","2","0"
"html-keyboard-response","162","750620","0.0-9.0-2.0-0.38","1809","2","2","""event"",""trial"",""time""
""focus"",""0"",""2""
""fullscreenenter"",""1"",""5938""
","
","""event"",""trial"",""time""
""focus"",""0"",""2""
","""event"",""trial"",""time""
""fullscreenenter"",""1"",""5938""
","
","","","","","","null","<div style=""font-size:60px;"">+</div>","null","","fixation","","","","","","","","","","","","","",""
"learning-trial","163","754633","0.0-9.0-2.0-1.38","1809","2","2","""event"",""trial"",""time""
""focus"",""0"",""2""
""fullscreenenter"",""1"",""5938""
","
","""event"",""trial"",""time""
""focus"",""0"",""2""
","""event"",""trial"",""time""
""fullscreenenter"",""1"",""5938""
","
","","","","","","1339","images/straw4.png","","","learning","images/fruit_choice3.png","images/fruit_choice1.png","images/fruit_choice2.png","[2,0,1]","1","2","3","images/fruit_choice2.png","1","fruit","","straw","2","0"
"html-keyboard-response","164","755145","0.0-9.0-2.0-0.39","1809","2","2","""event"",""trial"",""time""
""focus"",""0"",""2""
""fullscreenenter"",""1"",""5938""
","
","""event"",""trial"",""time""
""focus"",""0"",""2""
","""event"",""trial"",""time""
""fullscreenenter"",""1"",""5938""
","
","","","","","","null","<div style=""font-size:60px;"">+</div>","null","","fixation","","","","","","","","","","","","","",""
"learning-trial","165","759155","0.0-9.0-2.0-1.39","1809","2","2","""event"",""trial"",""time""
""focus"",""0"",""2""
""fullscreenenter"",""1"",""5938""
","
","""event"",""trial"",""time""
""focus"",""0"",""2""
","""event"",""trial"",""time""
""fullscreenenter"",""1"",""5938""
","
","","","","","","2144","images/apple2.png","","","learning","images/fruit_choice3.png","images/fruit_choice2.png","images/fruit_choice1.png","[2,1,0]","2","0","1","images/fruit_choice3.png","1","fruit","","apple","2","0"
"html-keyboard-response","166","759668","0.0-9.0-2.0-0.40","1809","2","2","""event"",""trial"",""time""
""focus"",""0"",""2""
""fullscreenenter"",""1"",""5938""
","
","""event"",""trial"",""time""
""focus"",""0"",""2""
","""event"",""trial"",""time""
""fullscreenenter"",""1"",""5938""
","
","","","","","","null","<div style=""font-size:60px;"">+</div>","null","","fixation","","","","","","","","","","","","","",""
"learning-trial","167","763677","0.0-9.0-2.0-1.40","1809","2","2","""event"",""trial"",""time""
""focus"",""0"",""2""
""fullscreenenter"",""1"",""5938""
","
","""event"",""trial"",""time""
""focus"",""0"",""2""
","""event"",""trial"",""time""
""fullscreenenter"",""1"",""5938""
","
","","","","","","1551","images/apple3.png","","","learning","images/fruit_choice2.png","images/fruit_choice3.png","images/fruit_choice1.png","[1,2,0]","1","0","1","images/fruit_choice2.png","1","fruit","","apple","2","0"
"html-keyboard-response","168","764179","0.0-9.0-2.0-0.41","1809","2","2","""event"",""trial"",""time""
""focus"",""0"",""2""
""fullscreenenter"",""1"",""5938""
","
","""event"",""trial"",""time""
""focus"",""0"",""2""
","""event"",""trial"",""time""
""fullscreenenter"",""1"",""5938""
","
","","","","","","null","<div style=""font-size:60px;"">+</div>","null","","fixation","","","","","","","","","","","","","",""
"learning-trial","169","768185","0.0-9.0-2.0-1.41","1809","2","2","""event"",""trial"",""time""
""focus"",""0"",""2""
""fullscreenenter"",""1"",""5938""
","
","""event"",""trial"",""time""
""focus"",""0"",""2""
","""event"",""trial"",""time""
""fullscreenenter"",""1"",""5938""
","
","","","","","","1409","images/apple4.png","","","learning","images/fruit_choice1.png","images/fruit_choice3.png","images/fruit_choice2.png","[0,2,1]","0","0","3","images/fruit_choice2.png","-1","fruit","","apple","2","0"
"html-keyboard-response","170","768690","0.0-9.0-2.0-0.42","1809","2","2","""event"",""trial"",""time""
""focus"",""0"",""2""
""fullscreenenter"",""1"",""5938""
","
","""event"",""trial"",""time""
""focus"",""0"",""2""
","""event"",""trial"",""time""
""fullscreenenter"",""1"",""5938""
","
","","","","","","null","<div style=""font-size:60px;"">+</div>","null","","fixation","","","","","","","","","","","","","",""
"learning-trial","171","772701","0.0-9.0-2.0-1.42","1809","2","2","""event"",""trial"",""time""
""focus"",""0"",""2""
""fullscreenenter"",""1"",""5938""
","
","""event"",""trial"",""time""
""focus"",""0"",""2""
","""event"",""trial"",""time""
""fullscreenenter"",""1"",""5938""
","
","","","","","","2091","images/apple3.png","","","learning","images/fruit_choice2.png","images/fruit_choice1.png","images/fruit_choice3.png","[1,0,2]","1","0","3","images/fruit_choice3.png","-1","fruit","","apple","2","0"
"html-keyboard-response","172","773202","0.0-9.0-2.0-0.43","1809","2","2","""event"",""trial"",""time""
""focus"",""0"",""2""
""fullscreenenter"",""1"",""5938""
","
","""event"",""trial"",""time""
""focus"",""0"",""2""
","""event"",""trial"",""time""
""fullscreenenter"",""1"",""5938""
","
","","","","","","null","<div style=""font-size:60px;"">+</div>","null","","fixation","","","","","","","","","","","","","",""
"learning-trial","173","777205","0.0-9.0-2.0-1.43","1809","2","2","""event"",""trial"",""time""
""focus"",""0"",""2""
""fullscreenenter"",""1"",""5938""
","
","""event"",""trial"",""time""
""focus"",""0"",""2""
","""event"",""trial"",""time""
""fullscreenenter"",""1"",""5938""
","
","","","","","","1829","images/apple4.png","","","learning","images/fruit_choice3.png","images/fruit_choice1.png","images/fruit_choice2.png","[2,0,1]","0","1","1","images/fruit_choice3.png","-1","fruit","","apple","2","0"
"html-keyboard-response","174","777706","0.0-9.0-2.0-0.44","1809","2","2","""event"",""trial"",""time""
""focus"",""0"",""2""
""fullscreenenter"",""1"",""5938""
","
","""event"",""trial"",""time""
""focus"",""0"",""2""
","""event"",""trial"",""time""
""fullscreenenter"",""1"",""5938""
","
","","","","","","null","<div style=""font-size:60px;"">+</div>","null","","fixation","","","","","","","","","","","","","",""
"learning-trial","175","781711","0.0-9.0-2.0-1.44","1809","2","2","""event"",""trial"",""time""
""focus"",""0"",""2""
""fullscreenenter"",""1"",""5938""
","
","""event"",""trial"",""time""
""focus"",""0"",""2""
","""event"",""trial"",""time""
""fullscreenenter"",""1"",""5938""
","
","","","","","","1071","images/straw4.png","","","learning","images/fruit_choice2.png","images/fruit_choice1.png","images/fruit_choice3.png","[1,0,2]","1","0","1","images/fruit_choice2.png","1","fruit","","straw","2","0"
"html-keyboard-response","176","782212","0.0-9.0-2.0-0.45","1809","2","2","""event"",""trial"",""time""
""focus"",""0"",""2""
""fullscreenenter"",""1"",""5938""
","
","""event"",""trial"",""time""
""focus"",""0"",""2""
","""event"",""trial"",""time""
""fullscreenenter"",""1"",""5938""
","
","","","","","","null","<div style=""font-size:60px;"">+</div>","null","","fixation","","","","","","","","","","","","","",""
"learning-trial","177","786218","0.0-9.0-2.0-1.45","1809","2","2","""event"",""trial"",""time""
""focus"",""0"",""2""
""fullscreenenter"",""1"",""5938""
","
","""event"",""trial"",""time""
""focus"",""0"",""2""
","""event"",""trial"",""time""
""fullscreenenter"",""1"",""5938""
","
","","","","","","2624","images/straw2.png","","","learning","images/fruit_choice2.png","images/fruit_choice1.png","images/fruit_choice3.png","[1,0,2]","2","2","3","images/fruit_choice3.png","1","fruit","","straw","2","0"
"html-keyboard-response","178","786719","0.0-9.0-2.0-0.46","1809","2","2","""event"",""trial"",""time""
""focus"",""0"",""2""
""fullscreenenter"",""1"",""5938""
","
","""event"",""trial"",""time""
""focus"",""0"",""2""
","""event"",""trial"",""time""
""fullscreenenter"",""1"",""5938""
","
","","","","","","null","<div style=""font-size:60px;"">+</div>","null","","fixation","","","","","","","","","","","","","",""
"learning-trial","179","790730","0.0-9.0-2.0-1.46","1809","2","2","""event"",""trial"",""time""
""focus"",""0"",""2""
""fullscreenenter"",""1"",""5938""
","
","""event"",""trial"",""time""
""focus"",""0"",""2""
","""event"",""trial"",""time""
""fullscreenenter"",""1"",""5938""
","
","","","","","","1645","images/straw4.png","","","learning","images/fruit_choice2.png","images/fruit_choice3.png","images/fruit_choice1.png","[1,2,0]","1","0","2","images/fruit_choice3.png","-1","fruit","","straw","2","0"
"html-keyboard-response","180","791232","0.0-9.0-2.0-0.47","1809","2","2","""event"",""trial"",""time""
""focus"",""0"",""2""
""fullscreenenter"",""1"",""5938""
","
","""event"",""trial"",""time""
""focus"",""0"",""2""
","""event"",""trial"",""time""
""fullscreenenter"",""1"",""5938""
","
","","","","","","null","<div style=""font-size:60px;"">+</div>","null","","fixation","","","","","","","","","","","","","",""
"learning-trial","181","795239","0.0-9.0-2.0-1.47","1809","2","2","""event"",""trial"",""time""
""focus"",""0"",""2""
""fullscreenenter"",""1"",""5938""
","
","""event"",""trial"",""time""
""focus"",""0"",""2""
","""event"",""trial"",""time""
""fullscreenenter"",""1"",""5938""
","
","","","","","","1456","images/apple2.png","","","learning","images/fruit_choice3.png","images/fruit_choice2.png","images/fruit_choice1.png","[2,1,0]","2","0","2","images/fruit_choice2.png","-1","fruit","","apple","2","0"
"html-keyboard-response","182","795740","0.0-9.0-2.0-0.48","1809","2","2","""event"",""trial"",""time""
""focus"",""0"",""2""
""fullscreenenter"",""1"",""5938""
","
","""event"",""trial"",""time""
""focus"",""0"",""2""
","""event"",""trial"",""time""
""fullscreenenter"",""1"",""5938""
","
","","","","","","null","<div style=""font-size:60px;"">+</div>","null","","fixation","","","","","","","","","","","","","",""
"learning-trial","183","799748","0.0-9.0-2.0-1.48","1809","2","2","""event"",""trial"",""time""
""focus"",""0"",""2""
""fullscreenenter"",""1"",""5938""
","
","""event"",""trial"",""time""
""focus"",""0"",""2""
","""event"",""trial"",""time""
""fullscreenenter"",""1"",""5938""
","
","","","","","","1160","images/banana2.png","","","learning","images/fruit_choice3.png","images/fruit_choice2.png","images/fruit_choice1.png","[2,1,0]","2","0","1","images/fruit_choice3.png","1","fruit","","banana","2","0"
"html-keyboard-response","184","800250","0.0-9.0-2.0-0.49","1809","2","2","""event"",""trial"",""time""
""focus"",""0"",""2""
""fullscreenenter"",""1"",""5938""
","
","""event"",""trial"",""time""
""focus"",""0"",""2""
","""event"",""trial"",""time""
""fullscreenenter"",""1"",""5938""
","
","","","","","","null","<div style=""font-size:60px;"">+</div>","null","","fixation","","","","","","","","","","","","","",""
"learning-trial","185","804260","0.0-9.0-2.0-1.49","1809","2","2","""event"",""trial"",""time""
""focus"",""0"",""2""
""fullscreenenter"",""1"",""5938""
","
","""event"",""trial"",""time""
""focus"",""0"",""2""
","""event"",""trial"",""time""
""fullscreenenter"",""1"",""5938""
","
","","","","","","1573","images/apple4.png","","","learning","images/fruit_choice1.png","images/fruit_choice2.png","images/fruit_choice3.png","[0,1,2]","0","0","1","images/fruit_choice1.png","1","fruit","","apple","2","0"
"html-keyboard-response","186","804776","0.0-9.0-2.0-0.50","1809","2","2","""event"",""trial"",""time""
""focus"",""0"",""2""
""fullscreenenter"",""1"",""5938""
","
","""event"",""trial"",""time""
""focus"",""0"",""2""
","""event"",""trial"",""time""
""fullscreenenter"",""1"",""5938""
","
","","","","","","null","<div style=""font-size:60px;"">+</div>","null","","fixation","","","","","","","","","","","","","",""
"learning-trial","187","808782","0.0-9.0-2.0-1.50","1809","2","2","""event"",""trial"",""time""
""focus"",""0"",""2""
""fullscreenenter"",""1"",""5938""
","
","""event"",""trial"",""time""
""focus"",""0"",""2""
","""event"",""trial"",""time""
""fullscreenenter"",""1"",""5938""
","
","","","","","","3215","images/straw2.png","","","learning","images/fruit_choice3.png","images/fruit_choice1.png","images/fruit_choice2.png","[2,0,1]","2","0","2","images/fruit_choice1.png","-1","fruit","","straw","2","0"
"html-keyboard-response","188","809294","0.0-9.0-2.0-0.51","1809","2","2","""event"",""trial"",""time""
""focus"",""0"",""2""
""fullscreenenter"",""1"",""5938""
","
","""event"",""trial"",""time""
""focus"",""0"",""2""
","""event"",""trial"",""time""
""fullscreenenter"",""1"",""5938""
","
","","","","","","null","<div style=""font-size:60px;"">+</div>","null","","fixation","","","","","","","","","","","","","",""
"learning-trial","189","813298","0.0-9.0-2.0-1.51","1809","2","2","""event"",""trial"",""time""
""focus"",""0"",""2""
""fullscreenenter"",""1"",""5938""
","
","""event"",""trial"",""time""
""focus"",""0"",""2""
","""event"",""trial"",""time""
""fullscreenenter"",""1"",""5938""
","
","","","","","","1027","images/apple4.png","","","learning","images/fruit_choice1.png","images/fruit_choice2.png","images/fruit_choice3.png","[0,1,2]","0","0","1","images/fruit_choice1.png","1","fruit","","apple","2","0"
"html-keyboard-response","190","813800","0.0-9.0-2.0-0.52","1809","2","2","""event"",""trial"",""time""
""focus"",""0"",""2""
""fullscreenenter"",""1"",""5938""
","
","""event"",""trial"",""time""
""focus"",""0"",""2""
","""event"",""trial"",""time""
""fullscreenenter"",""1"",""5938""
","
","","","","","","null","<div style=""font-size:60px;"">+</div>","null","","fixation","","","","","","","","","","","","","",""
"learning-trial","191","817813","0.0-9.0-2.0-1.52","1809","2","2","""event"",""trial"",""time""
""focus"",""0"",""2""
""fullscreenenter"",""1"",""5938""
","
","""event"",""trial"",""time""
""focus"",""0"",""2""
","""event"",""trial"",""time""
""fullscreenenter"",""1"",""5938""
","
","","","","","","1751","images/apple2.png","","","learning","images/fruit_choice1.png","images/fruit_choice3.png","images/fruit_choice2.png","[0,2,1]","2","1","2","images/fruit_choice3.png","1","fruit","","apple","2","0"
"html-keyboard-response","192","818327","0.0-9.0-2.0-0.53","1809","2","2","""event"",""trial"",""time""
""focus"",""0"",""2""
""fullscreenenter"",""1"",""5938""
","
","""event"",""trial"",""time""
""focus"",""0"",""2""
","""event"",""trial"",""time""
""fullscreenenter"",""1"",""5938""
","
","","","","","","null","<div style=""font-size:60px;"">+</div>","null","","fixation","","","","","","","","","","","","","",""
"learning-trial","193","822329","0.0-9.0-2.0-1.53","1809","2","2","""event"",""trial"",""time""
""focus"",""0"",""2""
""fullscreenenter"",""1"",""5938""
","
","""event"",""trial"",""time""
""focus"",""0"",""2""
","""event"",""trial"",""time""
""fullscreenenter"",""1"",""5938""
","
","","","","","","1769","images/straw4.png","","","learning","images/fruit_choice1.png","images/fruit_choice3.png","images/fruit_choice2.png","[0,2,1]","1","2","3","images/fruit_choice2.png","-1","fruit","","straw","2","0"
"html-keyboard-response","194","822835","0.0-9.0-2.0-0.54","1809","2","2","""event"",""trial"",""time""
""focus"",""0"",""2""
""fullscreenenter"",""1"",""5938""
","
","""event"",""trial"",""time""
""focus"",""0"",""2""
","""event"",""trial"",""time""
""fullscreenenter"",""1"",""5938""
","
","","","","","","null","<div style=""font-size:60px;"">+</div>","null","","fixation","","","","","","","","","","","","","",""
"learning-trial","195","826841","0.0-9.0-2.0-1.54","1809","2","2","""event"",""trial"",""time""
""focus"",""0"",""2""
""fullscreenenter"",""1"",""5938""
","
","""event"",""trial"",""time""
""focus"",""0"",""2""
","""event"",""trial"",""time""
""fullscreenenter"",""1"",""5938""
","
","","","","","","2325","images/banana5.png","","","learning","images/fruit_choice3.png","images/fruit_choice1.png","images/fruit_choice2.png","[2,0,1]","1","2","1","images/fruit_choice3.png","-1","fruit","","banana","2","0"
"html-keyboard-response","196","827347","0.0-9.0-2.0-0.55","1809","2","2","""event"",""trial"",""time""
""focus"",""0"",""2""
""fullscreenenter"",""1"",""5938""
","
","""event"",""trial"",""time""
""focus"",""0"",""2""
","""event"",""trial"",""time""
""fullscreenenter"",""1"",""5938""
","
","","","","","","null","<div style=""font-size:60px;"">+</div>","null","","fixation","","","","","","","","","","","","","",""
"learning-trial","197","831352","0.0-9.0-2.0-1.55","1809","2","2","""event"",""trial"",""time""
""focus"",""0"",""2""
""fullscreenenter"",""1"",""5938""
","
","""event"",""trial"",""time""
""focus"",""0"",""2""
","""event"",""trial"",""time""
""fullscreenenter"",""1"",""5938""
","
","","","","","","1171","images/straw5.png","","","learning","images/fruit_choice3.png","images/fruit_choice2.png","images/fruit_choice1.png","[2,1,0]","0","2","3","images/fruit_choice1.png","1","fruit","","straw","2","0"
"html-keyboard-response","198","831854","0.0-9.0-2.0-0.56","1809","2","2","""event"",""trial"",""time""
""focus"",""0"",""2""
""fullscreenenter"",""1"",""5938""
","
","""event"",""trial"",""time""
""focus"",""0"",""2""
","""event"",""trial"",""time""
""fullscreenenter"",""1"",""5938""
","
","","","","","","null","<div style=""font-size:60px;"">+</div>","null","","fixation","","","","","","","","","","","","","",""
"learning-trial","199","835865","0.0-9.0-2.0-1.56","1809","2","2","""event"",""trial"",""time""
""focus"",""0"",""2""
""fullscreenenter"",""1"",""5938""
","
","""event"",""trial"",""time""
""focus"",""0"",""2""
","""event"",""trial"",""time""
""fullscreenenter"",""1"",""5938""
","
","","","","","","1341","images/apple2.png","","","learning","images/fruit_choice1.png","images/fruit_choice2.png","images/fruit_choice3.png","[0,1,2]","2","2","1","images/fruit_choice1.png","-1","fruit","","apple","2","0"
"html-keyboard-response","200","836373","0.0-9.0-2.0-0.57","1809","2","2","""event"",""trial"",""time""
""focus"",""0"",""2""
""fullscreenenter"",""1"",""5938""
","
","""event"",""trial"",""time""
""focus"",""0"",""2""
","""event"",""trial"",""time""
""fullscreenenter"",""1"",""5938""
","
","","","","","","null","<div style=""font-size:60px;"">+</div>","null","","fixation","","","","","","","","","","","","","",""
"learning-trial","201","840384","0.0-9.0-2.0-1.57","1809","2","2","""event"",""trial"",""time""
""focus"",""0"",""2""
""fullscreenenter"",""1"",""5938""
","
","""event"",""trial"",""time""
""focus"",""0"",""2""
","""event"",""trial"",""time""
""fullscreenenter"",""1"",""5938""
","
","","","","","","488","images/apple3.png","","","learning","images/fruit_choice2.png","images/fruit_choice1.png","images/fruit_choice3.png","[1,0,2]","1","0","3","images/fruit_choice3.png","-1","fruit","","apple","2","0"
"html-keyboard-response","202","840884","0.0-9.0-2.0-0.58","1809","2","2","""event"",""trial"",""time""
""focus"",""0"",""2""
""fullscreenenter"",""1"",""5938""
","
","""event"",""trial"",""time""
""focus"",""0"",""2""
","""event"",""trial"",""time""
""fullscreenenter"",""1"",""5938""
","
","","","","","","null","<div style=""font-size:60px;"">+</div>","null","","fixation","","","","","","","","","","","","","",""
"learning-trial","203","844895","0.0-9.0-2.0-1.58","1809","2","2","""event"",""trial"",""time""
""focus"",""0"",""2""
""fullscreenenter"",""1"",""5938""
","
","""event"",""trial"",""time""
""focus"",""0"",""2""
","""event"",""trial"",""time""
""fullscreenenter"",""1"",""5938""
","
","","","","","","1144","images/apple4.png","","","learning","images/fruit_choice1.png","images/fruit_choice2.png","images/fruit_choice3.png","[0,1,2]","0","0","2","images/fruit_choice2.png","1","fruit","","apple","2","0"
"html-keyboard-response","204","845397","0.0-9.0-2.0-0.59","1809","2","2","""event"",""trial"",""time""
""focus"",""0"",""2""
""fullscreenenter"",""1"",""5938""
","
","""event"",""trial"",""time""
""focus"",""0"",""2""
","""event"",""trial"",""time""
""fullscreenenter"",""1"",""5938""
","
","","","","","","null","<div style=""font-size:60px;"">+</div>","null","","fixation","","","","","","","","","","","","","",""
