"trial_type","trial_index","time_elapsed","internal_node_id","subject_id","condition","task_version","interactions","blur_events","focus_events","fullscreenenter_events","fullscreenexit_events","success","timeout","failed_images","failed_audio","failed_video","rt","stimulus","response","button_pressed","task_part","left_choice","middle_choice","right_choice","choice_positions","correct_response","correct_position","key_press","option_selected","points","task_block","correct","stim_cat","block_condition","block_number"
"pavlovia","0","2","0.0-0.0","1501","2","2","""event"",""trial"",""time""
""fullscreenenter"",""1"",""1894""
","
","
","""event"",""trial"",""time""
""fullscreenenter"",""1"",""1894""
","
","","","","","","","","","","","","","","","","","","","","","","","",""
"fullscreen","1","2867","0.0-1.0","1501","2","2","""event"",""trial"",""time""
""fullscreenenter"",""1"",""1894""
","
","
","""event"",""trial"",""time""
""fullscreenenter"",""1"",""1894""
","
","true","","","","","","","","","","","","","","","","","","","","","","",""
"preload","2","31181","0.0-2.0","1501","2","2","""event"",""trial"",""time""
""fullscreenenter"",""1"",""1894""
","
","
","""event"",""trial"",""time""
""fullscreenenter"",""1"",""1894""
","
","true","false","[]","[]","[]","","","","","","","","","","","","","","","","","","",""
"audio-keyboard-response","3","33927","0.0-3.0","1501","2","2","""event"",""trial"",""time""
""fullscreenenter"",""1"",""1894""
","
","
","""event"",""trial"",""time""
""fullscreenenter"",""1"",""1894""
","
","","","","","","2741.3333333333335","audio/beep_loop.wav"," ","","","","","","","","","","","","","","","",""
"audio-button-response","4","36349","0.0-4.0","1501","2","2","""event"",""trial"",""time""
""fullscreenenter"",""1"",""1894""
","
","
","""event"",""trial"",""time""
""fullscreenenter"",""1"",""1894""
","
","","","","","","2419","audio/shark.wav","4","","","","","","","","","","","","","","","",""
"audio-button-response","5","38916","0.0-5.0","1501","2","2","""event"",""trial"",""time""
""fullscreenenter"",""1"",""1894""
","
","
","""event"",""trial"",""time""
""fullscreenenter"",""1"",""1894""
","
","","","","","","1560","audio/turtle.wav","1","","","","","","","","","","","","","","","",""
"preload","6","80869","0.0-6.0","1501","2","2","""event"",""trial"",""time""
""fullscreenenter"",""1"",""1894""
","
","
","""event"",""trial"",""time""
""fullscreenenter"",""1"",""1894""
","
","true","false","[]","[]","[]","","","","","","","","","","","","","","","","","","",""
"html-keyboard-response","7","82829","0.0-7.0","1501","2","2","""event"",""trial"",""time""
""fullscreenenter"",""1"",""1894""
","
","
","""event"",""trial"",""time""
""fullscreenenter"",""1"",""1894""
","
","","","","","","1958.5","Welcome to the experiment. Press any key to begin and to advance the instructions."," ","","","","","","","","","","","","","","","",""
"learning-instructions","8","92496","0.0-8.0-0.0-0.0","1501","2","2","""event"",""trial"",""time""
""fullscreenenter"",""1"",""1894""
","
","
","""event"",""trial"",""time""
""fullscreenenter"",""1"",""1894""
","
","","","","","","1572.8999999761581","<p> Welcome! Today you are going to play 6 different rounds of a decision-making game. </p><p> Use the mouse to click next to continue. </p>","","0","instructions","","","","","","","","","","","","","",""
"learning-instructions","9","96311","0.0-8.0-0.0-0.1","1501","2","2","""event"",""trial"",""time""
""fullscreenenter"",""1"",""1894""
","
","
","""event"",""trial"",""time""
""fullscreenenter"",""1"",""1894""
","
","","","","","","808","<p> You will start with a practice round to learn the rules. </p>","","0","instructions","","","","","","","","","","","","","",""
"learning-instructions","10","104943","0.0-8.0-0.0-0.2","1501","2","2","""event"",""trial"",""time""
""fullscreenenter"",""1"",""1894""
","
","
","""event"",""trial"",""time""
""fullscreenenter"",""1"",""1894""
","
","","","","","","880.5","<p> Your goal in this round is to deliver sports equipment to three different parks. </p><p> You will need to deliver many types of equipment. </p></div>","","0","instructions","","","","","","","","","","","","","",""
"learning-instructions","11","113915","0.0-8.0-0.0-0.3","1501","2","2","""event"",""trial"",""time""
""fullscreenenter"",""1"",""1894""
","
","
","""event"",""trial"",""time""
""fullscreenenter"",""1"",""1894""
","
","","","","","","483.2000000476837","<p> On each turn, you will see one piece of sports equipment and three different parks.  </p><p> You need to select which park to deliver the equipment to.  </p>","","0","instructions","","","","","","","","","","","","","",""
"learning-instructions","12","127998","0.0-8.0-0.0-0.4","1501","2","2","""event"",""trial"",""time""
""fullscreenenter"",""1"",""1894""
","
","
","""event"",""trial"",""time""
""fullscreenenter"",""1"",""1894""
","
","","","","","","796.3999999761581","<p> You can select the park on the left by pressing the '1' key on your keyboard. <br>You can select the park in the middle by pressing the '2' key on your keyboard. <br>You can select the park on the right by pressing the '3' key on your keyboard.  </p><br><div class=""choice-instructions-grid""> <div class=""choice-option""><img src=""images/park1.png"" class=""choice-option-img"" stage=""instructions"" position=""0"" ><div class=""choice-option-text""> Press ""1."" </div></div><div class=""choice-option""><img src=""images/park2.png"" class=""choice-option-img"" stage=""instructions"" position=""1"" ><div class=""choice-option-text""> Press ""2."" </div></div><div class=""choice-option""><img src=""images/park3.png"" class=""choice-option-img"" stage=""instructions"" position=""2"" ><div class=""choice-option-text""> Press ""3."" </div></div></div>","","0","instructions","","","","","","","","","","","","","",""
"learning-instructions","13","134295","0.0-8.0-0.0-0.5","1501","2","2","""event"",""trial"",""time""
""fullscreenenter"",""1"",""1894""
","
","
","""event"",""trial"",""time""
""fullscreenenter"",""1"",""1894""
","
","","","","","","920.2000000476837","<p> If the kids in the park you chose like the equipment, they will be very happy! </p><div style='float: center;'><img src='images/check.png' width = '200' height = '200'></img>","","0","instructions","","","","","","","","","","","","","",""
"learning-instructions","14","140096","0.0-8.0-0.0-0.6","1501","2","2","""event"",""trial"",""time""
""fullscreenenter"",""1"",""1894""
","
","
","""event"",""trial"",""time""
""fullscreenenter"",""1"",""1894""
","
","","","","","","200","<p> But, if the kids in the park you chose do not like the equipment, they will be sad. </p><div style='float: center;'><img src='images/x.png' width = '200' height = '200'></img>","","0","instructions","","","","","","","","","","","","","",""
"learning-instructions","15","146972","0.0-8.0-0.0-0.7","1501","2","2","""event"",""trial"",""time""
""fullscreenenter"",""1"",""1894""
","
","
","""event"",""trial"",""time""
""fullscreenenter"",""1"",""1894""
","
","","","","","","425.7999999523163","<p> Importantly, the kids in each park like some pieces of sports equipment more than others. </p>","","0","instructions","","","","","","","","","","","","","",""
"learning-instructions","16","153518","0.0-8.0-0.0-0.8","1501","2","2","""event"",""trial"",""time""
""fullscreenenter"",""1"",""1894""
","
","
","""event"",""trial"",""time""
""fullscreenenter"",""1"",""1894""
","
","","","","","","472.2000000476837","<p> If you choose the best park for each piece of equipment, the kids there will usually be happy. </p>","","0","instructions","","","","","","","","","","","","","",""
"learning-instructions","17","160401","0.0-8.0-0.0-0.9","1501","2","2","""event"",""trial"",""time""
""fullscreenenter"",""1"",""1894""
","
","
","""event"",""trial"",""time""
""fullscreenenter"",""1"",""1894""
","
","","","","","","235","<p> However, even if you choose the best park for the equipment, the kids may sometimes be sad. </p>","","0","instructions","","","","","","","","","","","","","",""
"learning-instructions","18","168126","0.0-8.0-0.0-0.10","1501","2","2","""event"",""trial"",""time""
""fullscreenenter"",""1"",""1894""
","
","
","""event"",""trial"",""time""
""fullscreenenter"",""1"",""1894""
","
","","","","","","480","<p> Similarly, even if you choose the <i>wrong</i> park for the equipment, the kids may still be happy sometimes.","","0","instructions","","","","","","","","","","","","","",""
"learning-instructions","19","173900","0.0-8.0-0.0-0.11","1501","2","2","""event"",""trial"",""time""
""fullscreenenter"",""1"",""1894""
","
","
","""event"",""trial"",""time""
""fullscreenenter"",""1"",""1894""
","
","","","","","","713.6999999284744","<p> For example, the best park for this soccer ball is this one.<div style='float: center;'><img src='images/i1.png' width = '500' height = '268'></img>","","0","instructions","","","","","","","","","","","","","",""
"learning-instructions","20","179827","0.0-8.0-0.0-0.12","1501","2","2","""event"",""trial"",""time""
""fullscreenenter"",""1"",""1894""
","
","
","""event"",""trial"",""time""
""fullscreenenter"",""1"",""1894""
","
","","","","","","621.7000000476837","<p> Let's see what happens if you choose this park for the soccer ball five times.","","0","instructions","","","","","","","","","","","","","",""
"learning-instructions","21","182656","0.0-8.0-0.0-0.13","1501","2","2","""event"",""trial"",""time""
""fullscreenenter"",""1"",""1894""
","
","
","""event"",""trial"",""time""
""fullscreenenter"",""1"",""1894""
","
","","","","","","659.7000000476837","<p> The kids are happy.<div style='float: left;'><img src='images/i2.png' width = '640' height = '360'></img>","","0","instructions","","","","","","","","","","","","","",""
"learning-instructions","22","185068","0.0-8.0-0.0-0.14","1501","2","2","""event"",""trial"",""time""
""fullscreenenter"",""1"",""1894""
","
","
","""event"",""trial"",""time""
""fullscreenenter"",""1"",""1894""
","
","","","","","","233.19999992847443","<p> The kids are happy.<div style='float: left;'><img src='images/i3.png' width = '640' height = '360'></img>","","0","instructions","","","","","","","","","","","","","",""
"learning-instructions","23","187554","0.0-8.0-0.0-0.15","1501","2","2","""event"",""trial"",""time""
""fullscreenenter"",""1"",""1894""
","
","
","""event"",""trial"",""time""
""fullscreenenter"",""1"",""1894""
","
","","","","","","314.60000002384186","<p> The kids are happy.<div style='float: left;'><img src='images/i4.png' width = '640' height = '360'></img>","","0","instructions","","","","","","","","","","","","","",""
"learning-instructions","24","190002","0.0-8.0-0.0-0.16","1501","2","2","""event"",""trial"",""time""
""fullscreenenter"",""1"",""1894""
","
","
","""event"",""trial"",""time""
""fullscreenenter"",""1"",""1894""
","
","","","","","","235.80000007152557","<p> The kids are sad.<div style='float: left;'><img src='images/i5.png' width = '640' height = '360'></img>","","0","instructions","","","","","","","","","","","","","",""
"learning-instructions","25","192296","0.0-8.0-0.0-0.17","1501","2","2","""event"",""trial"",""time""
""fullscreenenter"",""1"",""1894""
","
","
","""event"",""trial"",""time""
""fullscreenenter"",""1"",""1894""
","
","","","","","","141.19999992847443","<p> The kids are happy.<div style='float: left;'><img src='images/i6.png' width = '640' height = '360'></img>","","0","instructions","","","","","","","","","","","","","",""
"learning-instructions","26","199838","0.0-8.0-0.0-0.18","1501","2","2","""event"",""trial"",""time""
""fullscreenenter"",""1"",""1894""
","
","
","""event"",""trial"",""time""
""fullscreenenter"",""1"",""1894""
","
","","","","","","263.5","<p> As you can see, selecting that park for the soccer ball made the kids happy most of the time, but not all the time.","","0","instructions","","","","","","","","","","","","","",""
"learning-instructions","27","206124","0.0-8.0-0.0-0.19","1501","2","2","""event"",""trial"",""time""
""fullscreenenter"",""1"",""1894""
","
","
","""event"",""trial"",""time""
""fullscreenenter"",""1"",""1894""
","
","","","","","","269.89999997615814","<p> Now let's see what happens if you choose a DIFFERENT park for the soccer ball 5 times.","","0","instructions","","","","","","","","","","","","","",""
"learning-instructions","28","209043","0.0-8.0-0.0-0.20","1501","2","2","""event"",""trial"",""time""
""fullscreenenter"",""1"",""1894""
","
","
","""event"",""trial"",""time""
""fullscreenenter"",""1"",""1894""
","
","","","","","","688","<p> The kids are sad.<div style='float: left;'><img src='images/i7.png' width = '640' height = '360'></img>","","0","instructions","","","","","","","","","","","","","",""
"learning-instructions","29","211696","0.0-8.0-0.0-0.21","1501","2","2","""event"",""trial"",""time""
""fullscreenenter"",""1"",""1894""
","
","
","""event"",""trial"",""time""
""fullscreenenter"",""1"",""1894""
","
","","","","","","451.5","<p> The kids are sad.<div style='float: left;'><img src='images/i8.png' width = '640' height = '360'></img>","","0","instructions","","","","","","","","","","","","","",""
"learning-instructions","30","214355","0.0-8.0-0.0-0.22","1501","2","2","""event"",""trial"",""time""
""fullscreenenter"",""1"",""1894""
","
","
","""event"",""trial"",""time""
""fullscreenenter"",""1"",""1894""
","
","","","","","","480.2999999523163","<p> The kids are happy.<div style='float: left;'><img src='images/i9.png' width = '640' height = '360'></img>","","0","instructions","","","","","","","","","","","","","",""
"learning-instructions","31","216972","0.0-8.0-0.0-0.23","1501","2","2","""event"",""trial"",""time""
""fullscreenenter"",""1"",""1894""
","
","
","""event"",""trial"",""time""
""fullscreenenter"",""1"",""1894""
","
","","","","","","388.3000000715256","<p> The kids are sad.<div style='float: left;'><img src='images/i10.png' width = '640' height = '360'></img>","","0","instructions","","","","","","","","","","","","","",""
"learning-instructions","32","219547","0.0-8.0-0.0-0.24","1501","2","2","""event"",""trial"",""time""
""fullscreenenter"",""1"",""1894""
","
","
","""event"",""trial"",""time""
""fullscreenenter"",""1"",""1894""
","
","","","","","","352.59999990463257","<p> The kids are sad.<div style='float: left;'><img src='images/i11.png' width = '640' height = '360'></img>","","0","instructions","","","","","","","","","","","","","",""
"learning-instructions","33","228164","0.0-8.0-0.0-0.25","1501","2","2","""event"",""trial"",""time""
""fullscreenenter"",""1"",""1894""
","
","
","""event"",""trial"",""time""
""fullscreenenter"",""1"",""1894""
","
","","","","","","500.39999997615814","<p> As you can see, selecting the wrong park for the soccer ball made the kids sad most of the time, but not all the time.","","0","instructions","","","","","","","","","","","","","",""
"learning-instructions","34","237591","0.0-8.0-0.0-0.26","1501","2","2","""event"",""trial"",""time""
""fullscreenenter"",""1"",""1894""
","
","
","""event"",""trial"",""time""
""fullscreenenter"",""1"",""1894""
","
","","","","","","296.2999999523163","<p> The different pieces of equipment belong in different parks. You need to try to learn which is the best park for each piece of equipment.","","0","instructions","","","","","","","","","","","","","",""
"learning-instructions","35","254408","0.0-8.0-0.0-0.27","1501","2","2","""event"",""trial"",""time""
""fullscreenenter"",""1"",""1894""
","
","
","""event"",""trial"",""time""
""fullscreenenter"",""1"",""1894""
","
","","","","","","434.6999999284744","<p> Try to choose the best park for each piece of equipment, because you will <b> WIN </b> 1 point for each time you make the kids happy and <b>LOSE</b> 1 point for each time you make them sad. </p><p> Remember, if you make the best choice, you will win 1 point most of the time, but not all the time. </p>","","0","instructions","","","","","","","","","","","","","",""
"learning-instructions","36","260387","0.0-8.0-0.0-0.28","1501","2","2","""event"",""trial"",""time""
""fullscreenenter"",""1"",""1894""
","
","
","""event"",""trial"",""time""
""fullscreenenter"",""1"",""1894""
","
","","","","","","492.5","<p> This is just a practice round, but in the real game, your bonus payment will depend on your total number of points.","","0","instructions","","","","","","","","","","","","","",""
"learning-instructions","37","271112","0.0-8.0-0.0-0.29","1501","2","2","""event"",""trial"",""time""
""fullscreenenter"",""1"",""1894""
","
","
","""event"",""trial"",""time""
""fullscreenenter"",""1"",""1894""
","
","","","","","","398","<p> The position where each park appears will change throughout the game. </p><p> The position where the park appears <i> does not </i> influence how likely the kids are to be happy or sad. </p>","","0","instructions","","","","","","","","","","","","","",""
"learning-instructions","38","283559","0.0-8.0-0.0-0.30","1501","2","2","""event"",""trial"",""time""
""fullscreenenter"",""1"",""1894""
","
","
","""event"",""trial"",""time""
""fullscreenenter"",""1"",""1894""
","
","","","","","","435.2999999523163","<p> You will have 4 seconds to make each choice. Try to respond before time runs out! </p><p> You will lose 1 point each time you do not make a response. </p>","","0","instructions","","","","","","","","","","","","","",""
"learning-instructions","39","290816","0.0-8.0-0.0-0.31","1501","2","2","""event"",""trial"",""time""
""fullscreenenter"",""1"",""1894""
","
","
","""event"",""trial"",""time""
""fullscreenenter"",""1"",""1894""
","
","","","","","","452.60000002384186","<p> Remember, you should use the 1, 2, and 3 keys to select the park for each piece of equipment. </p><br><div class=""choice-instructions-grid""> <div class=""choice-option""><img src=""images/park1.png"" class=""choice-option-img"" stage=""instructions"" position=""0"" ><div class=""choice-option-text""> Press ""1."" </div></div><div class=""choice-option""><img src=""images/park2.png"" class=""choice-option-img"" stage=""instructions"" position=""1"" ><div class=""choice-option-text""> Press ""2."" </div></div><div class=""choice-option""><img src=""images/park3.png"" class=""choice-option-img"" stage=""instructions"" position=""2"" ><div class=""choice-option-text""> Press ""3."" </div></div></div>","","0","instructions","","","","","","","","","","","","","",""
"html-button-response","40","292740","0.0-8.0-1.0","1501","2","2","""event"",""trial"",""time""
""fullscreenenter"",""1"",""1894""
","
","
","""event"",""trial"",""time""
""fullscreenenter"",""1"",""1894""
","
","","","","","","1816.5999999046326","<p> Ready to practice? </p>","0","","","","","","","","","","","","","","","",""
"html-keyboard-response","41","293349","0.0-8.0-2.0-0.0","1501","2","2","""event"",""trial"",""time""
""fullscreenenter"",""1"",""1894""
","
","
","""event"",""trial"",""time""
""fullscreenenter"",""1"",""1894""
","
","","","","","","null","<div style=""font-size:60px;"">+</div>","null","","fixation","","","","","","","","","","","","","",""
"learning-trial","42","297352","0.0-8.0-2.0-1.0","1501","2","2","""event"",""trial"",""time""
""fullscreenenter"",""1"",""1894""
","
","
","""event"",""trial"",""time""
""fullscreenenter"",""1"",""1894""
","
","","","","","","969.9000000953674","images/ball3.png","","","practice","images/park1.png","images/park3.png","images/park2.png","[0,2,1]","0","0","1","images/park1.png","1","practice","","","",""
"html-keyboard-response","43","297871","0.0-8.0-2.0-0.1","1501","2","2","""event"",""trial"",""time""
""fullscreenenter"",""1"",""1894""
","
","
","""event"",""trial"",""time""
""fullscreenenter"",""1"",""1894""
","
","","","","","","null","<div style=""font-size:60px;"">+</div>","null","","fixation","","","","","","","","","","","","","",""
"learning-trial","44","301892","0.0-8.0-2.0-1.1","1501","2","2","""event"",""trial"",""time""
""fullscreenenter"",""1"",""1894""
","
","
","""event"",""trial"",""time""
""fullscreenenter"",""1"",""1894""
","
","","","","","","1764.1000000238419","images/ball1.png","","","practice","images/park1.png","images/park3.png","images/park2.png","[0,2,1]","2","1","1","images/park1.png","-1","practice","","","",""
"html-keyboard-response","45","302411","0.0-8.0-2.0-0.2","1501","2","2","""event"",""trial"",""time""
""fullscreenenter"",""1"",""1894""
","
","
","""event"",""trial"",""time""
""fullscreenenter"",""1"",""1894""
","
","","","","","","null","<div style=""font-size:60px;"">+</div>","null","","fixation","","","","","","","","","","","","","",""
"learning-trial","46","306426","0.0-8.0-2.0-1.2","1501","2","2","""event"",""trial"",""time""
""fullscreenenter"",""1"",""1894""
","
","
","""event"",""trial"",""time""
""fullscreenenter"",""1"",""1894""
","
","","","","","","1284.5","images/ball3.png","","","practice","images/park1.png","images/park2.png","images/park3.png","[0,1,2]","0","0","2","images/park2.png","-1","practice","","","",""
"html-keyboard-response","47","306941","0.0-8.0-2.0-0.3","1501","2","2","""event"",""trial"",""time""
""fullscreenenter"",""1"",""1894""
","
","
","""event"",""trial"",""time""
""fullscreenenter"",""1"",""1894""
","
","","","","","","null","<div style=""font-size:60px;"">+</div>","null","","fixation","","","","","","","","","","","","","",""
"learning-trial","48","310957","0.0-8.0-2.0-1.3","1501","2","2","""event"",""trial"",""time""
""fullscreenenter"",""1"",""1894""
","
","
","""event"",""trial"",""time""
""fullscreenenter"",""1"",""1894""
","
","","","","","","1059.7999999523163","images/ball4.png","","","practice","images/park1.png","images/park3.png","images/park2.png","[0,2,1]","1","2","1","images/park1.png","1","practice","","","",""
"html-keyboard-response","49","311471","0.0-8.0-2.0-0.4","1501","2","2","""event"",""trial"",""time""
""fullscreenenter"",""1"",""1894""
","
","
","""event"",""trial"",""time""
""fullscreenenter"",""1"",""1894""
","
","","","","","","null","<div style=""font-size:60px;"">+</div>","null","","fixation","","","","","","","","","","","","","",""
"learning-trial","50","315483","0.0-8.0-2.0-1.4","1501","2","2","""event"",""trial"",""time""
""fullscreenenter"",""1"",""1894""
","
","
","""event"",""trial"",""time""
""fullscreenenter"",""1"",""1894""
","
","","","","","","2362.100000023842","images/racket2.png","","","practice","images/park1.png","images/park2.png","images/park3.png","[0,1,2]","1","1","2","images/park2.png","1","practice","","","",""
"html-keyboard-response","51","315988","0.0-8.0-2.0-0.5","1501","2","2","""event"",""trial"",""time""
""fullscreenenter"",""1"",""1894""
","
","
","""event"",""trial"",""time""
""fullscreenenter"",""1"",""1894""
","
","","","","","","null","<div style=""font-size:60px;"">+</div>","null","","fixation","","","","","","","","","","","","","",""
"learning-trial","52","320004","0.0-8.0-2.0-1.5","1501","2","2","""event"",""trial"",""time""
""fullscreenenter"",""1"",""1894""
","
","
","""event"",""trial"",""time""
""fullscreenenter"",""1"",""1894""
","
","","","","","","859.1000000238419","images/racket2.png","","","practice","images/park3.png","images/park2.png","images/park1.png","[2,1,0]","1","1","2","images/park2.png","1","practice","","","",""
"html-keyboard-response","53","320513","0.0-8.0-2.0-0.6","1501","2","2","""event"",""trial"",""time""
""fullscreenenter"",""1"",""1894""
","
","
","""event"",""trial"",""time""
""fullscreenenter"",""1"",""1894""
","
","","","","","","null","<div style=""font-size:60px;"">+</div>","null","","fixation","","","","","","","","","","","","","",""
"learning-trial","54","324519","0.0-8.0-2.0-1.6","1501","2","2","""event"",""trial"",""time""
""fullscreenenter"",""1"",""1894""
","
","
","""event"",""trial"",""time""
""fullscreenenter"",""1"",""1894""
","
","","","","","","2245.7000000476837","images/racket1.png","","","practice","images/park3.png","images/park1.png","images/park2.png","[2,0,1]","2","0","3","images/park2.png","-1","practice","","","",""
"html-keyboard-response","55","325027","0.0-8.0-2.0-0.7","1501","2","2","""event"",""trial"",""time""
""fullscreenenter"",""1"",""1894""
","
","
","""event"",""trial"",""time""
""fullscreenenter"",""1"",""1894""
","
","","","","","","null","<div style=""font-size:60px;"">+</div>","null","","fixation","","","","","","","","","","","","","",""
"learning-trial","56","329039","0.0-8.0-2.0-1.7","1501","2","2","""event"",""trial"",""time""
""fullscreenenter"",""1"",""1894""
","
","
","""event"",""trial"",""time""
""fullscreenenter"",""1"",""1894""
","
","","","","","","1396.5","images/ball4.png","","","practice","images/park2.png","images/park3.png","images/park1.png","[1,2,0]","1","0","3","images/park1.png","-1","practice","","","",""
"html-keyboard-response","57","329546","0.0-8.0-2.0-0.8","1501","2","2","""event"",""trial"",""time""
""fullscreenenter"",""1"",""1894""
","
","
","""event"",""trial"",""time""
""fullscreenenter"",""1"",""1894""
","
","","","","","","null","<div style=""font-size:60px;"">+</div>","null","","fixation","","","","","","","","","","","","","",""
"learning-trial","58","333549","0.0-8.0-2.0-1.8","1501","2","2","""event"",""trial"",""time""
""fullscreenenter"",""1"",""1894""
","
","
","""event"",""trial"",""time""
""fullscreenenter"",""1"",""1894""
","
","","","","","","2109.899999976158","images/racket4.png","","","practice","images/park1.png","images/park3.png","images/park2.png","[0,2,1]","0","0","3","images/park2.png","-1","practice","","","",""
"html-keyboard-response","59","334064","0.0-8.0-2.0-0.9","1501","2","2","""event"",""trial"",""time""
""fullscreenenter"",""1"",""1894""
","
","
","""event"",""trial"",""time""
""fullscreenenter"",""1"",""1894""
","
","","","","","","null","<div style=""font-size:60px;"">+</div>","null","","fixation","","","","","","","","","","","","","",""
"learning-trial","60","338070","0.0-8.0-2.0-1.9","1501","2","2","""event"",""trial"",""time""
""fullscreenenter"",""1"",""1894""
","
","
","""event"",""trial"",""time""
""fullscreenenter"",""1"",""1894""
","
","","","","","","2280.899999976158","images/racket1.png","","","practice","images/park3.png","images/park1.png","images/park2.png","[2,0,1]","2","0","2","images/park1.png","-1","practice","","","",""
"html-keyboard-response","61","338578","0.0-8.0-2.0-0.10","1501","2","2","""event"",""trial"",""time""
""fullscreenenter"",""1"",""1894""
","
","
","""event"",""trial"",""time""
""fullscreenenter"",""1"",""1894""
","
","","","","","","null","<div style=""font-size:60px;"">+</div>","null","","fixation","","","","","","","","","","","","","",""
"learning-trial","62","342584","0.0-8.0-2.0-1.10","1501","2","2","""event"",""trial"",""time""
""fullscreenenter"",""1"",""1894""
","
","
","""event"",""trial"",""time""
""fullscreenenter"",""1"",""1894""
","
","","","","","","3035.5","images/ball1.png","","","practice","images/park2.png","images/park1.png","images/park3.png","[1,0,2]","2","2","3","images/park3.png","1","practice","","","",""
"html-keyboard-response","63","343090","0.0-8.0-2.0-0.11","1501","2","2","""event"",""trial"",""time""
""fullscreenenter"",""1"",""1894""
","
","
","""event"",""trial"",""time""
""fullscreenenter"",""1"",""1894""
","
","","","","","","null","<div style=""font-size:60px;"">+</div>","null","","fixation","","","","","","","","","","","","","",""
"learning-trial","64","347098","0.0-8.0-2.0-1.11","1501","2","2","""event"",""trial"",""time""
""fullscreenenter"",""1"",""1894""
","
","
","""event"",""trial"",""time""
""fullscreenenter"",""1"",""1894""
","
","","","","","","2248.100000023842","images/racket4.png","","","practice","images/park2.png","images/park1.png","images/park3.png","[1,0,2]","0","1","2","images/park1.png","1","practice","","","",""
"html-button-response","65","349438","0.0-8.0-3.0","1501","2","2","""event"",""trial"",""time""
""fullscreenenter"",""1"",""1894""
","
","
","""event"",""trial"",""time""
""fullscreenenter"",""1"",""1894""
","
","","","","","","2336.100000023842","<p> You earned 0 points in the practice round! </p>","0","","break","","","","","","","","","","","","","",""
"learning-instructions","66","358203","0.0-8.0-4.0-0.0","1501","2","2","""event"",""trial"",""time""
""fullscreenenter"",""1"",""1894""
","
","
","""event"",""trial"",""time""
""fullscreenenter"",""1"",""1894""
","
","","","","","","714.3999999761581","<p> It's almost time to start the real game. </p><p> Before you start, we're going to ask you a few questions about how the game works. </p>","","0","instructions","","","","","","","","","","","","","",""
"preload","67","367413","0.0-8.0-5.0","1501","2","2","""event"",""trial"",""time""
""fullscreenenter"",""1"",""1894""
","
","
","""event"",""trial"",""time""
""fullscreenenter"",""1"",""1894""
","
","true","false","[]","[]","[]","","","","","","","","","","","","","","","","","","",""
"comp-q","68","374012","0.0-8.0-6.0-0.0","1501","2","2","""event"",""trial"",""time""
""fullscreenenter"",""1"",""1894""
","
","
","""event"",""trial"",""time""
""fullscreenenter"",""1"",""1894""
","
","","","","","","1141.8999999761581","<p> <b> True or False? </b> </p><p> If you choose the best option, you will always earn 1 point. </p>","","1","comp_question","","","","","","","","","","","true","","",""
"comp-q","69","381015","0.0-8.0-6.0-1.0","1501","2","2","""event"",""trial"",""time""
""fullscreenenter"",""1"",""1894""
","
","
","""event"",""trial"",""time""
""fullscreenenter"",""1"",""1894""
","
","","","","","","1335.6000000238419","<p><b> That's right! </b> Sometimes you will lose 1 point, even if you choose the best option. </p>","","0","comp_answer","","","","","","","","","","","","","",""
"comp-q","70","386124","0.0-8.0-6.0-0.1","1501","2","2","""event"",""trial"",""time""
""fullscreenenter"",""1"",""1894""
","
","
","""event"",""trial"",""time""
""fullscreenenter"",""1"",""1894""
","
","","","","","","463.60000002384186","<p> <b> True or False? </b> </p><p> You will have as much time as you want to make each choice. </p>","","1","comp_question","","","","","","","","","","","true","","",""
"comp-q","71","391478","0.0-8.0-6.0-1.1","1501","2","2","""event"",""trial"",""time""
""fullscreenenter"",""1"",""1894""
","
","
","""event"",""trial"",""time""
""fullscreenenter"",""1"",""1894""
","
","","","","","","519","<p> <b> That's right! </b> You will only have 4 seconds to make each choice. </p>","","0","comp_answer","","","","","","","","","","","","","",""
"comp-q","72","398026","0.0-8.0-6.0-0.2","1501","2","2","""event"",""trial"",""time""
""fullscreenenter"",""1"",""1894""
","
","
","""event"",""trial"",""time""
""fullscreenenter"",""1"",""1894""
","
","","","","","","396.39999997615814","<p> <b> True or False? </b> </p><p> You should use the '1', '2', and '3' keys to make your choices. </p>","","0","comp_question","","","","","","","","","","","true","","",""
"comp-q","73","403683","0.0-8.0-6.0-1.2","1501","2","2","""event"",""trial"",""time""
""fullscreenenter"",""1"",""1894""
","
","
","""event"",""trial"",""time""
""fullscreenenter"",""1"",""1894""
","
","","","","","","812.8999999761581","<p> <b> That's right! </b> You should use the '1', '2', and '3' keys to make each choice. </p>","","0","comp_answer","","","","","","","","","","","","","",""
"learning-instructions","74","413223","0.0-8.0-7.0-0.0","1501","2","2","""event"",""trial"",""time""
""fullscreenenter"",""1"",""1894""
","
","
","""event"",""trial"",""time""
""fullscreenenter"",""1"",""1894""
","
","","","","","","1042.2999999523163","<p> It's now time to start the real game. </p>Do your best, because the points you earn in the next rounds will influence your bonus payment. </p>","","0","instructions","","","","","","","","","","","","","",""
"preload","75","427727","0.0-9.0-0.0","1501","2","2","""event"",""trial"",""time""
""fullscreenenter"",""1"",""1894""
","
","
","""event"",""trial"",""time""
""fullscreenenter"",""1"",""1894""
","
","true","false","[]","[]","[]","","","","","","","","","","","","","","","","","","",""
"learning-instructions","76","436454","0.0-9.0-1.0-0.0","1501","2","2","""event"",""trial"",""time""
""fullscreenenter"",""1"",""1894""
","
","
","""event"",""trial"",""time""
""fullscreenenter"",""1"",""1894""
","
","","","","","","1077.1000000238419","<p> Your goal in this round is to return farm animals to the barns where they live. </p><p>  Different animals wandered away from different barns! </p></div>","","0","instructions","","","","","","","","","","","","","",""
"learning-instructions","77","445607","0.0-9.0-1.0-0.1","1501","2","2","""event"",""trial"",""time""
""fullscreenenter"",""1"",""1894""
","
","
","""event"",""trial"",""time""
""fullscreenenter"",""1"",""1894""
","
","","","","","","509.40000009536743","<p> On each turn, you will see a picture of a farm animal and three different barns.  </p><p> You need to select the barn where each animal lives.  </p>","","0","instructions","","","","","","","","","","","","","",""
"learning-instructions","78","453370","0.0-9.0-1.0-0.2","1501","2","2","""event"",""trial"",""time""
""fullscreenenter"",""1"",""1894""
","
","
","""event"",""trial"",""time""
""fullscreenenter"",""1"",""1894""
","
","","","","","","562.5","<p> You can select the barn on the left by pressing 1, the barn in the middle by pressing 2, and the barn on the right by pressing 3. </p><br><div class=""choice-instructions-grid""> <div class=""choice-option""><img src=""images/animals_choice1.png"" class=""choice-option-img"" stage=""instructions"" position=""0"" ><div class=""choice-option-text""> Press ""1."" </div></div><div class=""choice-option""><img src=""images/animals_choice2.png"" class=""choice-option-img"" stage=""instructions"" position=""1"" ><div class=""choice-option-text""> Press ""2."" </div></div><div class=""choice-option""><img src=""images/animals_choice3.png"" class=""choice-option-img"" stage=""instructions"" position=""2"" ><div class=""choice-option-text""> Press ""3."" </div></div></div>","","0","instructions","","","","","","","","","","","","","",""
"learning-instructions","79","458893","0.0-9.0-1.0-0.3","1501","2","2","""event"",""trial"",""time""
""fullscreenenter"",""1"",""1894""
","
","
","""event"",""trial"",""time""
""fullscreenenter"",""1"",""1894""
","
","","","","","","374.7000000476837","<p> If you return the farm animal to the correct barn, it will usually be happy! </p><div style='float: center;'><img src='images/check.png' width = '200' height = '200'></img>","","0","instructions","","","","","","","","","","","","","",""
"learning-instructions","80","464516","0.0-9.0-1.0-0.4","1501","2","2","""event"",""trial"",""time""
""fullscreenenter"",""1"",""1894""
","
","
","""event"",""trial"",""time""
""fullscreenenter"",""1"",""1894""
","
","","","","","","308.39999997615814","<p> But, if you return the farm animal to the wrong barn, it will usually be sad. </p><div style='float: center;'><img src='images/x.png' width = '200' height = '200'></img>","","0","instructions","","","","","","","","","","","","","",""
"learning-instructions","81","475507","0.0-9.0-1.0-0.5","1501","2","2","""event"",""trial"",""time""
""fullscreenenter"",""1"",""1894""
","
","
","""event"",""trial"",""time""
""fullscreenenter"",""1"",""1894""
","
","","","","","","418.7999999523163","<p> Importantly, each farm animal belongs in one of the barns. </p><p> If you choose the correct barn, the farm animal will return home safely and will be more likely to be happy! </p>","","0","instructions","","","","","","","","","","","","","",""
"learning-instructions","82","486449","0.0-9.0-1.0-0.6","1501","2","2","""event"",""trial"",""time""
""fullscreenenter"",""1"",""1894""
","
","
","""event"",""trial"",""time""
""fullscreenenter"",""1"",""1894""
","
","","","","","","410","<p> However, even if you choose the correct barn for the farm animal, it might still feel sad. </p><p> Similarly, even if you choose the <i>wrong</i> barn, it might still feel happy.","","0","instructions","","","","","","","","","","","","","",""
"learning-instructions","83","500627","0.0-9.0-1.0-0.7","1501","2","2","""event"",""trial"",""time""
""fullscreenenter"",""1"",""1894""
","
","
","""event"",""trial"",""time""
""fullscreenenter"",""1"",""1894""
","
","","","","","","458.39999997615814","<p> Try to choose the correct barn for each farm animal, because you will <b> WIN </b> 1 point for each farm animal you make happy and <b>LOSE</b> 1 point for each farm animal you make sad. </p><p> Your bonus payment will depend on your total number of points.","","0","instructions","","","","","","","","","","","","","",""
"learning-instructions","84","510421","0.0-9.0-1.0-0.8","1501","2","2","""event"",""trial"",""time""
""fullscreenenter"",""1"",""1894""
","
","
","""event"",""trial"",""time""
""fullscreenenter"",""1"",""1894""
","
","","","","","","1673","<p> The position of each barn will change throughout the round. </p><p> The barn's position <i> does not </i> influence how likely it is to be the correct one. </p>","","0","instructions","","","","","","","","","","","","","",""
"learning-instructions","85","519981","0.0-9.0-1.0-0.9","1501","2","2","""event"",""trial"",""time""
""fullscreenenter"",""1"",""1894""
","
","
","""event"",""trial"",""time""
""fullscreenenter"",""1"",""1894""
","
","","","","","","264.10000002384186","<p> You will have 4 seconds to make each choice. Try to respond before time runs out! </p><p> You will lose 1 point each time you do not make a response. </p>","","0","instructions","","","","","","","","","","","","","",""
"html-keyboard-response","86","520605","0.0-9.0-2.0-0.0","1501","2","2","""event"",""trial"",""time""
""fullscreenenter"",""1"",""1894""
","
","
","""event"",""trial"",""time""
""fullscreenenter"",""1"",""1894""
","
","","","","","","null","<div style=""font-size:60px;"">+</div>","null","","fixation","","","","","","","","","","","","","",""
"learning-trial","87","524617","0.0-9.0-2.0-1.0","1501","2","2","""event"",""trial"",""time""
""fullscreenenter"",""1"",""1894""
","
","
","""event"",""trial"",""time""
""fullscreenenter"",""1"",""1894""
","
","","","","","","1198.2999999523163","images/horse1.png","","","learning","images/animals_choice3.png","images/animals_choice1.png","images/animals_choice2.png","[2,0,1]","1","2","1","images/animals_choice3.png","-1","animals","","horse","2","0"
"html-keyboard-response","88","525126","0.0-9.0-2.0-0.1","1501","2","2","""event"",""trial"",""time""
""fullscreenenter"",""1"",""1894""
","
","
","""event"",""trial"",""time""
""fullscreenenter"",""1"",""1894""
","
","","","","","","null","<div style=""font-size:60px;"">+</div>","null","","fixation","","","","","","","","","","","","","",""
"learning-trial","89","529138","0.0-9.0-2.0-1.1","1501","2","2","""event"",""trial"",""time""
""fullscreenenter"",""1"",""1894""
","
","
","""event"",""trial"",""time""
""fullscreenenter"",""1"",""1894""
","
","","","","","","1171.8000000715256","images/sheep1.png","","","learning","images/animals_choice1.png","images/animals_choice2.png","images/animals_choice3.png","[0,1,2]","2","2","2","images/animals_choice2.png","-1","animals","","sheep","2","0"
"html-keyboard-response","90","529646","0.0-9.0-2.0-0.2","1501","2","2","""event"",""trial"",""time""
""fullscreenenter"",""1"",""1894""
","
","
","""event"",""trial"",""time""
""fullscreenenter"",""1"",""1894""
","
","","","","","","null","<div style=""font-size:60px;"">+</div>","null","","fixation","","","","","","","","","","","","","",""
"learning-trial","91","533660","0.0-9.0-2.0-1.2","1501","2","2","""event"",""trial"",""time""
""fullscreenenter"",""1"",""1894""
","
","
","""event"",""trial"",""time""
""fullscreenenter"",""1"",""1894""
","
","","","","","","1232.5","images/goat3.png","","","learning","images/animals_choice2.png","images/animals_choice1.png","images/animals_choice3.png","[1,0,2]","1","0","3","images/animals_choice3.png","-1","animals","","goat","2","0"
"html-keyboard-response","92","534177","0.0-9.0-2.0-0.3","1501","2","2","""event"",""trial"",""time""
""fullscreenenter"",""1"",""1894""
","
","
","""event"",""trial"",""time""
""fullscreenenter"",""1"",""1894""
","
","","","","","","null","<div style=""font-size:60px;"">+</div>","null","","fixation","","","","","","","","","","","","","",""
"learning-trial","93","538188","0.0-9.0-2.0-1.3","1501","2","2","""event"",""trial"",""time""
""fullscreenenter"",""1"",""1894""
","
","
","""event"",""trial"",""time""
""fullscreenenter"",""1"",""1894""
","
","","","","","","1747.2999999523163","images/horse1.png","","","learning","images/animals_choice1.png","images/animals_choice2.png","images/animals_choice3.png","[0,1,2]","1","1","1","images/animals_choice1.png","-1","animals","","horse","2","0"
"html-keyboard-response","94","538696","0.0-9.0-2.0-0.4","1501","2","2","""event"",""trial"",""time""
""fullscreenenter"",""1"",""1894""
","
","
","""event"",""trial"",""time""
""fullscreenenter"",""1"",""1894""
","
","","","","","","null","<div style=""font-size:60px;"">+</div>","null","","fixation","","","","","","","","","","","","","",""
"learning-trial","95","542706","0.0-9.0-2.0-1.4","1501","2","2","""event"",""trial"",""time""
""fullscreenenter"",""1"",""1894""
","
","
","""event"",""trial"",""time""
""fullscreenenter"",""1"",""1894""
","
","","","","","","1276.2000000476837","images/goat2.png","","","learning","images/animals_choice1.png","images/animals_choice3.png","images/animals_choice2.png","[0,2,1]","2","1","2","images/animals_choice3.png","1","animals","","goat","2","0"
"html-keyboard-response","96","543226","0.0-9.0-2.0-0.5","1501","2","2","""event"",""trial"",""time""
""fullscreenenter"",""1"",""1894""
","
","
","""event"",""trial"",""time""
""fullscreenenter"",""1"",""1894""
","
","","","","","","null","<div style=""font-size:60px;"">+</div>","null","","fixation","","","","","","","","","","","","","",""
"learning-trial","97","547237","0.0-9.0-2.0-1.5","1501","2","2","""event"",""trial"",""time""
""fullscreenenter"",""1"",""1894""
","
","
","""event"",""trial"",""time""
""fullscreenenter"",""1"",""1894""
","
","","","","","","2547.0999999046326","images/sheep2.png","","","learning","images/animals_choice1.png","images/animals_choice3.png","images/animals_choice2.png","[0,2,1]","0","0","2","images/animals_choice3.png","-1","animals","","sheep","2","0"
"html-keyboard-response","98","547752","0.0-9.0-2.0-0.6","1501","2","2","""event"",""trial"",""time""
""fullscreenenter"",""1"",""1894""
","
","
","""event"",""trial"",""time""
""fullscreenenter"",""1"",""1894""
","
","","","","","","null","<div style=""font-size:60px;"">+</div>","null","","fixation","","","","","","","","","","","","","",""
"learning-trial","99","551763","0.0-9.0-2.0-1.6","1501","2","2","""event"",""trial"",""time""
""fullscreenenter"",""1"",""1894""
","
","
","""event"",""trial"",""time""
""fullscreenenter"",""1"",""1894""
","
","","","","","","2363.600000023842","images/sheep2.png","","","learning","images/animals_choice1.png","images/animals_choice2.png","images/animals_choice3.png","[0,1,2]","0","0","1","images/animals_choice1.png","1","animals","","sheep","2","0"
"html-keyboard-response","100","552272","0.0-9.0-2.0-0.7","1501","2","2","""event"",""trial"",""time""
""fullscreenenter"",""1"",""1894""
","
","
","""event"",""trial"",""time""
""fullscreenenter"",""1"",""1894""
","
","","","","","","null","<div style=""font-size:60px;"">+</div>","null","","fixation","","","","","","","","","","","","","",""
"learning-trial","101","556281","0.0-9.0-2.0-1.7","1501","2","2","""event"",""trial"",""time""
""fullscreenenter"",""1"",""1894""
","
","
","""event"",""trial"",""time""
""fullscreenenter"",""1"",""1894""
","
","","","","","","1944.3999999761581","images/sheep4.png","","","learning","images/animals_choice1.png","images/animals_choice2.png","images/animals_choice3.png","[0,1,2]","1","1","2","images/animals_choice2.png","1","animals","","sheep","2","0"
"html-keyboard-response","102","556790","0.0-9.0-2.0-0.8","1501","2","2","""event"",""trial"",""time""
""fullscreenenter"",""1"",""1894""
","
","
","""event"",""trial"",""time""
""fullscreenenter"",""1"",""1894""
","
","","","","","","null","<div style=""font-size:60px;"">+</div>","null","","fixation","","","","","","","","","","","","","",""
"learning-trial","103","560799","0.0-9.0-2.0-1.8","1501","2","2","""event"",""trial"",""time""
""fullscreenenter"",""1"",""1894""
","
","
","""event"",""trial"",""time""
""fullscreenenter"",""1"",""1894""
","
","","","","","","1757.8999999761581","images/horse3.png","","","learning","images/animals_choice3.png","images/animals_choice1.png","images/animals_choice2.png","[2,0,1]","2","0","1","images/animals_choice3.png","1","animals","","horse","2","0"
"html-keyboard-response","104","561303","0.0-9.0-2.0-0.9","1501","2","2","""event"",""trial"",""time""
""fullscreenenter"",""1"",""1894""
","
","
","""event"",""trial"",""time""
""fullscreenenter"",""1"",""1894""
","
","","","","","","null","<div style=""font-size:60px;"">+</div>","null","","fixation","","","","","","","","","","","","","",""
"learning-trial","105","565311","0.0-9.0-2.0-1.9","1501","2","2","""event"",""trial"",""time""
""fullscreenenter"",""1"",""1894""
","
","
","""event"",""trial"",""time""
""fullscreenenter"",""1"",""1894""
","
","","","","","","2713.5","images/sheep1.png","","","learning","images/animals_choice1.png","images/animals_choice3.png","images/animals_choice2.png","[0,2,1]","2","1","1","images/animals_choice1.png","-1","animals","","sheep","2","0"
"html-keyboard-response","106","565820","0.0-9.0-2.0-0.10","1501","2","2","""event"",""trial"",""time""
""fullscreenenter"",""1"",""1894""
","
","
","""event"",""trial"",""time""
""fullscreenenter"",""1"",""1894""
","
","","","","","","null","<div style=""font-size:60px;"">+</div>","null","","fixation","","","","","","","","","","","","","",""
"learning-trial","107","569831","0.0-9.0-2.0-1.10","1501","2","2","""event"",""trial"",""time""
""fullscreenenter"",""1"",""1894""
","
","
","""event"",""trial"",""time""
""fullscreenenter"",""1"",""1894""
","
","","","","","","2317","images/horse1.png","","","learning","images/animals_choice3.png","images/animals_choice2.png","images/animals_choice1.png","[2,1,0]","1","1","3","images/animals_choice1.png","-1","animals","","horse","2","0"
"html-keyboard-response","108","570333","0.0-9.0-2.0-0.11","1501","2","2","""event"",""trial"",""time""
""fullscreenenter"",""1"",""1894""
","
","
","""event"",""trial"",""time""
""fullscreenenter"",""1"",""1894""
","
","","","","","","null","<div style=""font-size:60px;"">+</div>","null","","fixation","","","","","","","","","","","","","",""
"learning-trial","109","574345","0.0-9.0-2.0-1.11","1501","2","2","""event"",""trial"",""time""
""fullscreenenter"",""1"",""1894""
","
","
","""event"",""trial"",""time""
""fullscreenenter"",""1"",""1894""
","
","","","","","","1534.7999999523163","images/horse1.png","","","learning","images/animals_choice1.png","images/animals_choice3.png","images/animals_choice2.png","[0,2,1]","1","2","3","images/animals_choice2.png","1","animals","","horse","2","0"
"html-keyboard-response","110","574850","0.0-9.0-2.0-0.12","1501","2","2","""event"",""trial"",""time""
""fullscreenenter"",""1"",""1894""
","
","
","""event"",""trial"",""time""
""fullscreenenter"",""1"",""1894""
","
","","","","","","null","<div style=""font-size:60px;"">+</div>","null","","fixation","","","","","","","","","","","","","",""
"learning-trial","111","578869","0.0-9.0-2.0-1.12","1501","2","2","""event"",""trial"",""time""
""fullscreenenter"",""1"",""1894""
","
","
","""event"",""trial"",""time""
""fullscreenenter"",""1"",""1894""
","
","","","","","","1099.5","images/horse1.png","","","learning","images/animals_choice2.png","images/animals_choice1.png","images/animals_choice3.png","[1,0,2]","1","0","1","images/animals_choice2.png","1","animals","","horse","2","0"
"html-keyboard-response","112","579381","0.0-9.0-2.0-0.13","1501","2","2","""event"",""trial"",""time""
""fullscreenenter"",""1"",""1894""
","
","
","""event"",""trial"",""time""
""fullscreenenter"",""1"",""1894""
","
","","","","","","null","<div style=""font-size:60px;"">+</div>","null","","fixation","","","","","","","","","","","","","",""
"learning-trial","113","583396","0.0-9.0-2.0-1.13","1501","2","2","""event"",""trial"",""time""
""fullscreenenter"",""1"",""1894""
","
","
","""event"",""trial"",""time""
""fullscreenenter"",""1"",""1894""
","
","","","","","","1930.8000000715256","images/horse5.png","","","learning","images/animals_choice1.png","images/animals_choice2.png","images/animals_choice3.png","[0,1,2]","0","0","1","images/animals_choice1.png","1","animals","","horse","2","0"
"html-keyboard-response","114","583899","0.0-9.0-2.0-0.14","1501","2","2","""event"",""trial"",""time""
""fullscreenenter"",""1"",""1894""
","
","
","""event"",""trial"",""time""
""fullscreenenter"",""1"",""1894""
","
","","","","","","null","<div style=""font-size:60px;"">+</div>","null","","fixation","","","","","","","","","","","","","",""
"learning-trial","115","587904","0.0-9.0-2.0-1.14","1501","2","2","""event"",""trial"",""time""
""fullscreenenter"",""1"",""1894""
","
","
","""event"",""trial"",""time""
""fullscreenenter"",""1"",""1894""
","
","","","","","","null","images/horse3.png","","","learning","images/animals_choice1.png","images/animals_choice2.png","images/animals_choice3.png","[0,1,2]","2","2","null","null","-1","animals","","horse","2","0"
"html-keyboard-response","116","588416","0.0-9.0-2.0-0.15","1501","2","2","""event"",""trial"",""time""
""fullscreenenter"",""1"",""1894""
","
","
","""event"",""trial"",""time""
""fullscreenenter"",""1"",""1894""
","
","","","","","","null","<div style=""font-size:60px;"">+</div>","null","","fixation","","","","","","","","","","","","","",""
"learning-trial","117","592425","0.0-9.0-2.0-1.15","1501","2","2","""event"",""trial"",""time""
""fullscreenenter"",""1"",""1894""
","
","
","""event"",""trial"",""time""
""fullscreenenter"",""1"",""1894""
","
","","","","","","1619.1999999284744","images/sheep1.png","","","learning","images/animals_choice3.png","images/animals_choice1.png","images/animals_choice2.png","[2,0,1]","2","0","3","images/animals_choice2.png","-1","animals","","sheep","2","0"
"html-keyboard-response","118","592942","0.0-9.0-2.0-0.16","1501","2","2","""event"",""trial"",""time""
""fullscreenenter"",""1"",""1894""
","
","
","""event"",""trial"",""time""
""fullscreenenter"",""1"",""1894""
","
","","","","","","null","<div style=""font-size:60px;"">+</div>","null","","fixation","","","","","","","","","","","","","",""
"learning-trial","119","596948","0.0-9.0-2.0-1.16","1501","2","2","""event"",""trial"",""time""
""fullscreenenter"",""1"",""1894""
","
","
","""event"",""trial"",""time""
""fullscreenenter"",""1"",""1894""
","
","","","","","","2276.2999999523163","images/horse5.png","","","learning","images/animals_choice2.png","images/animals_choice1.png","images/animals_choice3.png","[1,0,2]","0","1","3","images/animals_choice3.png","-1","animals","","horse","2","0"
"html-keyboard-response","120","597453","0.0-9.0-2.0-0.17","1501","2","2","""event"",""trial"",""time""
""fullscreenenter"",""1"",""1894""
","
","
","""event"",""trial"",""time""
""fullscreenenter"",""1"",""1894""
","
","","","","","","null","<div style=""font-size:60px;"">+</div>","null","","fixation","","","","","","","","","","","","","",""
"learning-trial","121","601463","0.0-9.0-2.0-1.17","1501","2","2","""event"",""trial"",""time""
""fullscreenenter"",""1"",""1894""
","
","
","""event"",""trial"",""time""
""fullscreenenter"",""1"",""1894""
","
","","","","","","1324.8000000715256","images/goat5.png","","","learning","images/animals_choice1.png","images/animals_choice3.png","images/animals_choice2.png","[0,2,1]","0","0","3","images/animals_choice2.png","1","animals","","goat","2","0"
"html-keyboard-response","122","601970","0.0-9.0-2.0-0.18","1501","2","2","""event"",""trial"",""time""
""fullscreenenter"",""1"",""1894""
","
","
","""event"",""trial"",""time""
""fullscreenenter"",""1"",""1894""
","
","","","","","","null","<div style=""font-size:60px;"">+</div>","null","","fixation","","","","","","","","","","","","","",""
"learning-trial","123","605981","0.0-9.0-2.0-1.18","1501","2","2","""event"",""trial"",""time""
""fullscreenenter"",""1"",""1894""
","
","
","""event"",""trial"",""time""
""fullscreenenter"",""1"",""1894""
","
","","","","","","1779","images/horse3.png","","","learning","images/animals_choice1.png","images/animals_choice3.png","images/animals_choice2.png","[0,2,1]","2","1","2","images/animals_choice3.png","1","animals","","horse","2","0"
"html-keyboard-response","124","606491","0.0-9.0-2.0-0.19","1501","2","2","""event"",""trial"",""time""
""fullscreenenter"",""1"",""1894""
","
","
","""event"",""trial"",""time""
""fullscreenenter"",""1"",""1894""
","
","","","","","","null","<div style=""font-size:60px;"">+</div>","null","","fixation","","","","","","","","","","","","","",""
"learning-trial","125","610497","0.0-9.0-2.0-1.19","1501","2","2","""event"",""trial"",""time""
""fullscreenenter"",""1"",""1894""
","
","
","""event"",""trial"",""time""
""fullscreenenter"",""1"",""1894""
","
","","","","","","1684.1000000238419","images/goat2.png","","","learning","images/animals_choice2.png","images/animals_choice3.png","images/animals_choice1.png","[1,2,0]","2","1","1","images/animals_choice2.png","1","animals","","goat","2","0"
"html-keyboard-response","126","611005","0.0-9.0-2.0-0.20","1501","2","2","""event"",""trial"",""time""
""fullscreenenter"",""1"",""1894""
","
","
","""event"",""trial"",""time""
""fullscreenenter"",""1"",""1894""
","
","","","","","","null","<div style=""font-size:60px;"">+</div>","null","","fixation","","","","","","","","","","","","","",""
"learning-trial","127","615011","0.0-9.0-2.0-1.20","1501","2","2","""event"",""trial"",""time""
""fullscreenenter"",""1"",""1894""
","
","
","""event"",""trial"",""time""
""fullscreenenter"",""1"",""1894""
","
","","","","","","1557.2000000476837","images/goat3.png","","","learning","images/animals_choice3.png","images/animals_choice2.png","images/animals_choice1.png","[2,1,0]","1","1","3","images/animals_choice1.png","-1","animals","","goat","2","0"
"html-keyboard-response","128","615516","0.0-9.0-2.0-0.21","1501","2","2","""event"",""trial"",""time""
""fullscreenenter"",""1"",""1894""
","
","
","""event"",""trial"",""time""
""fullscreenenter"",""1"",""1894""
","
","","","","","","null","<div style=""font-size:60px;"">+</div>","null","","fixation","","","","","","","","","","","","","",""
"learning-trial","129","619527","0.0-9.0-2.0-1.21","1501","2","2","""event"",""trial"",""time""
""fullscreenenter"",""1"",""1894""
","
","
","""event"",""trial"",""time""
""fullscreenenter"",""1"",""1894""
","
","","","","","","1756.8999999761581","images/goat3.png","","","learning","images/animals_choice2.png","images/animals_choice3.png","images/animals_choice1.png","[1,2,0]","1","0","2","images/animals_choice3.png","-1","animals","","goat","2","0"
"html-keyboard-response","130","620034","0.0-9.0-2.0-0.22","1501","2","2","""event"",""trial"",""time""
""fullscreenenter"",""1"",""1894""
","
","
","""event"",""trial"",""time""
""fullscreenenter"",""1"",""1894""
","
","","","","","","null","<div style=""font-size:60px;"">+</div>","null","","fixation","","","","","","","","","","","","","",""
"learning-trial","131","624039","0.0-9.0-2.0-1.22","1501","2","2","""event"",""trial"",""time""
""fullscreenenter"",""1"",""1894""
","
","
","""event"",""trial"",""time""
""fullscreenenter"",""1"",""1894""
","
","","","","","","809.5","images/goat3.png","","","learning","images/animals_choice2.png","images/animals_choice3.png","images/animals_choice1.png","[1,2,0]","1","0","3","images/animals_choice1.png","-1","animals","","goat","2","0"
"html-keyboard-response","132","624543","0.0-9.0-2.0-0.23","1501","2","2","""event"",""trial"",""time""
""fullscreenenter"",""1"",""1894""
","
","
","""event"",""trial"",""time""
""fullscreenenter"",""1"",""1894""
","
","","","","","","null","<div style=""font-size:60px;"">+</div>","null","","fixation","","","","","","","","","","","","","",""
"learning-trial","133","628553","0.0-9.0-2.0-1.23","1501","2","2","""event"",""trial"",""time""
""fullscreenenter"",""1"",""1894""
","
","
","""event"",""trial"",""time""
""fullscreenenter"",""1"",""1894""
","
","","","","","","1958.6999999284744","images/horse3.png","","","learning","images/animals_choice2.png","images/animals_choice3.png","images/animals_choice1.png","[1,2,0]","2","1","2","images/animals_choice3.png","1","animals","","horse","2","0"
"html-keyboard-response","134","629059","0.0-9.0-2.0-0.24","1501","2","2","""event"",""trial"",""time""
""fullscreenenter"",""1"",""1894""
","
","
","""event"",""trial"",""time""
""fullscreenenter"",""1"",""1894""
","
","","","","","","null","<div style=""font-size:60px;"">+</div>","null","","fixation","","","","","","","","","","","","","",""
"learning-trial","135","633069","0.0-9.0-2.0-1.24","1501","2","2","""event"",""trial"",""time""
""fullscreenenter"",""1"",""1894""
","
","
","""event"",""trial"",""time""
""fullscreenenter"",""1"",""1894""
","
","","","","","","703.1000000238419","images/horse3.png","","","learning","images/animals_choice1.png","images/animals_choice3.png","images/animals_choice2.png","[0,2,1]","2","1","2","images/animals_choice3.png","1","animals","","horse","2","0"
"html-keyboard-response","136","633572","0.0-9.0-2.0-0.25","1501","2","2","""event"",""trial"",""time""
""fullscreenenter"",""1"",""1894""
","
","
","""event"",""trial"",""time""
""fullscreenenter"",""1"",""1894""
","
","","","","","","null","<div style=""font-size:60px;"">+</div>","null","","fixation","","","","","","","","","","","","","",""
"learning-trial","137","637580","0.0-9.0-2.0-1.25","1501","2","2","""event"",""trial"",""time""
""fullscreenenter"",""1"",""1894""
","
","
","""event"",""trial"",""time""
""fullscreenenter"",""1"",""1894""
","
","","","","","","2506.7999999523163","images/horse5.png","","","learning","images/animals_choice3.png","images/animals_choice1.png","images/animals_choice2.png","[2,0,1]","0","1","3","images/animals_choice2.png","-1","animals","","horse","2","0"
"html-keyboard-response","138","638089","0.0-9.0-2.0-0.26","1501","2","2","""event"",""trial"",""time""
""fullscreenenter"",""1"",""1894""
","
","
","""event"",""trial"",""time""
""fullscreenenter"",""1"",""1894""
","
","","","","","","null","<div style=""font-size:60px;"">+</div>","null","","fixation","","","","","","","","","","","","","",""
"learning-trial","139","642101","0.0-9.0-2.0-1.26","1501","2","2","""event"",""trial"",""time""
""fullscreenenter"",""1"",""1894""
","
","
","""event"",""trial"",""time""
""fullscreenenter"",""1"",""1894""
","
","","","","","","1092","images/goat2.png","","","learning","images/animals_choice1.png","images/animals_choice3.png","images/animals_choice2.png","[0,2,1]","2","1","3","images/animals_choice2.png","-1","animals","","goat","2","0"
"html-keyboard-response","140","642610","0.0-9.0-2.0-0.27","1501","2","2","""event"",""trial"",""time""
""fullscreenenter"",""1"",""1894""
","
","
","""event"",""trial"",""time""
""fullscreenenter"",""1"",""1894""
","
","","","","","","null","<div style=""font-size:60px;"">+</div>","null","","fixation","","","","","","","","","","","","","",""
"learning-trial","141","646615","0.0-9.0-2.0-1.27","1501","2","2","""event"",""trial"",""time""
""fullscreenenter"",""1"",""1894""
","
","
","""event"",""trial"",""time""
""fullscreenenter"",""1"",""1894""
","
","","","","","","1291.1000000238419","images/sheep2.png","","","learning","images/animals_choice1.png","images/animals_choice3.png","images/animals_choice2.png","[0,2,1]","0","0","3","images/animals_choice2.png","-1","animals","","sheep","2","0"
"html-keyboard-response","142","647119","0.0-9.0-2.0-0.28","1501","2","2","""event"",""trial"",""time""
""fullscreenenter"",""1"",""1894""
","
","
","""event"",""trial"",""time""
""fullscreenenter"",""1"",""1894""
","
","","","","","","null","<div style=""font-size:60px;"">+</div>","null","","fixation","","","","","","","","","","","","","",""
"learning-trial","143","651122","0.0-9.0-2.0-1.28","1501","2","2","""event"",""trial"",""time""
""fullscreenenter"",""1"",""1894""
","
","
","""event"",""trial"",""time""
""fullscreenenter"",""1"",""1894""
","
","","","","","","1141","images/goat2.png","","","learning","images/animals_choice3.png","images/animals_choice1.png","images/animals_choice2.png","[2,0,1]","2","0","3","images/animals_choice2.png","-1","animals","","goat","2","0"
"html-keyboard-response","144","651624","0.0-9.0-2.0-0.29","1501","2","2","""event"",""trial"",""time""
""fullscreenenter"",""1"",""1894""
","
","
","""event"",""trial"",""time""
""fullscreenenter"",""1"",""1894""
","
","","","","","","null","<div style=""font-size:60px;"">+</div>","null","","fixation","","","","","","","","","","","","","",""
"learning-trial","145","655629","0.0-9.0-2.0-1.29","1501","2","2","""event"",""trial"",""time""
""fullscreenenter"",""1"",""1894""
","
","
","""event"",""trial"",""time""
""fullscreenenter"",""1"",""1894""
","
","","","","","","1506.1000000238419","images/sheep2.png","","","learning","images/animals_choice2.png","images/animals_choice3.png","images/animals_choice1.png","[1,2,0]","0","2","2","images/animals_choice3.png","-1","animals","","sheep","2","0"
"html-keyboard-response","146","656138","0.0-9.0-2.0-0.30","1501","2","2","""event"",""trial"",""time""
""fullscreenenter"",""1"",""1894""
","
","
","""event"",""trial"",""time""
""fullscreenenter"",""1"",""1894""
","
","","","","","","null","<div style=""font-size:60px;"">+</div>","null","","fixation","","","","","","","","","","","","","",""
"learning-trial","147","660149","0.0-9.0-2.0-1.30","1501","2","2","""event"",""trial"",""time""
""fullscreenenter"",""1"",""1894""
","
","
","""event"",""trial"",""time""
""fullscreenenter"",""1"",""1894""
","
","","","","","","1079.1000000238419","images/goat5.png","","","learning","images/animals_choice2.png","images/animals_choice3.png","images/animals_choice1.png","[1,2,0]","0","2","2","images/animals_choice3.png","1","animals","","goat","2","0"
"html-keyboard-response","148","660660","0.0-9.0-2.0-0.31","1501","2","2","""event"",""trial"",""time""
""fullscreenenter"",""1"",""1894""
","
","
","""event"",""trial"",""time""
""fullscreenenter"",""1"",""1894""
","
","","","","","","null","<div style=""font-size:60px;"">+</div>","null","","fixation","","","","","","","","","","","","","",""
"learning-trial","149","664669","0.0-9.0-2.0-1.31","1501","2","2","""event"",""trial"",""time""
""fullscreenenter"",""1"",""1894""
","
","
","""event"",""trial"",""time""
""fullscreenenter"",""1"",""1894""
","
","","","","","","843.1000000238419","images/goat5.png","","","learning","images/animals_choice2.png","images/animals_choice1.png","images/animals_choice3.png","[1,0,2]","0","1","3","images/animals_choice3.png","-1","animals","","goat","2","0"
"html-keyboard-response","150","665179","0.0-9.0-2.0-0.32","1501","2","2","""event"",""trial"",""time""
""fullscreenenter"",""1"",""1894""
","
","
","""event"",""trial"",""time""
""fullscreenenter"",""1"",""1894""
","
","","","","","","null","<div style=""font-size:60px;"">+</div>","null","","fixation","","","","","","","","","","","","","",""
"learning-trial","151","669191","0.0-9.0-2.0-1.32","1501","2","2","""event"",""trial"",""time""
""fullscreenenter"",""1"",""1894""
","
","
","""event"",""trial"",""time""
""fullscreenenter"",""1"",""1894""
","
","","","","","","1466.7999999523163","images/sheep1.png","","","learning","images/animals_choice1.png","images/animals_choice3.png","images/animals_choice2.png","[0,2,1]","2","1","1","images/animals_choice1.png","-1","animals","","sheep","2","0"
"html-keyboard-response","152","669696","0.0-9.0-2.0-0.33","1501","2","2","""event"",""trial"",""time""
""fullscreenenter"",""1"",""1894""
","
","
","""event"",""trial"",""time""
""fullscreenenter"",""1"",""1894""
","
","","","","","","null","<div style=""font-size:60px;"">+</div>","null","","fixation","","","","","","","","","","","","","",""
"learning-trial","153","673703","0.0-9.0-2.0-1.33","1501","2","2","""event"",""trial"",""time""
""fullscreenenter"",""1"",""1894""
","
","
","""event"",""trial"",""time""
""fullscreenenter"",""1"",""1894""
","
","","","","","","1910.5","images/sheep1.png","","","learning","images/animals_choice3.png","images/animals_choice2.png","images/animals_choice1.png","[2,1,0]","2","0","1","images/animals_choice3.png","1","animals","","sheep","2","0"
"html-keyboard-response","154","674210","0.0-9.0-2.0-0.34","1501","2","2","""event"",""trial"",""time""
""fullscreenenter"",""1"",""1894""
","
","
","""event"",""trial"",""time""
""fullscreenenter"",""1"",""1894""
","
","","","","","","null","<div style=""font-size:60px;"">+</div>","null","","fixation","","","","","","","","","","","","","",""
"learning-trial","155","678222","0.0-9.0-2.0-1.34","1501","2","2","""event"",""trial"",""time""
""fullscreenenter"",""1"",""1894""
","
","
","""event"",""trial"",""time""
""fullscreenenter"",""1"",""1894""
","
","","","","","","1808.3000000715256","images/horse5.png","","","learning","images/animals_choice2.png","images/animals_choice1.png","images/animals_choice3.png","[1,0,2]","0","1","1","images/animals_choice2.png","-1","animals","","horse","2","0"
"html-keyboard-response","156","678729","0.0-9.0-2.0-0.35","1501","2","2","""event"",""trial"",""time""
""fullscreenenter"",""1"",""1894""
","
","
","""event"",""trial"",""time""
""fullscreenenter"",""1"",""1894""
","
","","","","","","null","<div style=""font-size:60px;"">+</div>","null","","fixation","","","","","","","","","","","","","",""
"learning-trial","157","682738","0.0-9.0-2.0-1.35","1501","2","2","""event"",""trial"",""time""
""fullscreenenter"",""1"",""1894""
","
","
","""event"",""trial"",""time""
""fullscreenenter"",""1"",""1894""
","
","","","","","","1936.0999999046326","images/horse3.png","","","learning","images/animals_choice2.png","images/animals_choice3.png","images/animals_choice1.png","[1,2,0]","2","1","2","images/animals_choice3.png","1","animals","","horse","2","0"
"html-keyboard-response","158","683252","0.0-9.0-2.0-0.36","1501","2","2","""event"",""trial"",""time""
""fullscreenenter"",""1"",""1894""
","
","
","""event"",""trial"",""time""
""fullscreenenter"",""1"",""1894""
","
","","","","","","null","<div style=""font-size:60px;"">+</div>","null","","fixation","","","","","","","","","","","","","",""
"learning-trial","159","687259","0.0-9.0-2.0-1.36","1501","2","2","""event"",""trial"",""time""
""fullscreenenter"",""1"",""1894""
","
","
","""event"",""trial"",""time""
""fullscreenenter"",""1"",""1894""
","
","","","","","","1450","images/goat3.png","","","learning","images/animals_choice3.png","images/animals_choice2.png","images/animals_choice1.png","[2,1,0]","1","1","2","images/animals_choice2.png","1","animals","","goat","2","0"
"html-keyboard-response","160","687769","0.0-9.0-2.0-0.37","1501","2","2","""event"",""trial"",""time""
""fullscreenenter"",""1"",""1894""
","
","
","""event"",""trial"",""time""
""fullscreenenter"",""1"",""1894""
","
","","","","","","null","<div style=""font-size:60px;"">+</div>","null","","fixation","","","","","","","","","","","","","",""
"learning-trial","161","691778","0.0-9.0-2.0-1.37","1501","2","2","""event"",""trial"",""time""
""fullscreenenter"",""1"",""1894""
","
","
","""event"",""trial"",""time""
""fullscreenenter"",""1"",""1894""
","
","","","","","","1442.2000000476837","images/horse3.png","","","learning","images/animals_choice3.png","images/animals_choice1.png","images/animals_choice2.png","[2,0,1]","2","0","1","images/animals_choice3.png","1","animals","","horse","2","0"
"html-keyboard-response","162","692289","0.0-9.0-2.0-0.38","1501","2","2","""event"",""trial"",""time""
""fullscreenenter"",""1"",""1894""
","
","
","""event"",""trial"",""time""
""fullscreenenter"",""1"",""1894""
","
","","","","","","null","<div style=""font-size:60px;"">+</div>","null","","fixation","","","","","","","","","","","","","",""
"learning-trial","163","696296","0.0-9.0-2.0-1.38","1501","2","2","""event"",""trial"",""time""
""fullscreenenter"",""1"",""1894""
","
","
","""event"",""trial"",""time""
""fullscreenenter"",""1"",""1894""
","
","","","","","","860.6000000238419","images/goat5.png","","","learning","images/animals_choice1.png","images/animals_choice3.png","images/animals_choice2.png","[0,2,1]","0","0","2","images/animals_choice3.png","-1","animals","","goat","2","0"
"html-keyboard-response","164","696799","0.0-9.0-2.0-0.39","1501","2","2","""event"",""trial"",""time""
""fullscreenenter"",""1"",""1894""
","
","
","""event"",""trial"",""time""
""fullscreenenter"",""1"",""1894""
","
","","","","","","null","<div style=""font-size:60px;"">+</div>","null","","fixation","","","","","","","","","","","","","",""
"learning-trial","165","700806","0.0-9.0-2.0-1.39","1501","2","2","""event"",""trial"",""time""
""fullscreenenter"",""1"",""1894""
","
","
","""event"",""trial"",""time""
""fullscreenenter"",""1"",""1894""
","
","","","","","","2114.399999976158","images/horse5.png","","","learning","images/animals_choice2.png","images/animals_choice1.png","images/animals_choice3.png","[1,0,2]","0","1","1","images/animals_choice2.png","1","animals","","horse","2","0"
"html-keyboard-response","166","701313","0.0-9.0-2.0-0.40","1501","2","2","""event"",""trial"",""time""
""fullscreenenter"",""1"",""1894""
","
","
","""event"",""trial"",""time""
""fullscreenenter"",""1"",""1894""
","
","","","","","","null","<div style=""font-size:60px;"">+</div>","null","","fixation","","","","","","","","","","","","","",""
"learning-trial","167","705321","0.0-9.0-2.0-1.40","1501","2","2","""event"",""trial"",""time""
""fullscreenenter"",""1"",""1894""
","
","
","""event"",""trial"",""time""
""fullscreenenter"",""1"",""1894""
","
","","","","","","1041.8999999761581","images/horse5.png","","","learning","images/animals_choice1.png","images/animals_choice2.png","images/animals_choice3.png","[0,1,2]","0","0","2","images/animals_choice2.png","-1","animals","","horse","2","0"
"html-keyboard-response","168","705829","0.0-9.0-2.0-0.41","1501","2","2","""event"",""trial"",""time""
""fullscreenenter"",""1"",""1894""
","
","
","""event"",""trial"",""time""
""fullscreenenter"",""1"",""1894""
","
","","","","","","null","<div style=""font-size:60px;"">+</div>","null","","fixation","","","","","","","","","","","","","",""
"learning-trial","169","709843","0.0-9.0-2.0-1.41","1501","2","2","""event"",""trial"",""time""
""fullscreenenter"",""1"",""1894""
","
","
","""event"",""trial"",""time""
""fullscreenenter"",""1"",""1894""
","
","","","","","","1071.5","images/sheep2.png","","","learning","images/animals_choice1.png","images/animals_choice2.png","images/animals_choice3.png","[0,1,2]","0","0","2","images/animals_choice2.png","-1","animals","","sheep","2","0"
"html-keyboard-response","170","710349","0.0-9.0-2.0-0.42","1501","2","2","""event"",""trial"",""time""
""fullscreenenter"",""1"",""1894""
","
","
","""event"",""trial"",""time""
""fullscreenenter"",""1"",""1894""
","
","","","","","","null","<div style=""font-size:60px;"">+</div>","null","","fixation","","","","","","","","","","","","","",""
"learning-trial","171","714360","0.0-9.0-2.0-1.42","1501","2","2","""event"",""trial"",""time""
""fullscreenenter"",""1"",""1894""
","
","
","""event"",""trial"",""time""
""fullscreenenter"",""1"",""1894""
","
","","","","","","893","images/goat5.png","","","learning","images/animals_choice3.png","images/animals_choice2.png","images/animals_choice1.png","[2,1,0]","0","2","1","images/animals_choice3.png","-1","animals","","goat","2","0"
"html-keyboard-response","172","714874","0.0-9.0-2.0-0.43","1501","2","2","""event"",""trial"",""time""
""fullscreenenter"",""1"",""1894""
","
","
","""event"",""trial"",""time""
""fullscreenenter"",""1"",""1894""
","
","","","","","","null","<div style=""font-size:60px;"">+</div>","null","","fixation","","","","","","","","","","","","","",""
"learning-trial","173","718880","0.0-9.0-2.0-1.43","1501","2","2","""event"",""trial"",""time""
""fullscreenenter"",""1"",""1894""
","
","
","""event"",""trial"",""time""
""fullscreenenter"",""1"",""1894""
","
","","","","","","1923.8000000715256","images/horse5.png","","","learning","images/animals_choice3.png","images/animals_choice1.png","images/animals_choice2.png","[2,0,1]","0","1","3","images/animals_choice2.png","-1","animals","","horse","2","0"
"html-keyboard-response","174","719387","0.0-9.0-2.0-0.44","1501","2","2","""event"",""trial"",""time""
""fullscreenenter"",""1"",""1894""
","
","
","""event"",""trial"",""time""
""fullscreenenter"",""1"",""1894""
","
","","","","","","null","<div style=""font-size:60px;"">+</div>","null","","fixation","","","","","","","","","","","","","",""
"learning-trial","175","723396","0.0-9.0-2.0-1.44","1501","2","2","""event"",""trial"",""time""
""fullscreenenter"",""1"",""1894""
","
","
","""event"",""trial"",""time""
""fullscreenenter"",""1"",""1894""
","
","","","","","","1144.8999999761581","images/sheep2.png","","","learning","images/animals_choice3.png","images/animals_choice2.png","images/animals_choice1.png","[2,1,0]","0","2","2","images/animals_choice2.png","-1","animals","","sheep","2","0"
"html-keyboard-response","176","723899","0.0-9.0-2.0-0.45","1501","2","2","""event"",""trial"",""time""
""fullscreenenter"",""1"",""1894""
","
","
","""event"",""trial"",""time""
""fullscreenenter"",""1"",""1894""
","
","","","","","","null","<div style=""font-size:60px;"">+</div>","null","","fixation","","","","","","","","","","","","","",""
"learning-trial","177","727905","0.0-9.0-2.0-1.45","1501","2","2","""event"",""trial"",""time""
""fullscreenenter"",""1"",""1894""
","
","
","""event"",""trial"",""time""
""fullscreenenter"",""1"",""1894""
","
","","","","","","2427.7999999523163","images/goat2.png","","","learning","images/animals_choice1.png","images/animals_choice2.png","images/animals_choice3.png","[0,1,2]","2","2","1","images/animals_choice1.png","-1","animals","","goat","2","0"
"html-keyboard-response","178","728409","0.0-9.0-2.0-0.46","1501","2","2","""event"",""trial"",""time""
""fullscreenenter"",""1"",""1894""
","
","
","""event"",""trial"",""time""
""fullscreenenter"",""1"",""1894""
","
","","","","","","null","<div style=""font-size:60px;"">+</div>","null","","fixation","","","","","","","","","","","","","",""
"learning-trial","179","732417","0.0-9.0-2.0-1.46","1501","2","2","""event"",""trial"",""time""
""fullscreenenter"",""1"",""1894""
","
","
","""event"",""trial"",""time""
""fullscreenenter"",""1"",""1894""
","
","","","","","","1231.6999999284744","images/sheep4.png","","","learning","images/animals_choice2.png","images/animals_choice1.png","images/animals_choice3.png","[1,0,2]","1","0","1","images/animals_choice2.png","1","animals","","sheep","2","0"
"html-keyboard-response","180","732931","0.0-9.0-2.0-0.47","1501","2","2","""event"",""trial"",""time""
""fullscreenenter"",""1"",""1894""
","
","
","""event"",""trial"",""time""
""fullscreenenter"",""1"",""1894""
","
","","","","","","null","<div style=""font-size:60px;"">+</div>","null","","fixation","","","","","","","","","","","","","",""
"learning-trial","181","736935","0.0-9.0-2.0-1.47","1501","2","2","""event"",""trial"",""time""
""fullscreenenter"",""1"",""1894""
","
","
","""event"",""trial"",""time""
""fullscreenenter"",""1"",""1894""
","
","","","","","","1578.7999999523163","images/goat3.png","","","learning","images/animals_choice2.png","images/animals_choice1.png","images/animals_choice3.png","[1,0,2]","1","0","3","images/animals_choice3.png","-1","animals","","goat","2","0"
"html-keyboard-response","182","737443","0.0-9.0-2.0-0.48","1501","2","2","""event"",""trial"",""time""
""fullscreenenter"",""1"",""1894""
","
","
","""event"",""trial"",""time""
""fullscreenenter"",""1"",""1894""
","
","","","","","","null","<div style=""font-size:60px;"">+</div>","null","","fixation","","","","","","","","","","","","","",""
"learning-trial","183","741456","0.0-9.0-2.0-1.48","1501","2","2","""event"",""trial"",""time""
""fullscreenenter"",""1"",""1894""
","
","
","""event"",""trial"",""time""
""fullscreenenter"",""1"",""1894""
","
","","","","","","1221.6000000238419","images/sheep2.png","","","learning","images/animals_choice1.png","images/animals_choice2.png","images/animals_choice3.png","[0,1,2]","0","0","3","images/animals_choice3.png","-1","animals","","sheep","2","0"
"html-keyboard-response","184","741958","0.0-9.0-2.0-0.49","1501","2","2","""event"",""trial"",""time""
""fullscreenenter"",""1"",""1894""
","
","
","""event"",""trial"",""time""
""fullscreenenter"",""1"",""1894""
","
","","","","","","null","<div style=""font-size:60px;"">+</div>","null","","fixation","","","","","","","","","","","","","",""
"learning-trial","185","745966","0.0-9.0-2.0-1.49","1501","2","2","""event"",""trial"",""time""
""fullscreenenter"",""1"",""1894""
","
","
","""event"",""trial"",""time""
""fullscreenenter"",""1"",""1894""
","
","","","","","","850.1999999284744","images/sheep2.png","","","learning","images/animals_choice2.png","images/animals_choice1.png","images/animals_choice3.png","[1,0,2]","0","1","3","images/animals_choice3.png","-1","animals","","sheep","2","0"
"html-keyboard-response","186","746474","0.0-9.0-2.0-0.50","1501","2","2","""event"",""trial"",""time""
""fullscreenenter"",""1"",""1894""
","
","
","""event"",""trial"",""time""
""fullscreenenter"",""1"",""1894""
","
","","","","","","null","<div style=""font-size:60px;"">+</div>","null","","fixation","","","","","","","","","","","","","",""
"learning-trial","187","750477","0.0-9.0-2.0-1.50","1501","2","2","""event"",""trial"",""time""
""fullscreenenter"",""1"",""1894""
","
","
","""event"",""trial"",""time""
""fullscreenenter"",""1"",""1894""
","
","","","","","","1975.2999999523163","images/goat3.png","","","learning","images/animals_choice2.png","images/animals_choice1.png","images/animals_choice3.png","[1,0,2]","1","0","1","images/animals_choice2.png","1","animals","","goat","2","0"
"html-keyboard-response","188","750982","0.0-9.0-2.0-0.51","1501","2","2","""event"",""trial"",""time""
""fullscreenenter"",""1"",""1894""
","
","
","""event"",""trial"",""time""
""fullscreenenter"",""1"",""1894""
","
","","","","","","null","<div style=""font-size:60px;"">+</div>","null","","fixation","","","","","","","","","","","","","",""
"learning-trial","189","754992","0.0-9.0-2.0-1.51","1501","2","2","""event"",""trial"",""time""
""fullscreenenter"",""1"",""1894""
","
","
","""event"",""trial"",""time""
""fullscreenenter"",""1"",""1894""
","
","","","","","","1306.6000000238419","images/horse3.png","","","learning","images/animals_choice1.png","images/animals_choice2.png","images/animals_choice3.png","[0,1,2]","2","2","3","images/animals_choice3.png","1","animals","","horse","2","0"
"html-keyboard-response","190","755503","0.0-9.0-2.0-0.52","1501","2","2","""event"",""trial"",""time""
""fullscreenenter"",""1"",""1894""
","
","
","""event"",""trial"",""time""
""fullscreenenter"",""1"",""1894""
","
","","","","","","null","<div style=""font-size:60px;"">+</div>","null","","fixation","","","","","","","","","","","","","",""
"learning-trial","191","759508","0.0-9.0-2.0-1.52","1501","2","2","""event"",""trial"",""time""
""fullscreenenter"",""1"",""1894""
","
","
","""event"",""trial"",""time""
""fullscreenenter"",""1"",""1894""
","
","","","","","","1729.3999999761581","images/sheep4.png","","","learning","images/animals_choice2.png","images/animals_choice1.png","images/animals_choice3.png","[1,0,2]","1","0","1","images/animals_choice2.png","1","animals","","sheep","2","0"
"html-keyboard-response","192","760015","0.0-9.0-2.0-0.53","1501","2","2","""event"",""trial"",""time""
""fullscreenenter"",""1"",""1894""
","
","
","""event"",""trial"",""time""
""fullscreenenter"",""1"",""1894""
","
","","","","","","null","<div style=""font-size:60px;"">+</div>","null","","fixation","","","","","","","","","","","","","",""
"learning-trial","193","764023","0.0-9.0-2.0-1.53","1501","2","2","""event"",""trial"",""time""
""fullscreenenter"",""1"",""1894""
","
","
","""event"",""trial"",""time""
""fullscreenenter"",""1"",""1894""
","
","","","","","","1404","images/sheep4.png","","","learning","images/animals_choice2.png","images/animals_choice1.png","images/animals_choice3.png","[1,0,2]","1","0","3","images/animals_choice3.png","-1","animals","","sheep","2","0"
"html-keyboard-response","194","764531","0.0-9.0-2.0-0.54","1501","2","2","""event"",""trial"",""time""
""fullscreenenter"",""1"",""1894""
","
","
","""event"",""trial"",""time""
""fullscreenenter"",""1"",""1894""
","
","","","","","","null","<div style=""font-size:60px;"">+</div>","null","","fixation","","","","","","","","","","","","","",""
"learning-trial","195","768544","0.0-9.0-2.0-1.54","1501","2","2","""event"",""trial"",""time""
""fullscreenenter"",""1"",""1894""
","
","
","""event"",""trial"",""time""
""fullscreenenter"",""1"",""1894""
","
","","","","","","1858.3999999761581","images/horse1.png","","","learning","images/animals_choice2.png","images/animals_choice1.png","images/animals_choice3.png","[1,0,2]","1","0","1","images/animals_choice2.png","1","animals","","horse","2","0"
"html-keyboard-response","196","769051","0.0-9.0-2.0-0.55","1501","2","2","""event"",""trial"",""time""
""fullscreenenter"",""1"",""1894""
","
","
","""event"",""trial"",""time""
""fullscreenenter"",""1"",""1894""
","
","","","","","","null","<div style=""font-size:60px;"">+</div>","null","","fixation","","","","","","","","","","","","","",""
"learning-trial","197","773056","0.0-9.0-2.0-1.55","1501","2","2","""event"",""trial"",""time""
""fullscreenenter"",""1"",""1894""
","
","
","""event"",""trial"",""time""
""fullscreenenter"",""1"",""1894""
","
","","","","","","2009.6999999284744","images/horse5.png","","","learning","images/animals_choice3.png","images/animals_choice1.png","images/animals_choice2.png","[2,0,1]","0","1","3","images/animals_choice2.png","-1","animals","","horse","2","0"
"html-keyboard-response","198","773561","0.0-9.0-2.0-0.56","1501","2","2","""event"",""trial"",""time""
""fullscreenenter"",""1"",""1894""
","
","
","""event"",""trial"",""time""
""fullscreenenter"",""1"",""1894""
","
","","","","","","null","<div style=""font-size:60px;"">+</div>","null","","fixation","","","","","","","","","","","","","",""
"learning-trial","199","777574","0.0-9.0-2.0-1.56","1501","2","2","""event"",""trial"",""time""
""fullscreenenter"",""1"",""1894""
","
","
","""event"",""trial"",""time""
""fullscreenenter"",""1"",""1894""
","
","","","","","","1146.7999999523163","images/goat2.png","","","learning","images/animals_choice1.png","images/animals_choice2.png","images/animals_choice3.png","[0,1,2]","2","2","1","images/animals_choice1.png","-1","animals","","goat","2","0"
"html-keyboard-response","200","778081","0.0-9.0-2.0-0.57","1501","2","2","""event"",""trial"",""time""
""fullscreenenter"",""1"",""1894""
","
","
","""event"",""trial"",""time""
""fullscreenenter"",""1"",""1894""
","
","","","","","","null","<div style=""font-size:60px;"">+</div>","null","","fixation","","","","","","","","","","","","","",""
"learning-trial","201","782090","0.0-9.0-2.0-1.57","1501","2","2","""event"",""trial"",""time""
""fullscreenenter"",""1"",""1894""
","
","
","""event"",""trial"",""time""
""fullscreenenter"",""1"",""1894""
","
","","","","","","797","images/goat5.png","","","learning","images/animals_choice2.png","images/animals_choice1.png","images/animals_choice3.png","[1,0,2]","0","1","3","images/animals_choice3.png","-1","animals","","goat","2","0"
"html-keyboard-response","202","782595","0.0-9.0-2.0-0.58","1501","2","2","""event"",""trial"",""time""
""fullscreenenter"",""1"",""1894""
","
","
","""event"",""trial"",""time""
""fullscreenenter"",""1"",""1894""
","
","","","","","","null","<div style=""font-size:60px;"">+</div>","null","","fixation","","","","","","","","","","","","","",""
"learning-trial","203","786599","0.0-9.0-2.0-1.58","1501","2","2","""event"",""trial"",""time""
""fullscreenenter"",""1"",""1894""
","
","
","""event"",""trial"",""time""
""fullscreenenter"",""1"",""1894""
","
","","","","","","1206.3999999761581","images/goat5.png","","","learning","images/animals_choice1.png","images/animals_choice3.png","images/animals_choice2.png","[0,2,1]","0","0","2","images/animals_choice3.png","-1","animals","","goat","2","0"
"html-keyboard-response","204","787108","0.0-9.0-2.0-0.59","1501","2","2","""event"",""trial"",""time""
""fullscreenenter"",""1"",""1894""
","
","
","""event"",""trial"",""time""
""fullscreenenter"",""1"",""1894""
","
","","","","","","null","<div style=""font-size:60px;"">+</div>","null","","fixation","","","","","","","","","","","","","",""
"learning-trial","205","791115","0.0-9.0-2.0-1.59","1501","2","2","""event"",""trial"",""time""
""fullscreenenter"",""1"",""1894""
","
","
","""event"",""trial"",""time""
""fullscreenenter"",""1"",""1894""
","
","","","","","","1105.6000000238419","images/goat3.png","","","learning","images/animals_choice1.png","images/animals_choice3.png","images/animals_choice2.png","[0,2,1]","1","2","3","images/animals_choice2.png","1","animals","","goat","2","0"
"html-keyboard-response","206","791619","0.0-9.0-2.0-0.60","1501","2","2","""event"",""trial"",""time""
""fullscreenenter"",""1"",""1894""
","
","
","""event"",""trial"",""time""
""fullscreenenter"",""1"",""1894""
","
","","","","","","null","<div style=""font-size:60px;"">+</div>","null","","fixation","","","","","","","","","","","","","",""
"learning-trial","207","795622","0.0-9.0-2.0-1.60","1501","2","2","""event"",""trial"",""time""
""fullscreenenter"",""1"",""1894""
","
","
","""event"",""trial"",""time""
""fullscreenenter"",""1"",""1894""
","
","","","","","","1150.7999999523163","images/goat2.png","","","learning","images/animals_choice3.png","images/animals_choice2.png","images/animals_choice1.png","[2,1,0]","2","0","3","images/animals_choice1.png","-1","animals","","goat","2","0"
"html-keyboard-response","208","796129","0.0-9.0-2.0-0.61","1501","2","2","""event"",""trial"",""time""
""fullscreenenter"",""1"",""1894""
","
","
","""event"",""trial"",""time""
""fullscreenenter"",""1"",""1894""
","
","","","","","","null","<div style=""font-size:60px;"">+</div>","null","","fixation","","","","","","","","","","","","","",""
"learning-trial","209","800134","0.0-9.0-2.0-1.61","1501","2","2","""event"",""trial"",""time""
""fullscreenenter"",""1"",""1894""
","
","
","""event"",""trial"",""time""
""fullscreenenter"",""1"",""1894""
","
","","","","","","1700.8000000715256","images/goat5.png","","","learning","images/animals_choice2.png","images/animals_choice3.png","images/animals_choice1.png","[1,2,0]","0","2","1","images/animals_choice2.png","1","animals","","goat","2","0"
"html-keyboard-response","210","800637","0.0-9.0-2.0-0.62","1501","2","2","""event"",""trial"",""time""
""fullscreenenter"",""1"",""1894""
","
","
","""event"",""trial"",""time""
""fullscreenenter"",""1"",""1894""
","
","","","","","","null","<div style=""font-size:60px;"">+</div>","null","","fixation","","","","","","","","","","","","","",""
"learning-trial","211","804645","0.0-9.0-2.0-1.62","1501","2","2","""event"",""trial"",""time""
""fullscreenenter"",""1"",""1894""
","
","
","""event"",""trial"",""time""
""fullscreenenter"",""1"",""1894""
","
","","","","","","1774.5","images/sheep4.png","","","learning","images/animals_choice1.png","images/animals_choice3.png","images/animals_choice2.png","[0,2,1]","1","2","2","images/animals_choice3.png","-1","animals","","sheep","2","0"
"html-keyboard-response","212","805150","0.0-9.0-2.0-0.63","1501","2","2","""event"",""trial"",""time""
""fullscreenenter"",""1"",""1894""
","
","
","""event"",""trial"",""time""
""fullscreenenter"",""1"",""1894""
","
","","","","","","null","<div style=""font-size:60px;"">+</div>","null","","fixation","","","","","","","","","","","","","",""
"learning-trial","213","809158","0.0-9.0-2.0-1.63","1501","2","2","""event"",""trial"",""time""
""fullscreenenter"",""1"",""1894""
","
","
","""event"",""trial"",""time""
""fullscreenenter"",""1"",""1894""
","
","","","","","","2011.5999999046326","images/horse1.png","","","learning","images/animals_choice2.png","images/animals_choice1.png","images/animals_choice3.png","[1,0,2]","1","0","1","images/animals_choice2.png","1","animals","","horse","2","0"
"html-keyboard-response","214","809666","0.0-9.0-2.0-0.64","1501","2","2","""event"",""trial"",""time""
""fullscreenenter"",""1"",""1894""
","
","
","""event"",""trial"",""time""
""fullscreenenter"",""1"",""1894""
","
","","","","","","null","<div style=""font-size:60px;"">+</div>","null","","fixation","","","","","","","","","","","","","",""
"learning-trial","215","813671","0.0-9.0-2.0-1.64","1501","2","2","""event"",""trial"",""time""
""fullscreenenter"",""1"",""1894""
","
","
","""event"",""trial"",""time""
""fullscreenenter"",""1"",""1894""
","
","","","","","","1282.6999999284744","images/sheep4.png","","","learning","images/animals_choice3.png","images/animals_choice1.png","images/animals_choice2.png","[2,0,1]","1","2","3","images/animals_choice2.png","1","animals","","sheep","2","0"
"html-keyboard-response","216","814188","0.0-9.0-2.0-0.65","1501","2","2","""event"",""trial"",""time""
""fullscreenenter"",""1"",""1894""
","
","
","""event"",""trial"",""time""
""fullscreenenter"",""1"",""1894""
","
","","","","","","null","<div style=""font-size:60px;"">+</div>","null","","fixation","","","","","","","","","","","","","",""
"learning-trial","217","818197","0.0-9.0-2.0-1.65","1501","2","2","""event"",""trial"",""time""
""fullscreenenter"",""1"",""1894""
","
","
","""event"",""trial"",""time""
""fullscreenenter"",""1"",""1894""
","
","","","","","","867.3999999761581","images/sheep4.png","","","learning","images/animals_choice2.png","images/animals_choice1.png","images/animals_choice3.png","[1,0,2]","1","0","1","images/animals_choice2.png","1","animals","","sheep","2","0"
"html-keyboard-response","218","818704","0.0-9.0-2.0-0.66","1501","2","2","""event"",""trial"",""time""
""fullscreenenter"",""1"",""1894""
","
","
","""event"",""trial"",""time""
""fullscreenenter"",""1"",""1894""
","
","","","","","","null","<div style=""font-size:60px;"">+</div>","null","","fixation","","","","","","","","","","","","","",""
"learning-trial","219","822708","0.0-9.0-2.0-1.66","1501","2","2","""event"",""trial"",""time""
""fullscreenenter"",""1"",""1894""
","
","
","""event"",""trial"",""time""
""fullscreenenter"",""1"",""1894""
","
","","","","","","1337.2999999523163","images/sheep4.png","","","learning","images/animals_choice3.png","images/animals_choice2.png","images/animals_choice1.png","[2,1,0]","1","1","2","images/animals_choice2.png","1","animals","","sheep","2","0"
"html-keyboard-response","220","823210","0.0-9.0-2.0-0.67","1501","2","2","""event"",""trial"",""time""
""fullscreenenter"",""1"",""1894""
","
","
","""event"",""trial"",""time""
""fullscreenenter"",""1"",""1894""
","
","","","","","","null","<div style=""font-size:60px;"">+</div>","null","","fixation","","","","","","","","","","","","","",""
"learning-trial","221","827222","0.0-9.0-2.0-1.67","1501","2","2","""event"",""trial"",""time""
""fullscreenenter"",""1"",""1894""
","
","
","""event"",""trial"",""time""
""fullscreenenter"",""1"",""1894""
","
","","","","","","1587.1000000238419","images/sheep1.png","","","learning","images/animals_choice1.png","images/animals_choice2.png","images/animals_choice3.png","[0,1,2]","2","2","3","images/animals_choice3.png","1","animals","","sheep","2","0"
"html-keyboard-response","222","827727","0.0-9.0-2.0-0.68","1501","2","2","""event"",""trial"",""time""
""fullscreenenter"",""1"",""1894""
","
","
","""event"",""trial"",""time""
""fullscreenenter"",""1"",""1894""
","
","","","","","","null","<div style=""font-size:60px;"">+</div>","null","","fixation","","","","","","","","","","","","","",""
"learning-trial","223","831731","0.0-9.0-2.0-1.68","1501","2","2","""event"",""trial"",""time""
""fullscreenenter"",""1"",""1894""
","
","
","""event"",""trial"",""time""
""fullscreenenter"",""1"",""1894""
","
","","","","","","782.2000000476837","images/sheep1.png","","","learning","images/animals_choice2.png","images/animals_choice3.png","images/animals_choice1.png","[1,2,0]","2","1","2","images/animals_choice3.png","1","animals","","sheep","2","0"
"html-keyboard-response","224","832246","0.0-9.0-2.0-0.69","1501","2","2","""event"",""trial"",""time""
""fullscreenenter"",""1"",""1894""
","
","
","""event"",""trial"",""time""
""fullscreenenter"",""1"",""1894""
","
","","","","","","null","<div style=""font-size:60px;"">+</div>","null","","fixation","","","","","","","","","","","","","",""
"learning-trial","225","836257","0.0-9.0-2.0-1.69","1501","2","2","""event"",""trial"",""time""
""fullscreenenter"",""1"",""1894""
","
","
","""event"",""trial"",""time""
""fullscreenenter"",""1"",""1894""
","
","","","","","","854","images/horse1.png","","","learning","images/animals_choice2.png","images/animals_choice1.png","images/animals_choice3.png","[1,0,2]","1","0","1","images/animals_choice2.png","-1","animals","","horse","2","0"
"html-keyboard-response","226","836761","0.0-9.0-2.0-0.70","1501","2","2","""event"",""trial"",""time""
""fullscreenenter"",""1"",""1894""
","
","
","""event"",""trial"",""time""
""fullscreenenter"",""1"",""1894""
","
","","","","","","null","<div style=""font-size:60px;"">+</div>","null","","fixation","","","","","","","","","","","","","",""
"learning-trial","227","840770","0.0-9.0-2.0-1.70","1501","2","2","""event"",""trial"",""time""
""fullscreenenter"",""1"",""1894""
","
","
","""event"",""trial"",""time""
""fullscreenenter"",""1"",""1894""
","
","","","","","","1490","images/goat2.png","","","learning","images/animals_choice2.png","images/animals_choice1.png","images/animals_choice3.png","[1,0,2]","2","2","2","images/animals_choice1.png","-1","animals","","goat","2","0"
"html-keyboard-response","228","841274","0.0-9.0-2.0-0.71","1501","2","2","""event"",""trial"",""time""
""fullscreenenter"",""1"",""1894""
","
","
","""event"",""trial"",""time""
""fullscreenenter"",""1"",""1894""
","
","","","","","","null","<div style=""font-size:60px;"">+</div>","null","","fixation","","","","","","","","","","","","","",""
"learning-trial","229","845280","0.0-9.0-2.0-1.71","1501","2","2","""event"",""trial"",""time""
""fullscreenenter"",""1"",""1894""
","
","
","""event"",""trial"",""time""
""fullscreenenter"",""1"",""1894""
","
","","","","","","1864.3999999761581","images/sheep1.png","","","learning","images/animals_choice3.png","images/animals_choice2.png","images/animals_choice1.png","[2,1,0]","2","0","1","images/animals_choice3.png","1","animals","","sheep","2","0"
"html-button-response","230","849050","0.0-9.0-3.0","1501","2","2","""event"",""trial"",""time""
""fullscreenenter"",""1"",""1894""
","
","
","""event"",""trial"",""time""
""fullscreenenter"",""1"",""1894""
","
","","","","","","3768.399999976158","<p> You have completed the round! <p> In this round, you earned -8 points! </p>","0","","break","","","","","","","","","","","","","",""
"html-button-response","231","849950","0.0-10.0","1501","2","2","""event"",""trial"",""time""
""fullscreenenter"",""1"",""1894""
","
","
","""event"",""trial"",""time""
""fullscreenenter"",""1"",""1894""
","
","","","","","","898.2000000476837","<p> Now it's time to play another round. </p>","0","","transition_screen","","","","","","","","","","","","","",""
"preload","232","869879","0.0-11.0-0.0","1501","2","2","""event"",""trial"",""time""
""fullscreenenter"",""1"",""1894""
","
","
","""event"",""trial"",""time""
""fullscreenenter"",""1"",""1894""
","
","true","false","[]","[]","[]","","","","","","","","","","","","","","","","","","",""
"learning-instructions","233","885577","0.0-11.0-1.0-0.0","1501","2","2","""event"",""trial"",""time""
""fullscreenenter"",""1"",""1894""
","
","
","""event"",""trial"",""time""
""fullscreenenter"",""1"",""1894""
","
","","","","","","6986.300000071526","<p> Your goal in this round is to travel the world by putting fuel into different vehicles. </p><p> To travel, you will need to put fuel into many different vehicles. </p></div>","","0","instructions","","","","","","","","","","","","","",""
"learning-instructions","234","894849","0.0-11.0-1.0-0.1","1501","2","2","""event"",""trial"",""time""
""fullscreenenter"",""1"",""1894""
","
","
","""event"",""trial"",""time""
""fullscreenenter"",""1"",""1894""
","
","","","","","","488","<p> On each turn, you will see a picture of one of your vehicles and three different types of fuel.  </p><p> You need to select which kind of fuel to use.  </p>","","0","instructions","","","","","","","","","","","","","",""
"learning-instructions","235","904581","0.0-11.0-1.0-0.2","1501","2","2","""event"",""trial"",""time""
""fullscreenenter"",""1"",""1894""
","
","
","""event"",""trial"",""time""
""fullscreenenter"",""1"",""1894""
","
","","","","","","2849.2999999523163","<p> You can select the fuel on the left by pressing 1, the fuel in the middle by pressing 2, and the fuel on the right by pressing 3. </p><br><div class=""choice-instructions-grid""> <div class=""choice-option""><img src=""images/vehicles_choice1.png"" class=""choice-option-img"" stage=""instructions"" position=""0"" ><div class=""choice-option-text""> Press ""1."" </div></div><div class=""choice-option""><img src=""images/vehicles_choice2.png"" class=""choice-option-img"" stage=""instructions"" position=""1"" ><div class=""choice-option-text""> Press ""2."" </div></div><div class=""choice-option""><img src=""images/vehicles_choice3.png"" class=""choice-option-img"" stage=""instructions"" position=""2"" ><div class=""choice-option-text""> Press ""3."" </div></div></div>","","0","instructions","","","","","","","","","","","","","",""
