"trial_type","trial_index","time_elapsed","internal_node_id","subject_id","condition","task_version","interactions","blur_events","focus_events","fullscreenenter_events","fullscreenexit_events","success","timeout","failed_images","failed_audio","failed_video","rt","stimulus","response","button_pressed","task_part","left_choice","middle_choice","right_choice","choice_positions","correct_response","correct_position","key_press","option_selected","points","task_block","correct","stim_cat","block_condition","block_number"
"pavlovia","0","2","0.0-0.0","1963","2","2","""event"",""trial"",""time""
""fullscreenenter"",""1"",""3497""
","
","
","""event"",""trial"",""time""
""fullscreenenter"",""1"",""3497""
","
","","","","","","","","","","","","","","","","","","","","","","","",""
"fullscreen","1","4445","0.0-1.0","1963","2","2","""event"",""trial"",""time""
""fullscreenenter"",""1"",""3497""
","
","
","""event"",""trial"",""time""
""fullscreenenter"",""1"",""3497""
","
","true","","","","","","","","","","","","","","","","","","","","","","",""
"preload","2","8519","0.0-2.0","1963","2","2","""event"",""trial"",""time""
""fullscreenenter"",""1"",""3497""
","
","
","""event"",""trial"",""time""
""fullscreenenter"",""1"",""3497""
","
","true","false","[]","[]","[]","","","","","","","","","","","","","","","","","","",""
"audio-keyboard-response","3","12184","0.0-3.0","1963","2","2","""event"",""trial"",""time""
""fullscreenenter"",""1"",""3497""
","
","
","""event"",""trial"",""time""
""fullscreenenter"",""1"",""3497""
","
","","","","","","3662.9478458049884","audio/beep_loop.wav"," ","","","","","","","","","","","","","","","",""
"audio-button-response","4","14554","0.0-4.0","1963","2","2","""event"",""trial"",""time""
""fullscreenenter"",""1"",""3497""
","
","
","""event"",""trial"",""time""
""fullscreenenter"",""1"",""3497""
","
","","","","","","2368","audio/shark.wav","4","","","","","","","","","","","","","","","",""
"audio-button-response","5","16735","0.0-5.0","1963","2","2","""event"",""trial"",""time""
""fullscreenenter"",""1"",""3497""
","
","
","""event"",""trial"",""time""
""fullscreenenter"",""1"",""3497""
","
","","","","","","1173","audio/turtle.wav","1","","","","","","","","","","","","","","","",""
"preload","6","22798","0.0-6.0","1963","2","2","""event"",""trial"",""time""
""fullscreenenter"",""1"",""3497""
","
","
","""event"",""trial"",""time""
""fullscreenenter"",""1"",""3497""
","
","true","false","[]","[]","[]","","","","","","","","","","","","","","","","","","",""
"html-keyboard-response","7","25922","0.0-7.0","1963","2","2","""event"",""trial"",""time""
""fullscreenenter"",""1"",""3497""
","
","
","""event"",""trial"",""time""
""fullscreenenter"",""1"",""3497""
","
","","","","","","3116","Welcome to the experiment. Press any key to begin and to advance the instructions.","j","","","","","","","","","","","","","","","",""
"learning-instructions","8","35071","0.0-8.0-0.0-0.0","1963","2","2","""event"",""trial"",""time""
""fullscreenenter"",""1"",""3497""
","
","
","""event"",""trial"",""time""
""fullscreenenter"",""1"",""3497""
","
","","","","","","1398.7000000476837","<p> Welcome! Today you are going to play 6 different rounds of a decision-making game. </p><p> Use the mouse to click next to continue. </p>","","0","instructions","","","","","","","","","","","","","",""
"learning-instructions","9","40387","0.0-8.0-0.0-0.1","1963","2","2","""event"",""trial"",""time""
""fullscreenenter"",""1"",""3497""
","
","
","""event"",""trial"",""time""
""fullscreenenter"",""1"",""3497""
","
","","","","","","2309.6999999284744","<p> You will start with a practice round to learn the rules. </p>","","0","instructions","","","","","","","","","","","","","",""
"learning-instructions","10","49153","0.0-8.0-0.0-0.2","1963","2","2","""event"",""trial"",""time""
""fullscreenenter"",""1"",""3497""
","
","
","""event"",""trial"",""time""
""fullscreenenter"",""1"",""3497""
","
","","","","","","1027.8999999761581","<p> Your goal in this round is to deliver sports equipment to three different parks. </p><p> You will need to deliver many types of equipment. </p></div>","","0","instructions","","","","","","","","","","","","","",""
"learning-instructions","11","58152","0.0-8.0-0.0-0.3","1963","2","2","""event"",""trial"",""time""
""fullscreenenter"",""1"",""3497""
","
","
","""event"",""trial"",""time""
""fullscreenenter"",""1"",""3497""
","
","","","","","","512.5","<p> On each turn, you will see one piece of sports equipment and three different parks.  </p><p> You need to select which park to deliver the equipment to.  </p>","","0","instructions","","","","","","","","","","","","","",""
"learning-instructions","12","72069","0.0-8.0-0.0-0.4","1963","2","2","""event"",""trial"",""time""
""fullscreenenter"",""1"",""3497""
","
","
","""event"",""trial"",""time""
""fullscreenenter"",""1"",""3497""
","
","","","","","","636.2999999523163","<p> You can select the park on the left by pressing the '1' key on your keyboard. <br>You can select the park in the middle by pressing the '2' key on your keyboard. <br>You can select the park on the right by pressing the '3' key on your keyboard.  </p><br><div class=""choice-instructions-grid""> <div class=""choice-option""><img src=""images/park1.png"" class=""choice-option-img"" stage=""instructions"" position=""0"" ><div class=""choice-option-text""> Press ""1."" </div></div><div class=""choice-option""><img src=""images/park2.png"" class=""choice-option-img"" stage=""instructions"" position=""1"" ><div class=""choice-option-text""> Press ""2."" </div></div><div class=""choice-option""><img src=""images/park3.png"" class=""choice-option-img"" stage=""instructions"" position=""2"" ><div class=""choice-option-text""> Press ""3."" </div></div></div>","","0","instructions","","","","","","","","","","","","","",""
"learning-instructions","13","78285","0.0-8.0-0.0-0.5","1963","2","2","""event"",""trial"",""time""
""fullscreenenter"",""1"",""3497""
","
","
","""event"",""trial"",""time""
""fullscreenenter"",""1"",""3497""
","
","","","","","","839.4000000953674","<p> If the kids in the park you chose like the equipment, they will be very happy! </p><div style='float: center;'><img src='images/check.png' width = '200' height = '200'></img>","","0","instructions","","","","","","","","","","","","","",""
"learning-instructions","14","84335","0.0-8.0-0.0-0.6","1963","2","2","""event"",""trial"",""time""
""fullscreenenter"",""1"",""3497""
","
","
","""event"",""trial"",""time""
""fullscreenenter"",""1"",""3497""
","
","","","","","","457.39999997615814","<p> But, if the kids in the park you chose do not like the equipment, they will be sad. </p><div style='float: center;'><img src='images/x.png' width = '200' height = '200'></img>","","0","instructions","","","","","","","","","","","","","",""
"learning-instructions","15","91285","0.0-8.0-0.0-0.7","1963","2","2","""event"",""trial"",""time""
""fullscreenenter"",""1"",""3497""
","
","
","""event"",""trial"",""time""
""fullscreenenter"",""1"",""3497""
","
","","","","","","523.3000000715256","<p> Importantly, the kids in each park like some pieces of sports equipment more than others. </p>","","0","instructions","","","","","","","","","","","","","",""
"learning-instructions","16","97802","0.0-8.0-0.0-0.8","1963","2","2","""event"",""trial"",""time""
""fullscreenenter"",""1"",""3497""
","
","
","""event"",""trial"",""time""
""fullscreenenter"",""1"",""3497""
","
","","","","","","468.7000000476837","<p> If you choose the best park for each piece of equipment, the kids there will usually be happy. </p>","","0","instructions","","","","","","","","","","","","","",""
"learning-instructions","17","104869","0.0-8.0-0.0-0.9","1963","2","2","""event"",""trial"",""time""
""fullscreenenter"",""1"",""3497""
","
","
","""event"",""trial"",""time""
""fullscreenenter"",""1"",""3497""
","
","","","","","","424.2000000476837","<p> However, even if you choose the best park for the equipment, the kids may sometimes be sad. </p>","","0","instructions","","","","","","","","","","","","","",""
"learning-instructions","18","112635","0.0-8.0-0.0-0.10","1963","2","2","""event"",""trial"",""time""
""fullscreenenter"",""1"",""3497""
","
","
","""event"",""trial"",""time""
""fullscreenenter"",""1"",""3497""
","
","","","","","","539.7000000476837","<p> Similarly, even if you choose the <i>wrong</i> park for the equipment, the kids may still be happy sometimes.","","0","instructions","","","","","","","","","","","","","",""
"learning-instructions","19","118269","0.0-8.0-0.0-0.11","1963","2","2","""event"",""trial"",""time""
""fullscreenenter"",""1"",""3497""
","
","
","""event"",""trial"",""time""
""fullscreenenter"",""1"",""3497""
","
","","","","","","577.2000000476837","<p> For example, the best park for this soccer ball is this one.<div style='float: center;'><img src='images/i1.png' width = '500' height = '268'></img>","","0","instructions","","","","","","","","","","","","","",""
"learning-instructions","20","124068","0.0-8.0-0.0-0.12","1963","2","2","""event"",""trial"",""time""
""fullscreenenter"",""1"",""3497""
","
","
","""event"",""trial"",""time""
""fullscreenenter"",""1"",""3497""
","
","","","","","","514.1000000238419","<p> Let's see what happens if you choose this park for the soccer ball five times.","","0","instructions","","","","","","","","","","","","","",""
"learning-instructions","21","126751","0.0-8.0-0.0-0.13","1963","2","2","""event"",""trial"",""time""
""fullscreenenter"",""1"",""3497""
","
","
","""event"",""trial"",""time""
""fullscreenenter"",""1"",""3497""
","
","","","","","","520.8999999761581","<p> The kids are happy.<div style='float: left;'><img src='images/i2.png' width = '640' height = '360'></img>","","0","instructions","","","","","","","","","","","","","",""
"learning-instructions","22","129468","0.0-8.0-0.0-0.14","1963","2","2","""event"",""trial"",""time""
""fullscreenenter"",""1"",""3497""
","
","
","""event"",""trial"",""time""
""fullscreenenter"",""1"",""3497""
","
","","","","","","550.2999999523163","<p> The kids are happy.<div style='float: left;'><img src='images/i3.png' width = '640' height = '360'></img>","","0","instructions","","","","","","","","","","","","","",""
"learning-instructions","23","131918","0.0-8.0-0.0-0.15","1963","2","2","""event"",""trial"",""time""
""fullscreenenter"",""1"",""3497""
","
","
","""event"",""trial"",""time""
""fullscreenenter"",""1"",""3497""
","
","","","","","","283.2000000476837","<p> The kids are happy.<div style='float: left;'><img src='images/i4.png' width = '640' height = '360'></img>","","0","instructions","","","","","","","","","","","","","",""
"learning-instructions","24","134251","0.0-8.0-0.0-0.16","1963","2","2","""event"",""trial"",""time""
""fullscreenenter"",""1"",""3497""
","
","
","""event"",""trial"",""time""
""fullscreenenter"",""1"",""3497""
","
","","","","","","126.30000007152557","<p> The kids are sad.<div style='float: left;'><img src='images/i5.png' width = '640' height = '360'></img>","","0","instructions","","","","","","","","","","","","","",""
"learning-instructions","25","136934","0.0-8.0-0.0-0.17","1963","2","2","""event"",""trial"",""time""
""fullscreenenter"",""1"",""3497""
","
","
","""event"",""trial"",""time""
""fullscreenenter"",""1"",""3497""
","
","","","","","","516.5","<p> The kids are happy.<div style='float: left;'><img src='images/i6.png' width = '640' height = '360'></img>","","0","instructions","","","","","","","","","","","","","",""
"learning-instructions","26","145052","0.0-8.0-0.0-0.18","1963","2","2","""event"",""trial"",""time""
""fullscreenenter"",""1"",""3497""
","
","
","""event"",""trial"",""time""
""fullscreenenter"",""1"",""3497""
","
","","","","","","849.7999999523163","<p> As you can see, selecting that park for the soccer ball made the kids happy most of the time, but not all the time.","","0","instructions","","","","","","","","","","","","","",""
"learning-instructions","27","151534","0.0-8.0-0.0-0.19","1963","2","2","""event"",""trial"",""time""
""fullscreenenter"",""1"",""3497""
","
","
","""event"",""trial"",""time""
""fullscreenenter"",""1"",""3497""
","
","","","","","","482.8000000715256","<p> Now let's see what happens if you choose a DIFFERENT park for the soccer ball 5 times.","","0","instructions","","","","","","","","","","","","","",""
"learning-instructions","28","154150","0.0-8.0-0.0-0.20","1963","2","2","""event"",""trial"",""time""
""fullscreenenter"",""1"",""3497""
","
","
","""event"",""trial"",""time""
""fullscreenenter"",""1"",""3497""
","
","","","","","","410.60000002384186","<p> The kids are sad.<div style='float: left;'><img src='images/i7.png' width = '640' height = '360'></img>","","0","instructions","","","","","","","","","","","","","",""
"learning-instructions","29","156784","0.0-8.0-0.0-0.21","1963","2","2","""event"",""trial"",""time""
""fullscreenenter"",""1"",""3497""
","
","
","""event"",""trial"",""time""
""fullscreenenter"",""1"",""3497""
","
","","","","","","433.2999999523163","<p> The kids are sad.<div style='float: left;'><img src='images/i8.png' width = '640' height = '360'></img>","","0","instructions","","","","","","","","","","","","","",""
"learning-instructions","30","159501","0.0-8.0-0.0-0.22","1963","2","2","""event"",""trial"",""time""
""fullscreenenter"",""1"",""3497""
","
","
","""event"",""trial"",""time""
""fullscreenenter"",""1"",""3497""
","
","","","","","","548.2000000476837","<p> The kids are happy.<div style='float: left;'><img src='images/i9.png' width = '640' height = '360'></img>","","0","instructions","","","","","","","","","","","","","",""
"learning-instructions","31","161951","0.0-8.0-0.0-0.23","1963","2","2","""event"",""trial"",""time""
""fullscreenenter"",""1"",""3497""
","
","
","""event"",""trial"",""time""
""fullscreenenter"",""1"",""3497""
","
","","","","","","241","<p> The kids are sad.<div style='float: left;'><img src='images/i10.png' width = '640' height = '360'></img>","","0","instructions","","","","","","","","","","","","","",""
"learning-instructions","32","164568","0.0-8.0-0.0-0.24","1963","2","2","""event"",""trial"",""time""
""fullscreenenter"",""1"",""3497""
","
","
","""event"",""trial"",""time""
""fullscreenenter"",""1"",""3497""
","
","","","","","","414.1999999284744","<p> The kids are sad.<div style='float: left;'><img src='images/i11.png' width = '640' height = '360'></img>","","0","instructions","","","","","","","","","","","","","",""
"learning-instructions","33","173617","0.0-8.0-0.0-0.25","1963","2","2","""event"",""trial"",""time""
""fullscreenenter"",""1"",""3497""
","
","
","""event"",""trial"",""time""
""fullscreenenter"",""1"",""3497""
","
","","","","","","930.7999999523163","<p> As you can see, selecting the wrong park for the soccer ball made the kids sad most of the time, but not all the time.","","0","instructions","","","","","","","","","","","","","",""
"learning-instructions","34","183335","0.0-8.0-0.0-0.26","1963","2","2","""event"",""trial"",""time""
""fullscreenenter"",""1"",""3497""
","
","
","""event"",""trial"",""time""
""fullscreenenter"",""1"",""3497""
","
","","","","","","604.8999999761581","<p> The different pieces of equipment belong in different parks. You need to try to learn which is the best park for each piece of equipment.","","0","instructions","","","","","","","","","","","","","",""
"learning-instructions","35","200134","0.0-8.0-0.0-0.27","1963","2","2","""event"",""trial"",""time""
""fullscreenenter"",""1"",""3497""
","
","
","""event"",""trial"",""time""
""fullscreenenter"",""1"",""3497""
","
","","","","","","413.5","<p> Try to choose the best park for each piece of equipment, because you will <b> WIN </b> 1 point for each time you make the kids happy and <b>LOSE</b> 1 point for each time you make them sad. </p><p> Remember, if you make the best choice, you will win 1 point most of the time, but not all the time. </p>","","0","instructions","","","","","","","","","","","","","",""
"learning-instructions","36","206500","0.0-8.0-0.0-0.28","1963","2","2","""event"",""trial"",""time""
""fullscreenenter"",""1"",""3497""
","
","
","""event"",""trial"",""time""
""fullscreenenter"",""1"",""3497""
","
","","","","","","888.3999999761581","<p> This is just a practice round, but in the real game, your bonus payment will depend on your total number of points.","","0","instructions","","","","","","","","","","","","","",""
"learning-instructions","37","217650","0.0-8.0-0.0-0.29","1963","2","2","""event"",""trial"",""time""
""fullscreenenter"",""1"",""3497""
","
","
","""event"",""trial"",""time""
""fullscreenenter"",""1"",""3497""
","
","","","","","","822.8000000715256","<p> The position where each park appears will change throughout the game. </p><p> The position where the park appears <i> does not </i> influence how likely the kids are to be happy or sad. </p>","","0","instructions","","","","","","","","","","","","","",""
"learning-instructions","38","369030","0.0-8.0-0.0-0.30","1963","2","2","""event"",""trial"",""time""
""fullscreenenter"",""1"",""3497""
","
","
","""event"",""trial"",""time""
""fullscreenenter"",""1"",""3497""
","
","","","","","","140965","<p> You will have 4 seconds to make each choice. Try to respond before time runs out! </p><p> You will lose 1 point each time you do not make a response. </p>","","0","instructions","","","","","","","","","","","","","",""
"learning-instructions","39","379181","0.0-8.0-0.0-0.31","1963","2","2","""event"",""trial"",""time""
""fullscreenenter"",""1"",""3497""
","
","
","""event"",""trial"",""time""
""fullscreenenter"",""1"",""3497""
","
","","","","","","3322.600000023842","<p> Remember, you should use the 1, 2, and 3 keys to select the park for each piece of equipment. </p><br><div class=""choice-instructions-grid""> <div class=""choice-option""><img src=""images/park1.png"" class=""choice-option-img"" stage=""instructions"" position=""0"" ><div class=""choice-option-text""> Press ""1."" </div></div><div class=""choice-option""><img src=""images/park2.png"" class=""choice-option-img"" stage=""instructions"" position=""1"" ><div class=""choice-option-text""> Press ""2."" </div></div><div class=""choice-option""><img src=""images/park3.png"" class=""choice-option-img"" stage=""instructions"" position=""2"" ><div class=""choice-option-text""> Press ""3."" </div></div></div>","","0","instructions","","","","","","","","","","","","","",""
"html-button-response","40","380414","0.0-8.0-1.0","1963","2","2","""event"",""trial"",""time""
""fullscreenenter"",""1"",""3497""
","
","
","""event"",""trial"",""time""
""fullscreenenter"",""1"",""3497""
","
","","","","","","1129.5999999046326","<p> Ready to practice? </p>","0","","","","","","","","","","","","","","","",""
"html-keyboard-response","41","381024","0.0-8.0-2.0-0.0","1963","2","2","""event"",""trial"",""time""
""fullscreenenter"",""1"",""3497""
","
","
","""event"",""trial"",""time""
""fullscreenenter"",""1"",""3497""
","
","","","","","","null","<div style=""font-size:60px;"">+</div>","null","","fixation","","","","","","","","","","","","","",""
"learning-trial","42","385031","0.0-8.0-2.0-1.0","1963","2","2","""event"",""trial"",""time""
""fullscreenenter"",""1"",""3497""
","
","
","""event"",""trial"",""time""
""fullscreenenter"",""1"",""3497""
","
","","","","","","1536.6999999284744","images/ball3.png","","","practice","images/park1.png","images/park3.png","images/park2.png","[0,2,1]","1","2","1","images/park1.png","1","practice","","","",""
"html-keyboard-response","43","385538","0.0-8.0-2.0-0.1","1963","2","2","""event"",""trial"",""time""
""fullscreenenter"",""1"",""3497""
","
","
","""event"",""trial"",""time""
""fullscreenenter"",""1"",""3497""
","
","","","","","","null","<div style=""font-size:60px;"">+</div>","null","","fixation","","","","","","","","","","","","","",""
"learning-trial","44","389547","0.0-8.0-2.0-1.1","1963","2","2","""event"",""trial"",""time""
""fullscreenenter"",""1"",""3497""
","
","
","""event"",""trial"",""time""
""fullscreenenter"",""1"",""3497""
","
","","","","","","1324.6999999284744","images/racket2.png","","","practice","images/park3.png","images/park2.png","images/park1.png","[2,1,0]","2","0","2","images/park2.png","-1","practice","","","",""
"html-keyboard-response","45","390053","0.0-8.0-2.0-0.2","1963","2","2","""event"",""trial"",""time""
""fullscreenenter"",""1"",""3497""
","
","
","""event"",""trial"",""time""
""fullscreenenter"",""1"",""3497""
","
","","","","","","null","<div style=""font-size:60px;"">+</div>","null","","fixation","","","","","","","","","","","","","",""
"learning-trial","46","394062","0.0-8.0-2.0-1.2","1963","2","2","""event"",""trial"",""time""
""fullscreenenter"",""1"",""3497""
","
","
","""event"",""trial"",""time""
""fullscreenenter"",""1"",""3497""
","
","","","","","","1892.5","images/racket2.png","","","practice","images/park1.png","images/park2.png","images/park3.png","[0,1,2]","2","2","3","images/park3.png","1","practice","","","",""
"html-keyboard-response","47","394569","0.0-8.0-2.0-0.3","1963","2","2","""event"",""trial"",""time""
""fullscreenenter"",""1"",""3497""
","
","
","""event"",""trial"",""time""
""fullscreenenter"",""1"",""3497""
","
","","","","","","null","<div style=""font-size:60px;"">+</div>","null","","fixation","","","","","","","","","","","","","",""
"learning-trial","48","398574","0.0-8.0-2.0-1.3","1963","2","2","""event"",""trial"",""time""
""fullscreenenter"",""1"",""3497""
","
","
","""event"",""trial"",""time""
""fullscreenenter"",""1"",""3497""
","
","","","","","","1214.2000000476837","images/ball2.png","","","practice","images/park2.png","images/park3.png","images/park1.png","[1,2,0]","0","2","2","images/park3.png","-1","practice","","","",""
"html-keyboard-response","49","399080","0.0-8.0-2.0-0.4","1963","2","2","""event"",""trial"",""time""
""fullscreenenter"",""1"",""3497""
","
","
","""event"",""trial"",""time""
""fullscreenenter"",""1"",""3497""
","
","","","","","","null","<div style=""font-size:60px;"">+</div>","null","","fixation","","","","","","","","","","","","","",""
"learning-trial","50","403083","0.0-8.0-2.0-1.4","1963","2","2","""event"",""trial"",""time""
""fullscreenenter"",""1"",""3497""
","
","
","""event"",""trial"",""time""
""fullscreenenter"",""1"",""3497""
","
","","","","","","704.2999999523163","images/ball2.png","","","practice","images/park1.png","images/park3.png","images/park2.png","[0,2,1]","0","0","1","images/park1.png","1","practice","","","",""
"html-keyboard-response","51","403590","0.0-8.0-2.0-0.5","1963","2","2","""event"",""trial"",""time""
""fullscreenenter"",""1"",""3497""
","
","
","""event"",""trial"",""time""
""fullscreenenter"",""1"",""3497""
","
","","","","","","null","<div style=""font-size:60px;"">+</div>","null","","fixation","","","","","","","","","","","","","",""
"learning-trial","52","407598","0.0-8.0-2.0-1.5","1963","2","2","""event"",""trial"",""time""
""fullscreenenter"",""1"",""3497""
","
","
","""event"",""trial"",""time""
""fullscreenenter"",""1"",""3497""
","
","","","","","","1451.5","images/racket3.png","","","practice","images/park3.png","images/park1.png","images/park2.png","[2,0,1]","1","2","2","images/park1.png","-1","practice","","","",""
"html-keyboard-response","53","408104","0.0-8.0-2.0-0.6","1963","2","2","""event"",""trial"",""time""
""fullscreenenter"",""1"",""3497""
","
","
","""event"",""trial"",""time""
""fullscreenenter"",""1"",""3497""
","
","","","","","","null","<div style=""font-size:60px;"">+</div>","null","","fixation","","","","","","","","","","","","","",""
"learning-trial","54","412115","0.0-8.0-2.0-1.6","1963","2","2","""event"",""trial"",""time""
""fullscreenenter"",""1"",""3497""
","
","
","""event"",""trial"",""time""
""fullscreenenter"",""1"",""3497""
","
","","","","","","null","images/racket1.png","","","practice","images/park3.png","images/park1.png","images/park2.png","[2,0,1]","2","0","null","null","-1","practice","","","",""
"html-keyboard-response","55","412620","0.0-8.0-2.0-0.7","1963","2","2","""event"",""trial"",""time""
""fullscreenenter"",""1"",""3497""
","
","
","""event"",""trial"",""time""
""fullscreenenter"",""1"",""3497""
","
","","","","","","null","<div style=""font-size:60px;"">+</div>","null","","fixation","","","","","","","","","","","","","",""
"learning-trial","56","416625","0.0-8.0-2.0-1.7","1963","2","2","""event"",""trial"",""time""
""fullscreenenter"",""1"",""3497""
","
","
","""event"",""trial"",""time""
""fullscreenenter"",""1"",""3497""
","
","","","","","","2114.5999999046326","images/ball3.png","","","practice","images/park3.png","images/park2.png","images/park1.png","[2,1,0]","1","1","2","images/park2.png","1","practice","","","",""
"html-keyboard-response","57","417131","0.0-8.0-2.0-0.8","1963","2","2","""event"",""trial"",""time""
""fullscreenenter"",""1"",""3497""
","
","
","""event"",""trial"",""time""
""fullscreenenter"",""1"",""3497""
","
","","","","","","null","<div style=""font-size:60px;"">+</div>","null","","fixation","","","","","","","","","","","","","",""
"learning-trial","58","421140","0.0-8.0-2.0-1.8","1963","2","2","""event"",""trial"",""time""
""fullscreenenter"",""1"",""3497""
","
","
","""event"",""trial"",""time""
""fullscreenenter"",""1"",""3497""
","
","","","","","","2422","images/ball1.png","","","practice","images/park1.png","images/park3.png","images/park2.png","[0,2,1]","0","0","1","images/park1.png","1","practice","","","",""
"html-keyboard-response","59","421646","0.0-8.0-2.0-0.9","1963","2","2","""event"",""trial"",""time""
""fullscreenenter"",""1"",""3497""
","
","
","""event"",""trial"",""time""
""fullscreenenter"",""1"",""3497""
","
","","","","","","null","<div style=""font-size:60px;"">+</div>","null","","fixation","","","","","","","","","","","","","",""
"learning-trial","60","425651","0.0-8.0-2.0-1.9","1963","2","2","""event"",""trial"",""time""
""fullscreenenter"",""1"",""3497""
","
","
","""event"",""trial"",""time""
""fullscreenenter"",""1"",""3497""
","
","","","","","","1109","images/ball1.png","","","practice","images/park1.png","images/park3.png","images/park2.png","[0,2,1]","0","0","1","images/park1.png","1","practice","","","",""
"html-keyboard-response","61","426156","0.0-8.0-2.0-0.10","1963","2","2","""event"",""trial"",""time""
""fullscreenenter"",""1"",""3497""
","
","
","""event"",""trial"",""time""
""fullscreenenter"",""1"",""3497""
","
","","","","","","null","<div style=""font-size:60px;"">+</div>","null","","fixation","","","","","","","","","","","","","",""
"learning-trial","62","430162","0.0-8.0-2.0-1.10","1963","2","2","""event"",""trial"",""time""
""fullscreenenter"",""1"",""3497""
","
","
","""event"",""trial"",""time""
""fullscreenenter"",""1"",""3497""
","
","","","","","","3098.100000023842","images/racket1.png","","","practice","images/park1.png","images/park2.png","images/park3.png","[0,1,2]","2","2","3","images/park3.png","1","practice","","","",""
"html-keyboard-response","63","430666","0.0-8.0-2.0-0.11","1963","2","2","""event"",""trial"",""time""
""fullscreenenter"",""1"",""3497""
","
","
","""event"",""trial"",""time""
""fullscreenenter"",""1"",""3497""
","
","","","","","","null","<div style=""font-size:60px;"">+</div>","null","","fixation","","","","","","","","","","","","","",""
"learning-trial","64","434673","0.0-8.0-2.0-1.11","1963","2","2","""event"",""trial"",""time""
""fullscreenenter"",""1"",""3497""
","
","
","""event"",""trial"",""time""
""fullscreenenter"",""1"",""3497""
","
","","","","","","1676","images/racket3.png","","","practice","images/park2.png","images/park1.png","images/park3.png","[1,0,2]","1","0","1","images/park2.png","1","practice","","","",""
"html-button-response","65","436830","0.0-8.0-3.0","1963","2","2","""event"",""trial"",""time""
""fullscreenenter"",""1"",""3497""
","
","
","""event"",""trial"",""time""
""fullscreenenter"",""1"",""3497""
","
","","","","","","2151.2000000476837","<p> You earned 4 points in the practice round! </p>","0","","break","","","","","","","","","","","","","",""
"learning-instructions","66","446896","0.0-8.0-4.0-0.0","1963","2","2","""event"",""trial"",""time""
""fullscreenenter"",""1"",""3497""
","
","
","""event"",""trial"",""time""
""fullscreenenter"",""1"",""3497""
","
","","","","","","2357.4000000953674","<p> It's almost time to start the real game. </p><p> Before you start, we're going to ask you a few questions about how the game works. </p>","","0","instructions","","","","","","","","","","","","","",""
"preload","67","449356","0.0-8.0-5.0","1963","2","2","""event"",""trial"",""time""
""fullscreenenter"",""1"",""3497""
","
","
","""event"",""trial"",""time""
""fullscreenenter"",""1"",""3497""
","
","true","false","[]","[]","[]","","","","","","","","","","","","","","","","","","",""
"comp-q","68","455864","0.0-8.0-6.0-0.0","1963","2","2","""event"",""trial"",""time""
""fullscreenenter"",""1"",""3497""
","
","
","""event"",""trial"",""time""
""fullscreenenter"",""1"",""3497""
","
","","","","","","1055.6000000238419","<p> <b> True or False? </b> </p><p> If you choose the best option, you will always earn 1 point. </p>","","1","comp_question","","","","","","","","","","","true","","",""
"comp-q","69","462295","0.0-8.0-6.0-1.0","1963","2","2","""event"",""trial"",""time""
""fullscreenenter"",""1"",""3497""
","
","
","""event"",""trial"",""time""
""fullscreenenter"",""1"",""3497""
","
","","","","","","760.3999999761581","<p><b> That's right! </b> Sometimes you will lose 1 point, even if you choose the best option. </p>","","0","comp_answer","","","","","","","","","","","","","",""
"comp-q","70","467496","0.0-8.0-6.0-0.1","1963","2","2","""event"",""trial"",""time""
""fullscreenenter"",""1"",""3497""
","
","
","""event"",""trial"",""time""
""fullscreenenter"",""1"",""3497""
","
","","","","","","569.5","<p> <b> True or False? </b> </p><p> You will have as much time as you want to make each choice. </p>","","1","comp_question","","","","","","","","","","","true","","",""
"comp-q","71","473096","0.0-8.0-6.0-1.1","1963","2","2","""event"",""trial"",""time""
""fullscreenenter"",""1"",""3497""
","
","
","""event"",""trial"",""time""
""fullscreenenter"",""1"",""3497""
","
","","","","","","782.6000000238419","<p> <b> That's right! </b> You will only have 4 seconds to make each choice. </p>","","0","comp_answer","","","","","","","","","","","","","",""
"comp-q","72","480438","0.0-8.0-6.0-0.2","1963","2","2","""event"",""trial"",""time""
""fullscreenenter"",""1"",""3497""
","
","
","""event"",""trial"",""time""
""fullscreenenter"",""1"",""3497""
","
","","","","","","1184.6000000238419","<p> <b> True or False? </b> </p><p> You should use the '1', '2', and '3' keys to make your choices. </p>","","0","comp_question","","","","","","","","","","","true","","",""
"comp-q","73","485983","0.0-8.0-6.0-1.2","1963","2","2","""event"",""trial"",""time""
""fullscreenenter"",""1"",""3497""
","
","
","""event"",""trial"",""time""
""fullscreenenter"",""1"",""3497""
","
","","","","","","686.6000000238419","<p> <b> That's right! </b> You should use the '1', '2', and '3' keys to make each choice. </p>","","0","comp_answer","","","","","","","","","","","","","",""
"learning-instructions","74","494928","0.0-8.0-7.0-0.0","1963","2","2","""event"",""trial"",""time""
""fullscreenenter"",""1"",""3497""
","
","
","""event"",""trial"",""time""
""fullscreenenter"",""1"",""3497""
","
","","","","","","448.39999997615814","<p> It's now time to start the real game. </p>Do your best, because the points you earn in the next rounds will influence your bonus payment. </p>","","0","instructions","","","","","","","","","","","","","",""
"preload","75","497551","0.0-9.0-0.0","1963","2","2","""event"",""trial"",""time""
""fullscreenenter"",""1"",""3497""
","
","
","""event"",""trial"",""time""
""fullscreenenter"",""1"",""3497""
","
","true","false","[]","[]","[]","","","","","","","","","","","","","","","","","","",""
"learning-instructions","76","504769","0.0-9.0-1.0-0.0","1963","2","2","""event"",""trial"",""time""
""fullscreenenter"",""1"",""3497""
","
","
","""event"",""trial"",""time""
""fullscreenenter"",""1"",""3497""
","
","","","","","","761.4000000953674","<p> Your goal in this round is to feed all of your pets with the foods they like. </p><p> You will need to feed many pets. </p></div>","","0","instructions","","","","","","","","","","","","","",""
"learning-instructions","77","513189","0.0-9.0-1.0-0.1","1963","2","2","""event"",""trial"",""time""
""fullscreenenter"",""1"",""3497""
","
","
","""event"",""trial"",""time""
""fullscreenenter"",""1"",""3497""
","
","","","","","","424.10000002384186","<p> On each turn, you will see a picture of one of your pets and three different types of foods.  </p><p> You need to select the food that you want to give to your pet.  </p>","","0","instructions","","","","","","","","","","","","","",""
"learning-instructions","78","520273","0.0-9.0-1.0-0.2","1963","2","2","""event"",""trial"",""time""
""fullscreenenter"",""1"",""3497""
","
","
","""event"",""trial"",""time""
""fullscreenenter"",""1"",""3497""
","
","","","","","","372.40000009536743","<p> You can select the food on the left by pressing 1, the food in the middle by pressing 2, and the food on the right by pressing 3. </p><br><div class=""choice-instructions-grid""> <div class=""choice-option""><img src=""images/pets_choice1.png"" class=""choice-option-img"" stage=""instructions"" position=""0"" ><div class=""choice-option-text""> Press ""1."" </div></div><div class=""choice-option""><img src=""images/pets_choice2.png"" class=""choice-option-img"" stage=""instructions"" position=""1"" ><div class=""choice-option-text""> Press ""2."" </div></div><div class=""choice-option""><img src=""images/pets_choice3.png"" class=""choice-option-img"" stage=""instructions"" position=""2"" ><div class=""choice-option-text""> Press ""3."" </div></div></div>","","0","instructions","","","","","","","","","","","","","",""
"learning-instructions","79","524840","0.0-9.0-1.0-0.3","1963","2","2","""event"",""trial"",""time""
""fullscreenenter"",""1"",""3497""
","
","
","""event"",""trial"",""time""
""fullscreenenter"",""1"",""3497""
","
","","","","","","544.2000000476837","<p> If your pet likes the food you chose, it will be very happy! </p><div style='float: center;'><img src='images/check.png' width = '200' height = '200'></img>","","0","instructions","","","","","","","","","","","","","",""
"learning-instructions","80","529692","0.0-9.0-1.0-0.4","1963","2","2","""event"",""trial"",""time""
""fullscreenenter"",""1"",""3497""
","
","
","""event"",""trial"",""time""
""fullscreenenter"",""1"",""3497""
","
","","","","","","420.10000002384186","<p> But, if your pet does not like the food you chose, it will feel sick. </p><div style='float: center;'><img src='images/x.png' width = '200' height = '200'></img>","","0","instructions","","","","","","","","","","","","","",""
"learning-instructions","81","537892","0.0-9.0-1.0-0.5","1963","2","2","""event"",""trial"",""time""
""fullscreenenter"",""1"",""3497""
","
","
","""event"",""trial"",""time""
""fullscreenenter"",""1"",""3497""
","
","","","","","","551.5999999046326","<p> Importantly, each pet has a food that it prefers. </p><p> If you choose the food that the pet prefers, it will be more likely to be happy! </p>","","0","instructions","","","","","","","","","","","","","",""
"learning-instructions","82","547742","0.0-9.0-1.0-0.6","1963","2","2","""event"",""trial"",""time""
""fullscreenenter"",""1"",""3497""
","
","
","""event"",""trial"",""time""
""fullscreenenter"",""1"",""3497""
","
","","","","","","230.80000007152557","<p> However, even if you choose the food the pet prefers, it may still feel sick sometimes. </p><p> Similarly, even if you choose the <i>wrong</i> food, it may still feel happy.","","0","instructions","","","","","","","","","","","","","",""
"learning-instructions","83","560960","0.0-9.0-1.0-0.7","1963","2","2","""event"",""trial"",""time""
""fullscreenenter"",""1"",""3497""
","
","
","""event"",""trial"",""time""
""fullscreenenter"",""1"",""3497""
","
","","","","","","409.8000000715256","<p> Try to choose the food each pet prefers, because you will <b> WIN </b> 1 point each time the pet is happy and <b>LOSE</b>  1 point each time the pet feels sick. </p><p> Your bonus payment will depend on your total number of points.","","0","instructions","","","","","","","","","","","","","",""
"learning-instructions","84","570177","0.0-9.0-1.0-0.8","1963","2","2","""event"",""trial"",""time""
""fullscreenenter"",""1"",""3497""
","
","
","""event"",""trial"",""time""
""fullscreenenter"",""1"",""3497""
","
","","","","","","611.6000000238419","<p> The position of each food will change throughout the round. </p><p> The food's position <i> does not </i> influence how likely the pet is to feel happy or sick. </p>","","0","instructions","","","","","","","","","","","","","",""
"learning-instructions","85","581527","0.0-9.0-1.0-0.9","1963","2","2","""event"",""trial"",""time""
""fullscreenenter"",""1"",""3497""
","
","
","""event"",""trial"",""time""
""fullscreenenter"",""1"",""3497""
","
","","","","","","2043.9000000953674","<p> You will have 4 seconds to make each choice. Try to respond before time runs out! </p><p> You will lose 1 point each time you do not make a response. </p>","","0","instructions","","","","","","","","","","","","","",""
"html-keyboard-response","86","582136","0.0-9.0-2.0-0.0","1963","2","2","""event"",""trial"",""time""
""fullscreenenter"",""1"",""3497""
","
","
","""event"",""trial"",""time""
""fullscreenenter"",""1"",""3497""
","
","","","","","","null","<div style=""font-size:60px;"">+</div>","null","","fixation","","","","","","","","","","","","","",""
"learning-trial","87","586143","0.0-9.0-2.0-1.0","1963","2","2","""event"",""trial"",""time""
""fullscreenenter"",""1"",""3497""
","
","
","""event"",""trial"",""time""
""fullscreenenter"",""1"",""3497""
","
","","","","","","842.5","images/dog5.png","","","learning","images/pets_choice2.png","images/pets_choice1.png","images/pets_choice3.png","[1,0,2]","1","0","1","images/pets_choice2.png","-1","pets","","dog","2","0"
"html-keyboard-response","88","586647","0.0-9.0-2.0-0.1","1963","2","2","""event"",""trial"",""time""
""fullscreenenter"",""1"",""3497""
","
","
","""event"",""trial"",""time""
""fullscreenenter"",""1"",""3497""
","
","","","","","","null","<div style=""font-size:60px;"">+</div>","null","","fixation","","","","","","","","","","","","","",""
"learning-trial","89","590653","0.0-9.0-2.0-1.1","1963","2","2","""event"",""trial"",""time""
""fullscreenenter"",""1"",""3497""
","
","
","""event"",""trial"",""time""
""fullscreenenter"",""1"",""3497""
","
","","","","","","1121.4000000953674","images/rodent5.png","","","learning","images/pets_choice2.png","images/pets_choice3.png","images/pets_choice1.png","[1,2,0]","1","0","2","images/pets_choice3.png","-1","pets","","rodent","2","0"
"html-keyboard-response","90","591160","0.0-9.0-2.0-0.2","1963","2","2","""event"",""trial"",""time""
""fullscreenenter"",""1"",""3497""
","
","
","""event"",""trial"",""time""
""fullscreenenter"",""1"",""3497""
","
","","","","","","null","<div style=""font-size:60px;"">+</div>","null","","fixation","","","","","","","","","","","","","",""
"learning-trial","91","595168","0.0-9.0-2.0-1.2","1963","2","2","""event"",""trial"",""time""
""fullscreenenter"",""1"",""3497""
","
","
","""event"",""trial"",""time""
""fullscreenenter"",""1"",""3497""
","
","","","","","","1220.8999999761581","images/rodent1.png","","","learning","images/pets_choice1.png","images/pets_choice2.png","images/pets_choice3.png","[0,1,2]","2","2","1","images/pets_choice1.png","-1","pets","","rodent","2","0"
"html-keyboard-response","92","595673","0.0-9.0-2.0-0.3","1963","2","2","""event"",""trial"",""time""
""fullscreenenter"",""1"",""3497""
","
","
","""event"",""trial"",""time""
""fullscreenenter"",""1"",""3497""
","
","","","","","","null","<div style=""font-size:60px;"">+</div>","null","","fixation","","","","","","","","","","","","","",""
"learning-trial","93","599678","0.0-9.0-2.0-1.3","1963","2","2","""event"",""trial"",""time""
""fullscreenenter"",""1"",""3497""
","
","
","""event"",""trial"",""time""
""fullscreenenter"",""1"",""3497""
","
","","","","","","1403.9000000953674","images/dog5.png","","","learning","images/pets_choice3.png","images/pets_choice2.png","images/pets_choice1.png","[2,1,0]","1","1","2","images/pets_choice2.png","1","pets","","dog","2","0"
"html-keyboard-response","94","600181","0.0-9.0-2.0-0.4","1963","2","2","""event"",""trial"",""time""
""fullscreenenter"",""1"",""3497""
","
","
","""event"",""trial"",""time""
""fullscreenenter"",""1"",""3497""
","
","","","","","","null","<div style=""font-size:60px;"">+</div>","null","","fixation","","","","","","","","","","","","","",""
"learning-trial","95","604186","0.0-9.0-2.0-1.4","1963","2","2","""event"",""trial"",""time""
""fullscreenenter"",""1"",""3497""
","
","
","""event"",""trial"",""time""
""fullscreenenter"",""1"",""3497""
","
","","","","","","1749.6000000238419","images/dog4.png","","","learning","images/pets_choice1.png","images/pets_choice3.png","images/pets_choice2.png","[0,2,1]","0","0","3","images/pets_choice2.png","-1","pets","","dog","2","0"
"html-keyboard-response","96","604692","0.0-9.0-2.0-0.5","1963","2","2","""event"",""trial"",""time""
""fullscreenenter"",""1"",""3497""
","
","
","""event"",""trial"",""time""
""fullscreenenter"",""1"",""3497""
","
","","","","","","null","<div style=""font-size:60px;"">+</div>","null","","fixation","","","","","","","","","","","","","",""
"learning-trial","97","608701","0.0-9.0-2.0-1.5","1963","2","2","""event"",""trial"",""time""
""fullscreenenter"",""1"",""3497""
","
","
","""event"",""trial"",""time""
""fullscreenenter"",""1"",""3497""
","
","","","","","","1186.3999999761581","images/dog1.png","","","learning","images/pets_choice1.png","images/pets_choice2.png","images/pets_choice3.png","[0,1,2]","2","2","1","images/pets_choice1.png","-1","pets","","dog","2","0"
"html-keyboard-response","98","609203","0.0-9.0-2.0-0.6","1963","2","2","""event"",""trial"",""time""
""fullscreenenter"",""1"",""3497""
","
","
","""event"",""trial"",""time""
""fullscreenenter"",""1"",""3497""
","
","","","","","","null","<div style=""font-size:60px;"">+</div>","null","","fixation","","","","","","","","","","","","","",""
"learning-trial","99","613207","0.0-9.0-2.0-1.6","1963","2","2","""event"",""trial"",""time""
""fullscreenenter"",""1"",""3497""
","
","
","""event"",""trial"",""time""
""fullscreenenter"",""1"",""3497""
","
","","","","","","730.8000000715256","images/feline5.png","","","learning","images/pets_choice1.png","images/pets_choice2.png","images/pets_choice3.png","[0,1,2]","0","0","1","images/pets_choice1.png","1","pets","","feline","2","0"
"html-keyboard-response","100","613711","0.0-9.0-2.0-0.7","1963","2","2","""event"",""trial"",""time""
""fullscreenenter"",""1"",""3497""
","
","
","""event"",""trial"",""time""
""fullscreenenter"",""1"",""3497""
","
","","","","","","null","<div style=""font-size:60px;"">+</div>","null","","fixation","","","","","","","","","","","","","",""
"learning-trial","101","617719","0.0-9.0-2.0-1.7","1963","2","2","""event"",""trial"",""time""
""fullscreenenter"",""1"",""3497""
","
","
","""event"",""trial"",""time""
""fullscreenenter"",""1"",""3497""
","
","","","","","","878.1000000238419","images/rodent3.png","","","learning","images/pets_choice2.png","images/pets_choice1.png","images/pets_choice3.png","[1,0,2]","0","1","2","images/pets_choice1.png","1","pets","","rodent","2","0"
"html-keyboard-response","102","618222","0.0-9.0-2.0-0.8","1963","2","2","""event"",""trial"",""time""
""fullscreenenter"",""1"",""3497""
","
","
","""event"",""trial"",""time""
""fullscreenenter"",""1"",""3497""
","
","","","","","","null","<div style=""font-size:60px;"">+</div>","null","","fixation","","","","","","","","","","","","","",""
"learning-trial","103","622228","0.0-9.0-2.0-1.8","1963","2","2","""event"",""trial"",""time""
""fullscreenenter"",""1"",""3497""
","
","
","""event"",""trial"",""time""
""fullscreenenter"",""1"",""3497""
","
","","","","","","1340.5","images/feline5.png","","","learning","images/pets_choice2.png","images/pets_choice3.png","images/pets_choice1.png","[1,2,0]","0","2","3","images/pets_choice1.png","1","pets","","feline","2","0"
"html-keyboard-response","104","622734","0.0-9.0-2.0-0.9","1963","2","2","""event"",""trial"",""time""
""fullscreenenter"",""1"",""3497""
","
","
","""event"",""trial"",""time""
""fullscreenenter"",""1"",""3497""
","
","","","","","","null","<div style=""font-size:60px;"">+</div>","null","","fixation","","","","","","","","","","","","","",""
"learning-trial","105","626744","0.0-9.0-2.0-1.9","1963","2","2","""event"",""trial"",""time""
""fullscreenenter"",""1"",""3497""
","
","
","""event"",""trial"",""time""
""fullscreenenter"",""1"",""3497""
","
","","","","","","1653.1000000238419","images/feline2.png","","","learning","images/pets_choice2.png","images/pets_choice1.png","images/pets_choice3.png","[1,0,2]","2","2","2","images/pets_choice1.png","-1","pets","","feline","2","0"
"html-keyboard-response","106","627248","0.0-9.0-2.0-0.10","1963","2","2","""event"",""trial"",""time""
""fullscreenenter"",""1"",""3497""
","
","
","""event"",""trial"",""time""
""fullscreenenter"",""1"",""3497""
","
","","","","","","null","<div style=""font-size:60px;"">+</div>","null","","fixation","","","","","","","","","","","","","",""
"learning-trial","107","631254","0.0-9.0-2.0-1.10","1963","2","2","""event"",""trial"",""time""
""fullscreenenter"",""1"",""3497""
","
","
","""event"",""trial"",""time""
""fullscreenenter"",""1"",""3497""
","
","","","","","","2641.7999999523163","images/feline5.png","","","learning","images/pets_choice2.png","images/pets_choice1.png","images/pets_choice3.png","[1,0,2]","0","1","1","images/pets_choice2.png","-1","pets","","feline","2","0"
"html-keyboard-response","108","631759","0.0-9.0-2.0-0.11","1963","2","2","""event"",""trial"",""time""
""fullscreenenter"",""1"",""3497""
","
","
","""event"",""trial"",""time""
""fullscreenenter"",""1"",""3497""
","
","","","","","","null","<div style=""font-size:60px;"">+</div>","null","","fixation","","","","","","","","","","","","","",""
"learning-trial","109","635764","0.0-9.0-2.0-1.11","1963","2","2","""event"",""trial"",""time""
""fullscreenenter"",""1"",""3497""
","
","
","""event"",""trial"",""time""
""fullscreenenter"",""1"",""3497""
","
","","","","","","1507.6999999284744","images/rodent3.png","","","learning","images/pets_choice3.png","images/pets_choice1.png","images/pets_choice2.png","[2,0,1]","0","1","3","images/pets_choice2.png","-1","pets","","rodent","2","0"
"html-keyboard-response","110","636269","0.0-9.0-2.0-0.12","1963","2","2","""event"",""trial"",""time""
""fullscreenenter"",""1"",""3497""
","
","
","""event"",""trial"",""time""
""fullscreenenter"",""1"",""3497""
","
","","","","","","null","<div style=""font-size:60px;"">+</div>","null","","fixation","","","","","","","","","","","","","",""
"learning-trial","111","640278","0.0-9.0-2.0-1.12","1963","2","2","""event"",""trial"",""time""
""fullscreenenter"",""1"",""3497""
","
","
","""event"",""trial"",""time""
""fullscreenenter"",""1"",""3497""
","
","","","","","","929.8999999761581","images/feline4.png","","","learning","images/pets_choice3.png","images/pets_choice1.png","images/pets_choice2.png","[2,0,1]","1","2","2","images/pets_choice1.png","-1","pets","","feline","2","0"
"html-keyboard-response","112","640779","0.0-9.0-2.0-0.13","1963","2","2","""event"",""trial"",""time""
""fullscreenenter"",""1"",""3497""
","
","
","""event"",""trial"",""time""
""fullscreenenter"",""1"",""3497""
","
","","","","","","null","<div style=""font-size:60px;"">+</div>","null","","fixation","","","","","","","","","","","","","",""
"learning-trial","113","644787","0.0-9.0-2.0-1.13","1963","2","2","""event"",""trial"",""time""
""fullscreenenter"",""1"",""3497""
","
","
","""event"",""trial"",""time""
""fullscreenenter"",""1"",""3497""
","
","","","","","","1396.6999999284744","images/rodent5.png","","","learning","images/pets_choice2.png","images/pets_choice1.png","images/pets_choice3.png","[1,0,2]","1","0","1","images/pets_choice2.png","1","pets","","rodent","2","0"
"html-keyboard-response","114","645290","0.0-9.0-2.0-0.14","1963","2","2","""event"",""trial"",""time""
""fullscreenenter"",""1"",""3497""
","
","
","""event"",""trial"",""time""
""fullscreenenter"",""1"",""3497""
","
","","","","","","null","<div style=""font-size:60px;"">+</div>","null","","fixation","","","","","","","","","","","","","",""
"learning-trial","115","649295","0.0-9.0-2.0-1.14","1963","2","2","""event"",""trial"",""time""
""fullscreenenter"",""1"",""3497""
","
","
","""event"",""trial"",""time""
""fullscreenenter"",""1"",""3497""
","
","","","","","","1440.7999999523163","images/dog5.png","","","learning","images/pets_choice1.png","images/pets_choice2.png","images/pets_choice3.png","[0,1,2]","1","1","2","images/pets_choice2.png","1","pets","","dog","2","0"
"html-keyboard-response","116","649800","0.0-9.0-2.0-0.15","1963","2","2","""event"",""trial"",""time""
""fullscreenenter"",""1"",""3497""
","
","
","""event"",""trial"",""time""
""fullscreenenter"",""1"",""3497""
","
","","","","","","null","<div style=""font-size:60px;"">+</div>","null","","fixation","","","","","","","","","","","","","",""
"learning-trial","117","653807","0.0-9.0-2.0-1.15","1963","2","2","""event"",""trial"",""time""
""fullscreenenter"",""1"",""3497""
","
","
","""event"",""trial"",""time""
""fullscreenenter"",""1"",""3497""
","
","","","","","","1381.0999999046326","images/feline2.png","","","learning","images/pets_choice3.png","images/pets_choice2.png","images/pets_choice1.png","[2,1,0]","2","0","1","images/pets_choice3.png","1","pets","","feline","2","0"
"html-keyboard-response","118","654311","0.0-9.0-2.0-0.16","1963","2","2","""event"",""trial"",""time""
""fullscreenenter"",""1"",""3497""
","
","
","""event"",""trial"",""time""
""fullscreenenter"",""1"",""3497""
","
","","","","","","null","<div style=""font-size:60px;"">+</div>","null","","fixation","","","","","","","","","","","","","",""
"learning-trial","119","658320","0.0-9.0-2.0-1.16","1963","2","2","""event"",""trial"",""time""
""fullscreenenter"",""1"",""3497""
","
","
","""event"",""trial"",""time""
""fullscreenenter"",""1"",""3497""
","
","","","","","","1505.1000000238419","images/rodent5.png","","","learning","images/pets_choice1.png","images/pets_choice2.png","images/pets_choice3.png","[0,1,2]","1","1","2","images/pets_choice2.png","1","pets","","rodent","2","0"
"html-keyboard-response","120","658826","0.0-9.0-2.0-0.17","1963","2","2","""event"",""trial"",""time""
""fullscreenenter"",""1"",""3497""
","
","
","""event"",""trial"",""time""
""fullscreenenter"",""1"",""3497""
","
","","","","","","null","<div style=""font-size:60px;"">+</div>","null","","fixation","","","","","","","","","","","","","",""
"learning-trial","121","662832","0.0-9.0-2.0-1.17","1963","2","2","""event"",""trial"",""time""
""fullscreenenter"",""1"",""3497""
","
","
","""event"",""trial"",""time""
""fullscreenenter"",""1"",""3497""
","
","","","","","","966.8999999761581","images/dog5.png","","","learning","images/pets_choice1.png","images/pets_choice2.png","images/pets_choice3.png","[0,1,2]","1","1","2","images/pets_choice2.png","1","pets","","dog","2","0"
"html-keyboard-response","122","663337","0.0-9.0-2.0-0.18","1963","2","2","""event"",""trial"",""time""
""fullscreenenter"",""1"",""3497""
","
","
","""event"",""trial"",""time""
""fullscreenenter"",""1"",""3497""
","
","","","","","","null","<div style=""font-size:60px;"">+</div>","null","","fixation","","","","","","","","","","","","","",""
"learning-trial","123","667343","0.0-9.0-2.0-1.18","1963","2","2","""event"",""trial"",""time""
""fullscreenenter"",""1"",""3497""
","
","
","""event"",""trial"",""time""
""fullscreenenter"",""1"",""3497""
","
","","","","","","764.6000000238419","images/rodent5.png","","","learning","images/pets_choice1.png","images/pets_choice2.png","images/pets_choice3.png","[0,1,2]","1","1","2","images/pets_choice2.png","1","pets","","rodent","2","0"
"html-keyboard-response","124","667847","0.0-9.0-2.0-0.19","1963","2","2","""event"",""trial"",""time""
""fullscreenenter"",""1"",""3497""
","
","
","""event"",""trial"",""time""
""fullscreenenter"",""1"",""3497""
","
","","","","","","null","<div style=""font-size:60px;"">+</div>","null","","fixation","","","","","","","","","","","","","",""
"learning-trial","125","671853","0.0-9.0-2.0-1.19","1963","2","2","""event"",""trial"",""time""
""fullscreenenter"",""1"",""3497""
","
","
","""event"",""trial"",""time""
""fullscreenenter"",""1"",""3497""
","
","","","","","","1275.4000000953674","images/rodent5.png","","","learning","images/pets_choice3.png","images/pets_choice1.png","images/pets_choice2.png","[2,0,1]","1","2","3","images/pets_choice2.png","1","pets","","rodent","2","0"
"html-keyboard-response","126","672357","0.0-9.0-2.0-0.20","1963","2","2","""event"",""trial"",""time""
""fullscreenenter"",""1"",""3497""
","
","
","""event"",""trial"",""time""
""fullscreenenter"",""1"",""3497""
","
","","","","","","null","<div style=""font-size:60px;"">+</div>","null","","fixation","","","","","","","","","","","","","",""
"learning-trial","127","676363","0.0-9.0-2.0-1.20","1963","2","2","""event"",""trial"",""time""
""fullscreenenter"",""1"",""3497""
","
","
","""event"",""trial"",""time""
""fullscreenenter"",""1"",""3497""
","
","","","","","","911.5999999046326","images/dog5.png","","","learning","images/pets_choice2.png","images/pets_choice1.png","images/pets_choice3.png","[1,0,2]","1","0","1","images/pets_choice2.png","1","pets","","dog","2","0"
"html-keyboard-response","128","676869","0.0-9.0-2.0-0.21","1963","2","2","""event"",""trial"",""time""
""fullscreenenter"",""1"",""3497""
","
","
","""event"",""trial"",""time""
""fullscreenenter"",""1"",""3497""
","
","","","","","","null","<div style=""font-size:60px;"">+</div>","null","","fixation","","","","","","","","","","","","","",""
"learning-trial","129","680879","0.0-9.0-2.0-1.21","1963","2","2","""event"",""trial"",""time""
""fullscreenenter"",""1"",""3497""
","
","
","""event"",""trial"",""time""
""fullscreenenter"",""1"",""3497""
","
","","","","","","1001.2999999523163","images/dog5.png","","","learning","images/pets_choice1.png","images/pets_choice2.png","images/pets_choice3.png","[0,1,2]","1","1","2","images/pets_choice2.png","1","pets","","dog","2","0"
"html-keyboard-response","130","681384","0.0-9.0-2.0-0.22","1963","2","2","""event"",""trial"",""time""
""fullscreenenter"",""1"",""3497""
","
","
","""event"",""trial"",""time""
""fullscreenenter"",""1"",""3497""
","
","","","","","","null","<div style=""font-size:60px;"">+</div>","null","","fixation","","","","","","","","","","","","","",""
"learning-trial","131","685389","0.0-9.0-2.0-1.22","1963","2","2","""event"",""trial"",""time""
""fullscreenenter"",""1"",""3497""
","
","
","""event"",""trial"",""time""
""fullscreenenter"",""1"",""3497""
","
","","","","","","2033.3999999761581","images/feline5.png","","","learning","images/pets_choice3.png","images/pets_choice1.png","images/pets_choice2.png","[2,0,1]","0","1","2","images/pets_choice1.png","1","pets","","feline","2","0"
"html-keyboard-response","132","685895","0.0-9.0-2.0-0.23","1963","2","2","""event"",""trial"",""time""
""fullscreenenter"",""1"",""3497""
","
","
","""event"",""trial"",""time""
""fullscreenenter"",""1"",""3497""
","
","","","","","","null","<div style=""font-size:60px;"">+</div>","null","","fixation","","","","","","","","","","","","","",""
"learning-trial","133","689899","0.0-9.0-2.0-1.23","1963","2","2","""event"",""trial"",""time""
""fullscreenenter"",""1"",""3497""
","
","
","""event"",""trial"",""time""
""fullscreenenter"",""1"",""3497""
","
","","","","","","1675.7000000476837","images/feline2.png","","","learning","images/pets_choice1.png","images/pets_choice2.png","images/pets_choice3.png","[0,1,2]","2","2","3","images/pets_choice3.png","1","pets","","feline","2","0"
"html-keyboard-response","134","690404","0.0-9.0-2.0-0.24","1963","2","2","""event"",""trial"",""time""
""fullscreenenter"",""1"",""3497""
","
","
","""event"",""trial"",""time""
""fullscreenenter"",""1"",""3497""
","
","","","","","","null","<div style=""font-size:60px;"">+</div>","null","","fixation","","","","","","","","","","","","","",""
"learning-trial","135","694412","0.0-9.0-2.0-1.24","1963","2","2","""event"",""trial"",""time""
""fullscreenenter"",""1"",""3497""
","
","
","""event"",""trial"",""time""
""fullscreenenter"",""1"",""3497""
","
","","","","","","1129.3999999761581","images/rodent5.png","","","learning","images/pets_choice3.png","images/pets_choice1.png","images/pets_choice2.png","[2,0,1]","1","2","3","images/pets_choice2.png","1","pets","","rodent","2","0"
"html-keyboard-response","136","694915","0.0-9.0-2.0-0.25","1963","2","2","""event"",""trial"",""time""
""fullscreenenter"",""1"",""3497""
","
","
","""event"",""trial"",""time""
""fullscreenenter"",""1"",""3497""
","
","","","","","","null","<div style=""font-size:60px;"">+</div>","null","","fixation","","","","","","","","","","","","","",""
"learning-trial","137","698920","0.0-9.0-2.0-1.25","1963","2","2","""event"",""trial"",""time""
""fullscreenenter"",""1"",""3497""
","
","
","""event"",""trial"",""time""
""fullscreenenter"",""1"",""3497""
","
","","","","","","1572.5","images/rodent1.png","","","learning","images/pets_choice3.png","images/pets_choice2.png","images/pets_choice1.png","[2,1,0]","2","0","1","images/pets_choice3.png","1","pets","","rodent","2","0"
"html-keyboard-response","138","699425","0.0-9.0-2.0-0.26","1963","2","2","""event"",""trial"",""time""
""fullscreenenter"",""1"",""3497""
","
","
","""event"",""trial"",""time""
""fullscreenenter"",""1"",""3497""
","
","","","","","","null","<div style=""font-size:60px;"">+</div>","null","","fixation","","","","","","","","","","","","","",""
"learning-trial","139","703431","0.0-9.0-2.0-1.26","1963","2","2","""event"",""trial"",""time""
""fullscreenenter"",""1"",""3497""
","
","
","""event"",""trial"",""time""
""fullscreenenter"",""1"",""3497""
","
","","","","","","952.7999999523163","images/dog5.png","","","learning","images/pets_choice1.png","images/pets_choice2.png","images/pets_choice3.png","[0,1,2]","1","1","2","images/pets_choice2.png","1","pets","","dog","2","0"
"html-keyboard-response","140","703936","0.0-9.0-2.0-0.27","1963","2","2","""event"",""trial"",""time""
""fullscreenenter"",""1"",""3497""
","
","
","""event"",""trial"",""time""
""fullscreenenter"",""1"",""3497""
","
","","","","","","null","<div style=""font-size:60px;"">+</div>","null","","fixation","","","","","","","","","","","","","",""
"learning-trial","141","707941","0.0-9.0-2.0-1.27","1963","2","2","""event"",""trial"",""time""
""fullscreenenter"",""1"",""3497""
","
","
","""event"",""trial"",""time""
""fullscreenenter"",""1"",""3497""
","
","","","","","","2049.5","images/feline2.png","","","learning","images/pets_choice3.png","images/pets_choice2.png","images/pets_choice1.png","[2,1,0]","2","0","1","images/pets_choice3.png","1","pets","","feline","2","0"
"html-keyboard-response","142","708446","0.0-9.0-2.0-0.28","1963","2","2","""event"",""trial"",""time""
""fullscreenenter"",""1"",""3497""
","
","
","""event"",""trial"",""time""
""fullscreenenter"",""1"",""3497""
","
","","","","","","null","<div style=""font-size:60px;"">+</div>","null","","fixation","","","","","","","","","","","","","",""
"learning-trial","143","712453","0.0-9.0-2.0-1.28","1963","2","2","""event"",""trial"",""time""
""fullscreenenter"",""1"",""3497""
","
","
","""event"",""trial"",""time""
""fullscreenenter"",""1"",""3497""
","
","","","","","","1822.6999999284744","images/feline4.png","","","learning","images/pets_choice3.png","images/pets_choice2.png","images/pets_choice1.png","[2,1,0]","1","1","1","images/pets_choice3.png","-1","pets","","feline","2","0"
"html-keyboard-response","144","712956","0.0-9.0-2.0-0.29","1963","2","2","""event"",""trial"",""time""
""fullscreenenter"",""1"",""3497""
","
","
","""event"",""trial"",""time""
""fullscreenenter"",""1"",""3497""
","
","","","","","","null","<div style=""font-size:60px;"">+</div>","null","","fixation","","","","","","","","","","","","","",""
"learning-trial","145","716962","0.0-9.0-2.0-1.29","1963","2","2","""event"",""trial"",""time""
""fullscreenenter"",""1"",""3497""
","
","
","""event"",""trial"",""time""
""fullscreenenter"",""1"",""3497""
","
","","","","","","2206.7000000476837","images/rodent3.png","","","learning","images/pets_choice2.png","images/pets_choice1.png","images/pets_choice3.png","[1,0,2]","0","1","2","images/pets_choice1.png","1","pets","","rodent","2","0"
"html-keyboard-response","146","717466","0.0-9.0-2.0-0.30","1963","2","2","""event"",""trial"",""time""
""fullscreenenter"",""1"",""3497""
","
","
","""event"",""trial"",""time""
""fullscreenenter"",""1"",""3497""
","
","","","","","","null","<div style=""font-size:60px;"">+</div>","null","","fixation","","","","","","","","","","","","","",""
"learning-trial","147","721471","0.0-9.0-2.0-1.30","1963","2","2","""event"",""trial"",""time""
""fullscreenenter"",""1"",""3497""
","
","
","""event"",""trial"",""time""
""fullscreenenter"",""1"",""3497""
","
","","","","","","1414","images/rodent1.png","","","learning","images/pets_choice1.png","images/pets_choice3.png","images/pets_choice2.png","[0,2,1]","2","1","3","images/pets_choice2.png","-1","pets","","rodent","2","0"
"html-keyboard-response","148","721977","0.0-9.0-2.0-0.31","1963","2","2","""event"",""trial"",""time""
""fullscreenenter"",""1"",""3497""
","
","
","""event"",""trial"",""time""
""fullscreenenter"",""1"",""3497""
","
","","","","","","null","<div style=""font-size:60px;"">+</div>","null","","fixation","","","","","","","","","","","","","",""
"learning-trial","149","725982","0.0-9.0-2.0-1.31","1963","2","2","""event"",""trial"",""time""
""fullscreenenter"",""1"",""3497""
","
","
","""event"",""trial"",""time""
""fullscreenenter"",""1"",""3497""
","
","","","","","","1200.7000000476837","images/dog1.png","","","learning","images/pets_choice1.png","images/pets_choice2.png","images/pets_choice3.png","[0,1,2]","2","2","1","images/pets_choice1.png","-1","pets","","dog","2","0"
"html-keyboard-response","150","726487","0.0-9.0-2.0-0.32","1963","2","2","""event"",""trial"",""time""
""fullscreenenter"",""1"",""3497""
","
","
","""event"",""trial"",""time""
""fullscreenenter"",""1"",""3497""
","
","","","","","","null","<div style=""font-size:60px;"">+</div>","null","","fixation","","","","","","","","","","","","","",""
"learning-trial","151","730492","0.0-9.0-2.0-1.32","1963","2","2","""event"",""trial"",""time""
""fullscreenenter"",""1"",""3497""
","
","
","""event"",""trial"",""time""
""fullscreenenter"",""1"",""3497""
","
","","","","","","1138.6000000238419","images/dog4.png","","","learning","images/pets_choice2.png","images/pets_choice1.png","images/pets_choice3.png","[1,0,2]","0","1","2","images/pets_choice1.png","1","pets","","dog","2","0"
"html-keyboard-response","152","730997","0.0-9.0-2.0-0.33","1963","2","2","""event"",""trial"",""time""
""fullscreenenter"",""1"",""3497""
","
","
","""event"",""trial"",""time""
""fullscreenenter"",""1"",""3497""
","
","","","","","","null","<div style=""font-size:60px;"">+</div>","null","","fixation","","","","","","","","","","","","","",""
"learning-trial","153","735003","0.0-9.0-2.0-1.33","1963","2","2","""event"",""trial"",""time""
""fullscreenenter"",""1"",""3497""
","
","
","""event"",""trial"",""time""
""fullscreenenter"",""1"",""3497""
","
","","","","","","1645.8999999761581","images/dog1.png","","","learning","images/pets_choice3.png","images/pets_choice1.png","images/pets_choice2.png","[2,0,1]","2","0","1","images/pets_choice3.png","1","pets","","dog","2","0"
"html-keyboard-response","154","735508","0.0-9.0-2.0-0.34","1963","2","2","""event"",""trial"",""time""
""fullscreenenter"",""1"",""3497""
","
","
","""event"",""trial"",""time""
""fullscreenenter"",""1"",""3497""
","
","","","","","","null","<div style=""font-size:60px;"">+</div>","null","","fixation","","","","","","","","","","","","","",""
"learning-trial","155","739513","0.0-9.0-2.0-1.34","1963","2","2","""event"",""trial"",""time""
""fullscreenenter"",""1"",""3497""
","
","
","""event"",""trial"",""time""
""fullscreenenter"",""1"",""3497""
","
","","","","","","573.3999999761581","images/dog1.png","","","learning","images/pets_choice3.png","images/pets_choice2.png","images/pets_choice1.png","[2,1,0]","2","0","1","images/pets_choice3.png","-1","pets","","dog","2","0"
"html-keyboard-response","156","740017","0.0-9.0-2.0-0.35","1963","2","2","""event"",""trial"",""time""
""fullscreenenter"",""1"",""3497""
","
","
","""event"",""trial"",""time""
""fullscreenenter"",""1"",""3497""
","
","","","","","","null","<div style=""font-size:60px;"">+</div>","null","","fixation","","","","","","","","","","","","","",""
"learning-trial","157","744021","0.0-9.0-2.0-1.35","1963","2","2","""event"",""trial"",""time""
""fullscreenenter"",""1"",""3497""
","
","
","""event"",""trial"",""time""
""fullscreenenter"",""1"",""3497""
","
","","","","","","1092.3000000715256","images/rodent5.png","","","learning","images/pets_choice1.png","images/pets_choice2.png","images/pets_choice3.png","[0,1,2]","1","1","2","images/pets_choice2.png","1","pets","","rodent","2","0"
"html-keyboard-response","158","744522","0.0-9.0-2.0-0.36","1963","2","2","""event"",""trial"",""time""
""fullscreenenter"",""1"",""3497""
","
","
","""event"",""trial"",""time""
""fullscreenenter"",""1"",""3497""
","
","","","","","","null","<div style=""font-size:60px;"">+</div>","null","","fixation","","","","","","","","","","","","","",""
"learning-trial","159","748528","0.0-9.0-2.0-1.36","1963","2","2","""event"",""trial"",""time""
""fullscreenenter"",""1"",""3497""
","
","
","""event"",""trial"",""time""
""fullscreenenter"",""1"",""3497""
","
","","","","","","2972","images/dog4.png","","","learning","images/pets_choice2.png","images/pets_choice1.png","images/pets_choice3.png","[1,0,2]","0","1","3","images/pets_choice3.png","-1","pets","","dog","2","0"
"html-keyboard-response","160","749033","0.0-9.0-2.0-0.37","1963","2","2","""event"",""trial"",""time""
""fullscreenenter"",""1"",""3497""
","
","
","""event"",""trial"",""time""
""fullscreenenter"",""1"",""3497""
","
","","","","","","null","<div style=""font-size:60px;"">+</div>","null","","fixation","","","","","","","","","","","","","",""
"learning-trial","161","753038","0.0-9.0-2.0-1.37","1963","2","2","""event"",""trial"",""time""
""fullscreenenter"",""1"",""3497""
","
","
","""event"",""trial"",""time""
""fullscreenenter"",""1"",""3497""
","
","","","","","","1068.2000000476837","images/feline2.png","","","learning","images/pets_choice3.png","images/pets_choice1.png","images/pets_choice2.png","[2,0,1]","2","0","1","images/pets_choice3.png","1","pets","","feline","2","0"
"html-keyboard-response","162","753543","0.0-9.0-2.0-0.38","1963","2","2","""event"",""trial"",""time""
""fullscreenenter"",""1"",""3497""
","
","
","""event"",""trial"",""time""
""fullscreenenter"",""1"",""3497""
","
","","","","","","null","<div style=""font-size:60px;"">+</div>","null","","fixation","","","","","","","","","","","","","",""
"learning-trial","163","757549","0.0-9.0-2.0-1.38","1963","2","2","""event"",""trial"",""time""
""fullscreenenter"",""1"",""3497""
","
","
","""event"",""trial"",""time""
""fullscreenenter"",""1"",""3497""
","
","","","","","","1493.7999999523163","images/feline5.png","","","learning","images/pets_choice2.png","images/pets_choice1.png","images/pets_choice3.png","[1,0,2]","0","1","1","images/pets_choice2.png","-1","pets","","feline","2","0"
"html-keyboard-response","164","758053","0.0-9.0-2.0-0.39","1963","2","2","""event"",""trial"",""time""
""fullscreenenter"",""1"",""3497""
","
","
","""event"",""trial"",""time""
""fullscreenenter"",""1"",""3497""
","
","","","","","","null","<div style=""font-size:60px;"">+</div>","null","","fixation","","","","","","","","","","","","","",""
"learning-trial","165","762059","0.0-9.0-2.0-1.39","1963","2","2","""event"",""trial"",""time""
""fullscreenenter"",""1"",""3497""
","
","
","""event"",""trial"",""time""
""fullscreenenter"",""1"",""3497""
","
","","","","","","2969","images/dog4.png","","","learning","images/pets_choice3.png","images/pets_choice2.png","images/pets_choice1.png","[2,1,0]","0","2","1","images/pets_choice3.png","-1","pets","","dog","2","0"
"html-keyboard-response","166","762563","0.0-9.0-2.0-0.40","1963","2","2","""event"",""trial"",""time""
""fullscreenenter"",""1"",""3497""
","
","
","""event"",""trial"",""time""
""fullscreenenter"",""1"",""3497""
","
","","","","","","null","<div style=""font-size:60px;"">+</div>","null","","fixation","","","","","","","","","","","","","",""
"learning-trial","167","766569","0.0-9.0-2.0-1.40","1963","2","2","""event"",""trial"",""time""
""fullscreenenter"",""1"",""3497""
","
","
","""event"",""trial"",""time""
""fullscreenenter"",""1"",""3497""
","
","","","","","","1201.4000000953674","images/dog1.png","","","learning","images/pets_choice1.png","images/pets_choice3.png","images/pets_choice2.png","[0,2,1]","2","1","1","images/pets_choice1.png","1","pets","","dog","2","0"
"html-keyboard-response","168","767074","0.0-9.0-2.0-0.41","1963","2","2","""event"",""trial"",""time""
""fullscreenenter"",""1"",""3497""
","
","
","""event"",""trial"",""time""
""fullscreenenter"",""1"",""3497""
","
","","","","","","null","<div style=""font-size:60px;"">+</div>","null","","fixation","","","","","","","","","","","","","",""
"learning-trial","169","771079","0.0-9.0-2.0-1.41","1963","2","2","""event"",""trial"",""time""
""fullscreenenter"",""1"",""3497""
","
","
","""event"",""trial"",""time""
""fullscreenenter"",""1"",""3497""
","
","","","","","","1929.6000000238419","images/feline4.png","","","learning","images/pets_choice2.png","images/pets_choice1.png","images/pets_choice3.png","[1,0,2]","1","0","2","images/pets_choice1.png","-1","pets","","feline","2","0"
"html-keyboard-response","170","771584","0.0-9.0-2.0-0.42","1963","2","2","""event"",""trial"",""time""
""fullscreenenter"",""1"",""3497""
","
","
","""event"",""trial"",""time""
""fullscreenenter"",""1"",""3497""
","
","","","","","","null","<div style=""font-size:60px;"">+</div>","null","","fixation","","","","","","","","","","","","","",""
"learning-trial","171","775590","0.0-9.0-2.0-1.42","1963","2","2","""event"",""trial"",""time""
""fullscreenenter"",""1"",""3497""
","
","
","""event"",""trial"",""time""
""fullscreenenter"",""1"",""3497""
","
","","","","","","1389.6000000238419","images/rodent3.png","","","learning","images/pets_choice1.png","images/pets_choice2.png","images/pets_choice3.png","[0,1,2]","0","0","2","images/pets_choice2.png","-1","pets","","rodent","2","0"
"html-keyboard-response","172","776095","0.0-9.0-2.0-0.43","1963","2","2","""event"",""trial"",""time""
""fullscreenenter"",""1"",""3497""
","
","
","""event"",""trial"",""time""
""fullscreenenter"",""1"",""3497""
","
","","","","","","null","<div style=""font-size:60px;"">+</div>","null","","fixation","","","","","","","","","","","","","",""
"learning-trial","173","780102","0.0-9.0-2.0-1.43","1963","2","2","""event"",""trial"",""time""
""fullscreenenter"",""1"",""3497""
","
","
","""event"",""trial"",""time""
""fullscreenenter"",""1"",""3497""
","
","","","","","","3716.899999976158","images/feline5.png","","","learning","images/pets_choice1.png","images/pets_choice3.png","images/pets_choice2.png","[0,2,1]","0","0","3","images/pets_choice2.png","-1","pets","","feline","2","0"
"html-keyboard-response","174","780605","0.0-9.0-2.0-0.44","1963","2","2","""event"",""trial"",""time""
""fullscreenenter"",""1"",""3497""
","
","
","""event"",""trial"",""time""
""fullscreenenter"",""1"",""3497""
","
","","","","","","null","<div style=""font-size:60px;"">+</div>","null","","fixation","","","","","","","","","","","","","",""
"learning-trial","175","784611","0.0-9.0-2.0-1.44","1963","2","2","""event"",""trial"",""time""
""fullscreenenter"",""1"",""3497""
","
","
","""event"",""trial"",""time""
""fullscreenenter"",""1"",""3497""
","
","","","","","","1913.7999999523163","images/dog4.png","","","learning","images/pets_choice1.png","images/pets_choice3.png","images/pets_choice2.png","[0,2,1]","0","0","1","images/pets_choice1.png","1","pets","","dog","2","0"
"html-keyboard-response","176","785115","0.0-9.0-2.0-0.45","1963","2","2","""event"",""trial"",""time""
""fullscreenenter"",""1"",""3497""
","
","
","""event"",""trial"",""time""
""fullscreenenter"",""1"",""3497""
","
","","","","","","null","<div style=""font-size:60px;"">+</div>","null","","fixation","","","","","","","","","","","","","",""
"learning-trial","177","789121","0.0-9.0-2.0-1.45","1963","2","2","""event"",""trial"",""time""
""fullscreenenter"",""1"",""3497""
","
","
","""event"",""trial"",""time""
""fullscreenenter"",""1"",""3497""
","
","","","","","","904.7000000476837","images/rodent1.png","","","learning","images/pets_choice1.png","images/pets_choice3.png","images/pets_choice2.png","[0,2,1]","2","1","1","images/pets_choice1.png","-1","pets","","rodent","2","0"
"html-keyboard-response","178","789626","0.0-9.0-2.0-0.46","1963","2","2","""event"",""trial"",""time""
""fullscreenenter"",""1"",""3497""
","
","
","""event"",""trial"",""time""
""fullscreenenter"",""1"",""3497""
","
","","","","","","null","<div style=""font-size:60px;"">+</div>","null","","fixation","","","","","","","","","","","","","",""
"learning-trial","179","793634","0.0-9.0-2.0-1.46","1963","2","2","""event"",""trial"",""time""
""fullscreenenter"",""1"",""3497""
","
","
","""event"",""trial"",""time""
""fullscreenenter"",""1"",""3497""
","
","","","","","","1373.8999999761581","images/feline5.png","","","learning","images/pets_choice2.png","images/pets_choice1.png","images/pets_choice3.png","[1,0,2]","0","1","1","images/pets_choice2.png","-1","pets","","feline","2","0"
"html-keyboard-response","180","794136","0.0-9.0-2.0-0.47","1963","2","2","""event"",""trial"",""time""
""fullscreenenter"",""1"",""3497""
","
","
","""event"",""trial"",""time""
""fullscreenenter"",""1"",""3497""
","
","","","","","","null","<div style=""font-size:60px;"">+</div>","null","","fixation","","","","","","","","","","","","","",""
"learning-trial","181","798142","0.0-9.0-2.0-1.47","1963","2","2","""event"",""trial"",""time""
""fullscreenenter"",""1"",""3497""
","
","
","""event"",""trial"",""time""
""fullscreenenter"",""1"",""3497""
","
","","","","","","1316.2000000476837","images/dog5.png","","","learning","images/pets_choice1.png","images/pets_choice2.png","images/pets_choice3.png","[0,1,2]","1","1","2","images/pets_choice2.png","1","pets","","dog","2","0"
"html-keyboard-response","182","798646","0.0-9.0-2.0-0.48","1963","2","2","""event"",""trial"",""time""
""fullscreenenter"",""1"",""3497""
","
","
","""event"",""trial"",""time""
""fullscreenenter"",""1"",""3497""
","
","","","","","","null","<div style=""font-size:60px;"">+</div>","null","","fixation","","","","","","","","","","","","","",""
"learning-trial","183","802658","0.0-9.0-2.0-1.48","1963","2","2","""event"",""trial"",""time""
""fullscreenenter"",""1"",""3497""
","
","
","""event"",""trial"",""time""
""fullscreenenter"",""1"",""3497""
","
","","","","","","1065.3000000715256","images/rodent3.png","","","learning","images/pets_choice2.png","images/pets_choice1.png","images/pets_choice3.png","[1,0,2]","0","1","2","images/pets_choice1.png","1","pets","","rodent","2","0"
"html-keyboard-response","184","803163","0.0-9.0-2.0-0.49","1963","2","2","""event"",""trial"",""time""
""fullscreenenter"",""1"",""3497""
","
","
","""event"",""trial"",""time""
""fullscreenenter"",""1"",""3497""
","
","","","","","","null","<div style=""font-size:60px;"">+</div>","null","","fixation","","","","","","","","","","","","","",""
"learning-trial","185","807169","0.0-9.0-2.0-1.49","1963","2","2","""event"",""trial"",""time""
""fullscreenenter"",""1"",""3497""
","
","
","""event"",""trial"",""time""
""fullscreenenter"",""1"",""3497""
","
","","","","","","1252.3999999761581","images/feline4.png","","","learning","images/pets_choice3.png","images/pets_choice2.png","images/pets_choice1.png","[2,1,0]","1","1","1","images/pets_choice3.png","-1","pets","","feline","2","0"
"html-keyboard-response","186","807673","0.0-9.0-2.0-0.50","1963","2","2","""event"",""trial"",""time""
""fullscreenenter"",""1"",""3497""
","
","
","""event"",""trial"",""time""
""fullscreenenter"",""1"",""3497""
","
","","","","","","null","<div style=""font-size:60px;"">+</div>","null","","fixation","","","","","","","","","","","","","",""
"learning-trial","187","811679","0.0-9.0-2.0-1.50","1963","2","2","""event"",""trial"",""time""
""fullscreenenter"",""1"",""3497""
","
","
","""event"",""trial"",""time""
""fullscreenenter"",""1"",""3497""
","
","","","","","","1522.1999999284744","images/rodent1.png","","","learning","images/pets_choice2.png","images/pets_choice3.png","images/pets_choice1.png","[1,2,0]","2","1","3","images/pets_choice1.png","1","pets","","rodent","2","0"
"html-keyboard-response","188","812185","0.0-9.0-2.0-0.51","1963","2","2","""event"",""trial"",""time""
""fullscreenenter"",""1"",""3497""
","
","
","""event"",""trial"",""time""
""fullscreenenter"",""1"",""3497""
","
","","","","","","null","<div style=""font-size:60px;"">+</div>","null","","fixation","","","","","","","","","","","","","",""
"learning-trial","189","816195","0.0-9.0-2.0-1.51","1963","2","2","""event"",""trial"",""time""
""fullscreenenter"",""1"",""3497""
","
","
","""event"",""trial"",""time""
""fullscreenenter"",""1"",""3497""
","
","","","","","","1038.8000000715256","images/feline4.png","","","learning","images/pets_choice1.png","images/pets_choice2.png","images/pets_choice3.png","[0,1,2]","1","1","1","images/pets_choice1.png","-1","pets","","feline","2","0"
"html-keyboard-response","190","816699","0.0-9.0-2.0-0.52","1963","2","2","""event"",""trial"",""time""
""fullscreenenter"",""1"",""3497""
","
","
","""event"",""trial"",""time""
""fullscreenenter"",""1"",""3497""
","
","","","","","","null","<div style=""font-size:60px;"">+</div>","null","","fixation","","","","","","","","","","","","","",""
"learning-trial","191","820705","0.0-9.0-2.0-1.52","1963","2","2","""event"",""trial"",""time""
""fullscreenenter"",""1"",""3497""
","
","
","""event"",""trial"",""time""
""fullscreenenter"",""1"",""3497""
","
","","","","","","2025.3999999761581","images/rodent1.png","","","learning","images/pets_choice3.png","images/pets_choice1.png","images/pets_choice2.png","[2,0,1]","2","0","3","images/pets_choice2.png","-1","pets","","rodent","2","0"
"html-keyboard-response","192","821210","0.0-9.0-2.0-0.53","1963","2","2","""event"",""trial"",""time""
""fullscreenenter"",""1"",""3497""
","
","
","""event"",""trial"",""time""
""fullscreenenter"",""1"",""3497""
","
","","","","","","null","<div style=""font-size:60px;"">+</div>","null","","fixation","","","","","","","","","","","","","",""
"learning-trial","193","825215","0.0-9.0-2.0-1.53","1963","2","2","""event"",""trial"",""time""
""fullscreenenter"",""1"",""3497""
","
","
","""event"",""trial"",""time""
""fullscreenenter"",""1"",""3497""
","
","","","","","","657.3000000715256","images/rodent1.png","","","learning","images/pets_choice3.png","images/pets_choice1.png","images/pets_choice2.png","[2,0,1]","2","0","2","images/pets_choice1.png","-1","pets","","rodent","2","0"
"html-keyboard-response","194","825720","0.0-9.0-2.0-0.54","1963","2","2","""event"",""trial"",""time""
""fullscreenenter"",""1"",""3497""
","
","
","""event"",""trial"",""time""
""fullscreenenter"",""1"",""3497""
","
","","","","","","null","<div style=""font-size:60px;"">+</div>","null","","fixation","","","","","","","","","","","","","",""
"learning-trial","195","829726","0.0-9.0-2.0-1.54","1963","2","2","""event"",""trial"",""time""
""fullscreenenter"",""1"",""3497""
","
","
","""event"",""trial"",""time""
""fullscreenenter"",""1"",""3497""
","
","","","","","","1943","images/dog1.png","","","learning","images/pets_choice2.png","images/pets_choice1.png","images/pets_choice3.png","[1,0,2]","2","2","2","images/pets_choice1.png","-1","pets","","dog","2","0"
"html-keyboard-response","196","830230","0.0-9.0-2.0-0.55","1963","2","2","""event"",""trial"",""time""
""fullscreenenter"",""1"",""3497""
","
","
","""event"",""trial"",""time""
""fullscreenenter"",""1"",""3497""
","
","","","","","","null","<div style=""font-size:60px;"">+</div>","null","","fixation","","","","","","","","","","","","","",""
"learning-trial","197","834236","0.0-9.0-2.0-1.55","1963","2","2","""event"",""trial"",""time""
""fullscreenenter"",""1"",""3497""
","
","
","""event"",""trial"",""time""
""fullscreenenter"",""1"",""3497""
","
","","","","","","1661.4000000953674","images/feline5.png","","","learning","images/pets_choice3.png","images/pets_choice2.png","images/pets_choice1.png","[2,1,0]","0","2","1","images/pets_choice3.png","-1","pets","","feline","2","0"
"html-keyboard-response","198","834741","0.0-9.0-2.0-0.56","1963","2","2","""event"",""trial"",""time""
""fullscreenenter"",""1"",""3497""
","
","
","""event"",""trial"",""time""
""fullscreenenter"",""1"",""3497""
","
","","","","","","null","<div style=""font-size:60px;"">+</div>","null","","fixation","","","","","","","","","","","","","",""
"learning-trial","199","838746","0.0-9.0-2.0-1.56","1963","2","2","""event"",""trial"",""time""
""fullscreenenter"",""1"",""3497""
","
","
","""event"",""trial"",""time""
""fullscreenenter"",""1"",""3497""
","
","","","","","","1629.8999999761581","images/dog1.png","","","learning","images/pets_choice2.png","images/pets_choice3.png","images/pets_choice1.png","[1,2,0]","2","1","1","images/pets_choice2.png","-1","pets","","dog","2","0"
"html-keyboard-response","200","839253","0.0-9.0-2.0-0.57","1963","2","2","""event"",""trial"",""time""
""fullscreenenter"",""1"",""3497""
","
","
","""event"",""trial"",""time""
""fullscreenenter"",""1"",""3497""
","
","","","","","","null","<div style=""font-size:60px;"">+</div>","null","","fixation","","","","","","","","","","","","","",""
"learning-trial","201","843262","0.0-9.0-2.0-1.57","1963","2","2","""event"",""trial"",""time""
""fullscreenenter"",""1"",""3497""
","
","
","""event"",""trial"",""time""
""fullscreenenter"",""1"",""3497""
","
","","","","","","2135.2999999523163","images/feline4.png","","","learning","images/pets_choice1.png","images/pets_choice3.png","images/pets_choice2.png","[0,2,1]","1","2","3","images/pets_choice2.png","1","pets","","feline","2","0"
"html-keyboard-response","202","843767","0.0-9.0-2.0-0.58","1963","2","2","""event"",""trial"",""time""
""fullscreenenter"",""1"",""3497""
","
","
","""event"",""trial"",""time""
""fullscreenenter"",""1"",""3497""
","
","","","","","","null","<div style=""font-size:60px;"">+</div>","null","","fixation","","","","","","","","","","","","","",""
"learning-trial","203","847773","0.0-9.0-2.0-1.58","1963","2","2","""event"",""trial"",""time""
""fullscreenenter"",""1"",""3497""
","
","
","""event"",""trial"",""time""
""fullscreenenter"",""1"",""3497""
","
","","","","","","998.7000000476837","images/feline2.png","","","learning","images/pets_choice2.png","images/pets_choice3.png","images/pets_choice1.png","[1,2,0]","2","1","2","images/pets_choice3.png","1","pets","","feline","2","0"
"html-keyboard-response","204","848277","0.0-9.0-2.0-0.59","1963","2","2","""event"",""trial"",""time""
""fullscreenenter"",""1"",""3497""
","
","
","""event"",""trial"",""time""
""fullscreenenter"",""1"",""3497""
","
","","","","","","null","<div style=""font-size:60px;"">+</div>","null","","fixation","","","","","","","","","","","","","",""
"learning-trial","205","852286","0.0-9.0-2.0-1.59","1963","2","2","""event"",""trial"",""time""
""fullscreenenter"",""1"",""3497""
","
","
","""event"",""trial"",""time""
""fullscreenenter"",""1"",""3497""
","
","","","","","","1257.6999999284744","images/rodent3.png","","","learning","images/pets_choice3.png","images/pets_choice2.png","images/pets_choice1.png","[2,1,0]","0","2","3","images/pets_choice1.png","1","pets","","rodent","2","0"
"html-keyboard-response","206","852790","0.0-9.0-2.0-0.60","1963","2","2","""event"",""trial"",""time""
""fullscreenenter"",""1"",""3497""
","
","
","""event"",""trial"",""time""
""fullscreenenter"",""1"",""3497""
","
","","","","","","null","<div style=""font-size:60px;"">+</div>","null","","fixation","","","","","","","","","","","","","",""
"learning-trial","207","856799","0.0-9.0-2.0-1.60","1963","2","2","""event"",""trial"",""time""
""fullscreenenter"",""1"",""3497""
","
","
","""event"",""trial"",""time""
""fullscreenenter"",""1"",""3497""
","
","","","","","","951.1000000238419","images/feline2.png","","","learning","images/pets_choice3.png","images/pets_choice2.png","images/pets_choice1.png","[2,1,0]","2","0","1","images/pets_choice3.png","1","pets","","feline","2","0"
"html-keyboard-response","208","857304","0.0-9.0-2.0-0.61","1963","2","2","""event"",""trial"",""time""
""fullscreenenter"",""1"",""3497""
","
","
","""event"",""trial"",""time""
""fullscreenenter"",""1"",""3497""
","
","","","","","","null","<div style=""font-size:60px;"">+</div>","null","","fixation","","","","","","","","","","","","","",""
"learning-trial","209","861310","0.0-9.0-2.0-1.61","1963","2","2","""event"",""trial"",""time""
""fullscreenenter"",""1"",""3497""
","
","
","""event"",""trial"",""time""
""fullscreenenter"",""1"",""3497""
","
","","","","","","780.1999999284744","images/rodent3.png","","","learning","images/pets_choice2.png","images/pets_choice1.png","images/pets_choice3.png","[1,0,2]","0","1","2","images/pets_choice1.png","1","pets","","rodent","2","0"
"html-keyboard-response","210","861814","0.0-9.0-2.0-0.62","1963","2","2","""event"",""trial"",""time""
""fullscreenenter"",""1"",""3497""
","
","
","""event"",""trial"",""time""
""fullscreenenter"",""1"",""3497""
","
","","","","","","null","<div style=""font-size:60px;"">+</div>","null","","fixation","","","","","","","","","","","","","",""
"learning-trial","211","865819","0.0-9.0-2.0-1.62","1963","2","2","""event"",""trial"",""time""
""fullscreenenter"",""1"",""3497""
","
","
","""event"",""trial"",""time""
""fullscreenenter"",""1"",""3497""
","
","","","","","","1637.1999999284744","images/dog1.png","","","learning","images/pets_choice1.png","images/pets_choice2.png","images/pets_choice3.png","[0,1,2]","2","2","1","images/pets_choice1.png","-1","pets","","dog","2","0"
"html-keyboard-response","212","866324","0.0-9.0-2.0-0.63","1963","2","2","""event"",""trial"",""time""
""fullscreenenter"",""1"",""3497""
","
","
","""event"",""trial"",""time""
""fullscreenenter"",""1"",""3497""
","
","","","","","","null","<div style=""font-size:60px;"">+</div>","null","","fixation","","","","","","","","","","","","","",""
"learning-trial","213","870330","0.0-9.0-2.0-1.63","1963","2","2","""event"",""trial"",""time""
""fullscreenenter"",""1"",""3497""
","
","
","""event"",""trial"",""time""
""fullscreenenter"",""1"",""3497""
","
","","","","","","1885.8999999761581","images/feline4.png","","","learning","images/pets_choice2.png","images/pets_choice3.png","images/pets_choice1.png","[1,2,0]","1","0","1","images/pets_choice2.png","1","pets","","feline","2","0"
"html-keyboard-response","214","870836","0.0-9.0-2.0-0.64","1963","2","2","""event"",""trial"",""time""
""fullscreenenter"",""1"",""3497""
","
","
","""event"",""trial"",""time""
""fullscreenenter"",""1"",""3497""
","
","","","","","","null","<div style=""font-size:60px;"">+</div>","null","","fixation","","","","","","","","","","","","","",""
"learning-trial","215","874842","0.0-9.0-2.0-1.64","1963","2","2","""event"",""trial"",""time""
""fullscreenenter"",""1"",""3497""
","
","
","""event"",""trial"",""time""
""fullscreenenter"",""1"",""3497""
","
","","","","","","1923","images/dog4.png","","","learning","images/pets_choice2.png","images/pets_choice1.png","images/pets_choice3.png","[1,0,2]","0","1","2","images/pets_choice1.png","1","pets","","dog","2","0"
"html-keyboard-response","216","875346","0.0-9.0-2.0-0.65","1963","2","2","""event"",""trial"",""time""
""fullscreenenter"",""1"",""3497""
","
","
","""event"",""trial"",""time""
""fullscreenenter"",""1"",""3497""
","
","","","","","","null","<div style=""font-size:60px;"">+</div>","null","","fixation","","","","","","","","","","","","","",""
"learning-trial","217","879352","0.0-9.0-2.0-1.65","1963","2","2","""event"",""trial"",""time""
""fullscreenenter"",""1"",""3497""
","
","
","""event"",""trial"",""time""
""fullscreenenter"",""1"",""3497""
","
","","","","","","901.1000000238419","images/rodent5.png","","","learning","images/pets_choice2.png","images/pets_choice1.png","images/pets_choice3.png","[1,0,2]","1","0","1","images/pets_choice2.png","1","pets","","rodent","2","0"
"html-keyboard-response","218","879857","0.0-9.0-2.0-0.66","1963","2","2","""event"",""trial"",""time""
""fullscreenenter"",""1"",""3497""
","
","
","""event"",""trial"",""time""
""fullscreenenter"",""1"",""3497""
","
","","","","","","null","<div style=""font-size:60px;"">+</div>","null","","fixation","","","","","","","","","","","","","",""
"learning-trial","219","883861","0.0-9.0-2.0-1.66","1963","2","2","""event"",""trial"",""time""
""fullscreenenter"",""1"",""3497""
","
","
","""event"",""trial"",""time""
""fullscreenenter"",""1"",""3497""
","
","","","","","","831.2000000476837","images/feline2.png","","","learning","images/pets_choice2.png","images/pets_choice3.png","images/pets_choice1.png","[1,2,0]","2","1","2","images/pets_choice3.png","1","pets","","feline","2","0"
"html-keyboard-response","220","884366","0.0-9.0-2.0-0.67","1963","2","2","""event"",""trial"",""time""
""fullscreenenter"",""1"",""3497""
","
","
","""event"",""trial"",""time""
""fullscreenenter"",""1"",""3497""
","
","","","","","","null","<div style=""font-size:60px;"">+</div>","null","","fixation","","","","","","","","","","","","","",""
"learning-trial","221","888371","0.0-9.0-2.0-1.67","1963","2","2","""event"",""trial"",""time""
""fullscreenenter"",""1"",""3497""
","
","
","""event"",""trial"",""time""
""fullscreenenter"",""1"",""3497""
","
","","","","","","1708.3999999761581","images/rodent1.png","","","learning","images/pets_choice2.png","images/pets_choice1.png","images/pets_choice3.png","[1,0,2]","2","2","1","images/pets_choice2.png","-1","pets","","rodent","2","0"
"html-keyboard-response","222","888876","0.0-9.0-2.0-0.68","1963","2","2","""event"",""trial"",""time""
""fullscreenenter"",""1"",""3497""
","
","
","""event"",""trial"",""time""
""fullscreenenter"",""1"",""3497""
","
","","","","","","null","<div style=""font-size:60px;"">+</div>","null","","fixation","","","","","","","","","","","","","",""
"learning-trial","223","892881","0.0-9.0-2.0-1.68","1963","2","2","""event"",""trial"",""time""
""fullscreenenter"",""1"",""3497""
","
","
","""event"",""trial"",""time""
""fullscreenenter"",""1"",""3497""
","
","","","","","","1090.6999999284744","images/rodent3.png","","","learning","images/pets_choice3.png","images/pets_choice1.png","images/pets_choice2.png","[2,0,1]","0","1","2","images/pets_choice1.png","1","pets","","rodent","2","0"
"html-keyboard-response","224","893386","0.0-9.0-2.0-0.69","1963","2","2","""event"",""trial"",""time""
""fullscreenenter"",""1"",""3497""
","
","
","""event"",""trial"",""time""
""fullscreenenter"",""1"",""3497""
","
","","","","","","null","<div style=""font-size:60px;"">+</div>","null","","fixation","","","","","","","","","","","","","",""
"learning-trial","225","897392","0.0-9.0-2.0-1.69","1963","2","2","""event"",""trial"",""time""
""fullscreenenter"",""1"",""3497""
","
","
","""event"",""trial"",""time""
""fullscreenenter"",""1"",""3497""
","
","","","","","","2392.399999976158","images/dog4.png","","","learning","images/pets_choice2.png","images/pets_choice3.png","images/pets_choice1.png","[1,2,0]","0","2","2","images/pets_choice3.png","-1","pets","","dog","2","0"
"html-keyboard-response","226","897897","0.0-9.0-2.0-0.70","1963","2","2","""event"",""trial"",""time""
""fullscreenenter"",""1"",""3497""
","
","
","""event"",""trial"",""time""
""fullscreenenter"",""1"",""3497""
","
","","","","","","null","<div style=""font-size:60px;"">+</div>","null","","fixation","","","","","","","","","","","","","",""
"learning-trial","227","901902","0.0-9.0-2.0-1.70","1963","2","2","""event"",""trial"",""time""
""fullscreenenter"",""1"",""3497""
","
","
","""event"",""trial"",""time""
""fullscreenenter"",""1"",""3497""
","
","","","","","","1661.1000000238419","images/feline4.png","","","learning","images/pets_choice1.png","images/pets_choice3.png","images/pets_choice2.png","[0,2,1]","1","2","3","images/pets_choice2.png","1","pets","","feline","2","0"
"html-keyboard-response","228","902407","0.0-9.0-2.0-0.71","1963","2","2","""event"",""trial"",""time""
""fullscreenenter"",""1"",""3497""
","
","
","""event"",""trial"",""time""
""fullscreenenter"",""1"",""3497""
","
","","","","","","null","<div style=""font-size:60px;"">+</div>","null","","fixation","","","","","","","","","","","","","",""
"learning-trial","229","906413","0.0-9.0-2.0-1.71","1963","2","2","""event"",""trial"",""time""
""fullscreenenter"",""1"",""3497""
","
","
","""event"",""trial"",""time""
""fullscreenenter"",""1"",""3497""
","
","","","","","","1048.3000000715256","images/dog4.png","","","learning","images/pets_choice1.png","images/pets_choice2.png","images/pets_choice3.png","[0,1,2]","0","0","3","images/pets_choice3.png","-1","pets","","dog","2","0"
"html-button-response","230","908443","0.0-9.0-3.0","1963","2","2","""event"",""trial"",""time""
""fullscreenenter"",""1"",""3497""
","
","
","""event"",""trial"",""time""
""fullscreenenter"",""1"",""3497""
","
","","","","","","2027.2999999523163","<p> You have completed the round! <p> In this round, you earned 8 points! </p>","0","","break","","","","","","","","","","","","","",""
"html-button-response","231","909243","0.0-10.0","1963","2","2","""event"",""trial"",""time""
""fullscreenenter"",""1"",""3497""
","
","
","""event"",""trial"",""time""
""fullscreenenter"",""1"",""3497""
","
","","","","","","797.7000000476837","<p> Now it's time to play another round. </p>","0","","transition_screen","","","","","","","","","","","","","",""
"preload","232","911980","0.0-11.0-0.0","1963","2","2","""event"",""trial"",""time""
""fullscreenenter"",""1"",""3497""
","
","
","""event"",""trial"",""time""
""fullscreenenter"",""1"",""3497""
","
","true","false","[]","[]","[]","","","","","","","","","","","","","","","","","","",""
"learning-instructions","233","921043","0.0-11.0-1.0-0.0","1963","2","2","""event"",""trial"",""time""
""fullscreenenter"",""1"",""3497""
","
","
","""event"",""trial"",""time""
""fullscreenenter"",""1"",""3497""
","
","","","","","","692","<p> Your goal in this round is to travel the world by putting fuel into different vehicles. </p><p> To travel, you will need to put fuel into many different vehicles. </p></div>","","0","instructions","","","","","","","","","","","","","",""
"learning-instructions","234","930343","0.0-11.0-1.0-0.1","1963","2","2","""event"",""trial"",""time""
""fullscreenenter"",""1"",""3497""
","
","
","""event"",""trial"",""time""
""fullscreenenter"",""1"",""3497""
","
","","","","","","518.5","<p> On each turn, you will see a picture of one of your vehicles and three different types of fuel.  </p><p> You need to select which kind of fuel to use.  </p>","","0","instructions","","","","","","","","","","","","","",""
"learning-instructions","235","937910","0.0-11.0-1.0-0.2","1963","2","2","""event"",""trial"",""time""
""fullscreenenter"",""1"",""3497""
","
","
","""event"",""trial"",""time""
""fullscreenenter"",""1"",""3497""
","
","","","","","","700.5","<p> You can select the fuel on the left by pressing 1, the fuel in the middle by pressing 2, and the fuel on the right by pressing 3. </p><br><div class=""choice-instructions-grid""> <div class=""choice-option""><img src=""images/vehicles_choice1.png"" class=""choice-option-img"" stage=""instructions"" position=""0"" ><div class=""choice-option-text""> Press ""1."" </div></div><div class=""choice-option""><img src=""images/vehicles_choice2.png"" class=""choice-option-img"" stage=""instructions"" position=""1"" ><div class=""choice-option-text""> Press ""2."" </div></div><div class=""choice-option""><img src=""images/vehicles_choice3.png"" class=""choice-option-img"" stage=""instructions"" position=""2"" ><div class=""choice-option-text""> Press ""3."" </div></div></div>","","0","instructions","","","","","","","","","","","","","",""
"learning-instructions","236","943726","0.0-11.0-1.0-0.3","1963","2","2","""event"",""trial"",""time""
""fullscreenenter"",""1"",""3497""
","
","
","""event"",""trial"",""time""
""fullscreenenter"",""1"",""3497""
","
","","","","","","590","<p> If the fuel you chose works for that vehicle, it will start, and </p><p> you will get to travel. </p><div style='float: center;'><img src='images/check.png' width = '200' height = '200'></img>","","0","instructions","","","","","","","","","","","","","",""
"learning-instructions","237","948726","0.0-11.0-1.0-0.4","1963","2","2","""event"",""trial"",""time""
""fullscreenenter"",""1"",""3497""
","
","
","""event"",""trial"",""time""
""fullscreenenter"",""1"",""3497""
","
