"trial_type","trial_index","time_elapsed","internal_node_id","subject_id","condition","task_version","interactions","blur_events","focus_events","fullscreenenter_events","fullscreenexit_events","success","timeout","failed_images","failed_audio","failed_video","rt","stimulus","response","button_pressed","task_part","left_choice","middle_choice","right_choice","choice_positions","correct_response","correct_position","key_press","option_selected","points","task_block","correct","stim_cat","block_condition","block_number"
"pavlovia","0","9","0.0-0.0","1601","1","2","""event"",""trial"",""time""
""fullscreenenter"",""1"",""2158""
","
","
","""event"",""trial"",""time""
""fullscreenenter"",""1"",""2158""
","
","","","","","","","","","","","","","","","","","","","","","","","",""
"fullscreen","1","3121","0.0-1.0","1601","1","2","""event"",""trial"",""time""
""fullscreenenter"",""1"",""2158""
","
","
","""event"",""trial"",""time""
""fullscreenenter"",""1"",""2158""
","
","true","","","","","","","","","","","","","","","","","","","","","","",""
"preload","2","6009","0.0-2.0","1601","1","2","""event"",""trial"",""time""
""fullscreenenter"",""1"",""2158""
","
","
","""event"",""trial"",""time""
""fullscreenenter"",""1"",""2158""
","
","true","false","[]","[]","[]","","","","","","","","","","","","","","","","","","",""
"audio-keyboard-response","3","7989","0.0-3.0","1601","1","2","""event"",""trial"",""time""
""fullscreenenter"",""1"",""2158""
","
","
","""event"",""trial"",""time""
""fullscreenenter"",""1"",""2158""
","
","","","","","","1978.6666666666672","audio/beep_loop.wav"," ","","","","","","","","","","","","","","","",""
"audio-button-response","4","9893","0.0-4.0","1601","1","2","""event"",""trial"",""time""
""fullscreenenter"",""1"",""2158""
","
","
","""event"",""trial"",""time""
""fullscreenenter"",""1"",""2158""
","
","","","","","","1899","audio/shark.wav","4","","","","","","","","","","","","","","","",""
"audio-button-response","5","12008","0.0-5.0","1601","1","2","""event"",""trial"",""time""
""fullscreenenter"",""1"",""2158""
","
","
","""event"",""trial"",""time""
""fullscreenenter"",""1"",""2158""
","
","","","","","","1109","audio/turtle.wav","1","","","","","","","","","","","","","","","",""
"preload","6","15221","0.0-6.0","1601","1","2","""event"",""trial"",""time""
""fullscreenenter"",""1"",""2158""
","
","
","""event"",""trial"",""time""
""fullscreenenter"",""1"",""2158""
","
","true","false","[]","[]","[]","","","","","","","","","","","","","","","","","","",""
"html-keyboard-response","7","16456","0.0-7.0","1601","1","2","""event"",""trial"",""time""
""fullscreenenter"",""1"",""2158""
","
","
","""event"",""trial"",""time""
""fullscreenenter"",""1"",""2158""
","
","","","","","","1233.4000000059605","Welcome to the experiment. Press any key to begin and to advance the instructions."," ","","","","","","","","","","","","","","","",""
"learning-instructions","8","25351","0.0-8.0-0.0-0.0","1601","1","2","""event"",""trial"",""time""
""fullscreenenter"",""1"",""2158""
","
","
","""event"",""trial"",""time""
""fullscreenenter"",""1"",""2158""
","
","","","","","","1145.8999999761581","<p> Welcome! Today you are going to play 6 different rounds of a decision-making game. </p><p> Use the mouse to click next to continue. </p>","","0","instructions","","","","","","","","","","","","","",""
"learning-instructions","9","30234","0.0-8.0-0.0-0.1","1601","1","2","""event"",""trial"",""time""
""fullscreenenter"",""1"",""2158""
","
","
","""event"",""trial"",""time""
""fullscreenenter"",""1"",""2158""
","
","","","","","","1879.0999999940395","<p> You will start with a practice round to learn the rules. </p>","","0","instructions","","","","","","","","","","","","","",""
"learning-instructions","10","40081","0.0-8.0-0.0-0.2","1601","1","2","""event"",""trial"",""time""
""fullscreenenter"",""1"",""2158""
","
","
","""event"",""trial"",""time""
""fullscreenenter"",""1"",""2158""
","
","","","","","","2105.100000023842","<p> Your goal in this round is to deliver sports equipment to three different parks. </p><p> You will need to deliver many types of equipment. </p></div>","","0","instructions","","","","","","","","","","","","","",""
"learning-instructions","11","49157","0.0-8.0-0.0-0.3","1601","1","2","""event"",""trial"",""time""
""fullscreenenter"",""1"",""2158""
","
","
","""event"",""trial"",""time""
""fullscreenenter"",""1"",""2158""
","
","","","","","","594.0999999940395","<p> On each turn, you will see one piece of sports equipment and three different parks.  </p><p> You need to select which park to deliver the equipment to.  </p>","","0","instructions","","","","","","","","","","","","","",""
"learning-instructions","12","62806","0.0-8.0-0.0-0.4","1601","1","2","""event"",""trial"",""time""
""fullscreenenter"",""1"",""2158""
","
","
","""event"",""trial"",""time""
""fullscreenenter"",""1"",""2158""
","
","","","","","","365.5","<p> You can select the park on the left by pressing the '1' key on your keyboard. <br>You can select the park in the middle by pressing the '2' key on your keyboard. <br>You can select the park on the right by pressing the '3' key on your keyboard.  </p><br><div class=""choice-instructions-grid""> <div class=""choice-option""><img src=""images/park1.png"" class=""choice-option-img"" stage=""instructions"" position=""0"" ><div class=""choice-option-text""> Press ""1."" </div></div><div class=""choice-option""><img src=""images/park2.png"" class=""choice-option-img"" stage=""instructions"" position=""1"" ><div class=""choice-option-text""> Press ""2."" </div></div><div class=""choice-option""><img src=""images/park3.png"" class=""choice-option-img"" stage=""instructions"" position=""2"" ><div class=""choice-option-text""> Press ""3."" </div></div></div>","","0","instructions","","","","","","","","","","","","","",""
"learning-instructions","13","69136","0.0-8.0-0.0-0.5","1601","1","2","""event"",""trial"",""time""
""fullscreenenter"",""1"",""2158""
","
","
","""event"",""trial"",""time""
""fullscreenenter"",""1"",""2158""
","
","","","","","","946.2999999821186","<p> If the kids in the park you chose like the equipment, they will be very happy! </p><div style='float: center;'><img src='images/check.png' width = '200' height = '200'></img>","","0","instructions","","","","","","","","","","","","","",""
"learning-instructions","14","75902","0.0-8.0-0.0-0.6","1601","1","2","""event"",""trial"",""time""
""fullscreenenter"",""1"",""2158""
","
","
","""event"",""trial"",""time""
""fullscreenenter"",""1"",""2158""
","
","","","","","","1172.7999999821186","<p> But, if the kids in the park you chose do not like the equipment, they will be sad. </p><div style='float: center;'><img src='images/x.png' width = '200' height = '200'></img>","","0","instructions","","","","","","","","","","","","","",""
"learning-instructions","15","83215","0.0-8.0-0.0-0.7","1601","1","2","""event"",""trial"",""time""
""fullscreenenter"",""1"",""2158""
","
","
","""event"",""trial"",""time""
""fullscreenenter"",""1"",""2158""
","
","","","","","","886.5","<p> Importantly, the kids in each park like some pieces of sports equipment more than others. </p>","","0","instructions","","","","","","","","","","","","","",""
"learning-instructions","16","89782","0.0-8.0-0.0-0.8","1601","1","2","""event"",""trial"",""time""
""fullscreenenter"",""1"",""2158""
","
","
","""event"",""trial"",""time""
""fullscreenenter"",""1"",""2158""
","
","","","","","","514.9000000059605","<p> If you choose the best park for each piece of equipment, the kids there will usually be happy. </p>","","0","instructions","","","","","","","","","","","","","",""
"learning-instructions","17","97258","0.0-8.0-0.0-0.9","1601","1","2","""event"",""trial"",""time""
""fullscreenenter"",""1"",""2158""
","
","
","""event"",""trial"",""time""
""fullscreenenter"",""1"",""2158""
","
","","","","","","833.0999999940395","<p> However, even if you choose the best park for the equipment, the kids may sometimes be sad. </p>","","0","instructions","","","","","","","","","","","","","",""
"learning-instructions","18","104846","0.0-8.0-0.0-0.10","1601","1","2","""event"",""trial"",""time""
""fullscreenenter"",""1"",""2158""
","
","
","""event"",""trial"",""time""
""fullscreenenter"",""1"",""2158""
","
","","","","","","356.69999998807907","<p> Similarly, even if you choose the <i>wrong</i> park for the equipment, the kids may still be happy sometimes.","","0","instructions","","","","","","","","","","","","","",""
"learning-instructions","19","110268","0.0-8.0-0.0-0.11","1601","1","2","""event"",""trial"",""time""
""fullscreenenter"",""1"",""2158""
","
","
","""event"",""trial"",""time""
""fullscreenenter"",""1"",""2158""
","
","","","","","","370.90000000596046","<p> For example, the best park for this soccer ball is this one.<div style='float: center;'><img src='images/i1.png' width = '500' height = '268'></img>","","0","instructions","","","","","","","","","","","","","",""
"learning-instructions","20","116516","0.0-8.0-0.0-0.12","1601","1","2","""event"",""trial"",""time""
""fullscreenenter"",""1"",""2158""
","
","
","""event"",""trial"",""time""
""fullscreenenter"",""1"",""2158""
","
","","","","","","960.3000000119209","<p> Let's see what happens if you choose this park for the soccer ball five times.","","0","instructions","","","","","","","","","","","","","",""
"learning-instructions","21","119141","0.0-8.0-0.0-0.13","1601","1","2","""event"",""trial"",""time""
""fullscreenenter"",""1"",""2158""
","
","
","""event"",""trial"",""time""
""fullscreenenter"",""1"",""2158""
","
","","","","","","459.59999999403954","<p> The kids are happy.<div style='float: left;'><img src='images/i2.png' width = '640' height = '360'></img>","","0","instructions","","","","","","","","","","","","","",""
"learning-instructions","22","122089","0.0-8.0-0.0-0.14","1601","1","2","""event"",""trial"",""time""
""fullscreenenter"",""1"",""2158""
","
","
","""event"",""trial"",""time""
""fullscreenenter"",""1"",""2158""
","
","","","","","","783.5","<p> The kids are happy.<div style='float: left;'><img src='images/i3.png' width = '640' height = '360'></img>","","0","instructions","","","","","","","","","","","","","",""
"learning-instructions","23","124886","0.0-8.0-0.0-0.15","1601","1","2","""event"",""trial"",""time""
""fullscreenenter"",""1"",""2158""
","
","
","""event"",""trial"",""time""
""fullscreenenter"",""1"",""2158""
","
","","","","","","631.2000000178814","<p> The kids are happy.<div style='float: left;'><img src='images/i4.png' width = '640' height = '360'></img>","","0","instructions","","","","","","","","","","","","","",""
"learning-instructions","24","129243","0.0-8.0-0.0-0.16","1601","1","2","""event"",""trial"",""time""
""fullscreenenter"",""1"",""2158""
","
","
","""event"",""trial"",""time""
""fullscreenenter"",""1"",""2158""
","
","","","","","","2151.2999999821186","<p> The kids are sad.<div style='float: left;'><img src='images/i5.png' width = '640' height = '360'></img>","","0","instructions","","","","","","","","","","","","","",""
"learning-instructions","25","133570","0.0-8.0-0.0-0.17","1601","1","2","""event"",""trial"",""time""
""fullscreenenter"",""1"",""2158""
","
","
","""event"",""trial"",""time""
""fullscreenenter"",""1"",""2158""
","
","","","","","","2157.7000000178814","<p> The kids are happy.<div style='float: left;'><img src='images/i6.png' width = '640' height = '360'></img>","","0","instructions","","","","","","","","","","","","","",""
"learning-instructions","26","141986","0.0-8.0-0.0-0.18","1601","1","2","""event"",""trial"",""time""
""fullscreenenter"",""1"",""2158""
","
","
","""event"",""trial"",""time""
""fullscreenenter"",""1"",""2158""
","
","","","","","","1150.2999999821186","<p> As you can see, selecting that park for the soccer ball made the kids happy most of the time, but not all the time.","","0","instructions","","","","","","","","","","","","","",""
"learning-instructions","27","149239","0.0-8.0-0.0-0.19","1601","1","2","""event"",""trial"",""time""
""fullscreenenter"",""1"",""2158""
","
","
","""event"",""trial"",""time""
""fullscreenenter"",""1"",""2158""
","
","","","","","","1251.3999999761581","<p> Now let's see what happens if you choose a DIFFERENT park for the soccer ball 5 times.","","0","instructions","","","","","","","","","","","","","",""
"learning-instructions","28","152288","0.0-8.0-0.0-0.20","1601","1","2","""event"",""trial"",""time""
""fullscreenenter"",""1"",""2158""
","
","
","""event"",""trial"",""time""
""fullscreenenter"",""1"",""2158""
","
","","","","","","851","<p> The kids are sad.<div style='float: left;'><img src='images/i7.png' width = '640' height = '360'></img>","","0","instructions","","","","","","","","","","","","","",""
"learning-instructions","29","155608","0.0-8.0-0.0-0.21","1601","1","2","""event"",""trial"",""time""
""fullscreenenter"",""1"",""2158""
","
","
","""event"",""trial"",""time""
""fullscreenenter"",""1"",""2158""
","
","","","","","","1121.5","<p> The kids are sad.<div style='float: left;'><img src='images/i8.png' width = '640' height = '360'></img>","","0","instructions","","","","","","","","","","","","","",""
"learning-instructions","30","158288","0.0-8.0-0.0-0.22","1601","1","2","""event"",""trial"",""time""
""fullscreenenter"",""1"",""2158""
","
","
","""event"",""trial"",""time""
""fullscreenenter"",""1"",""2158""
","
","","","","","","515.7000000178814","<p> The kids are happy.<div style='float: left;'><img src='images/i9.png' width = '640' height = '360'></img>","","0","instructions","","","","","","","","","","","","","",""
"learning-instructions","31","160895","0.0-8.0-0.0-0.23","1601","1","2","""event"",""trial"",""time""
""fullscreenenter"",""1"",""2158""
","
","
","""event"",""trial"",""time""
""fullscreenenter"",""1"",""2158""
","
","","","","","","406.2000000178814","<p> The kids are sad.<div style='float: left;'><img src='images/i10.png' width = '640' height = '360'></img>","","0","instructions","","","","","","","","","","","","","",""
"learning-instructions","32","163699","0.0-8.0-0.0-0.24","1601","1","2","""event"",""trial"",""time""
""fullscreenenter"",""1"",""2158""
","
","
","""event"",""trial"",""time""
""fullscreenenter"",""1"",""2158""
","
","","","","","","606","<p> The kids are sad.<div style='float: left;'><img src='images/i11.png' width = '640' height = '360'></img>","","0","instructions","","","","","","","","","","","","","",""
"learning-instructions","33","172238","0.0-8.0-0.0-0.25","1601","1","2","""event"",""trial"",""time""
""fullscreenenter"",""1"",""2158""
","
","
","""event"",""trial"",""time""
""fullscreenenter"",""1"",""2158""
","
","","","","","","426.5","<p> As you can see, selecting the wrong park for the soccer ball made the kids sad most of the time, but not all the time.","","0","instructions","","","","","","","","","","","","","",""
"learning-instructions","34","181696","0.0-8.0-0.0-0.26","1601","1","2","""event"",""trial"",""time""
""fullscreenenter"",""1"",""2158""
","
","
","""event"",""trial"",""time""
""fullscreenenter"",""1"",""2158""
","
","","","","","","352.2000000178814","<p> The different pieces of equipment belong in different parks. You need to try to learn which is the best park for each piece of equipment.","","0","instructions","","","","","","","","","","","","","",""
"learning-instructions","35","198452","0.0-8.0-0.0-0.27","1601","1","2","""event"",""trial"",""time""
""fullscreenenter"",""1"",""2158""
","
","
","""event"",""trial"",""time""
""fullscreenenter"",""1"",""2158""
","
","","","","","","376.09999999403954","<p> Try to choose the best park for each piece of equipment, because you will <b> WIN </b> 1 point for each time you make the kids happy and <b>LOSE</b> 1 point for each time you make them sad. </p><p> Remember, if you make the best choice, you will win 1 point most of the time, but not all the time. </p>","","0","instructions","","","","","","","","","","","","","",""
"learning-instructions","36","204362","0.0-8.0-0.0-0.28","1601","1","2","""event"",""trial"",""time""
""fullscreenenter"",""1"",""2158""
","
","
","""event"",""trial"",""time""
""fullscreenenter"",""1"",""2158""
","
","","","","","","430.5","<p> This is just a practice round, but in the real game, your bonus payment will depend on your total number of points.","","0","instructions","","","","","","","","","","","","","",""
"learning-instructions","37","215064","0.0-8.0-0.0-0.29","1601","1","2","""event"",""trial"",""time""
""fullscreenenter"",""1"",""2158""
","
","
","""event"",""trial"",""time""
""fullscreenenter"",""1"",""2158""
","
","","","","","","381.09999999403954","<p> The position where each park appears will change throughout the game. </p><p> The position where the park appears <i> does not </i> influence how likely the kids are to be happy or sad. </p>","","0","instructions","","","","","","","","","","","","","",""
"learning-instructions","38","226269","0.0-8.0-0.0-0.30","1601","1","2","""event"",""trial"",""time""
""fullscreenenter"",""1"",""2158""
","
","
","""event"",""trial"",""time""
""fullscreenenter"",""1"",""2158""
","
","","","","","","754","<p> You will have 4 seconds to make each choice. Try to respond before time runs out! </p><p> You will lose 1 point each time you do not make a response. </p>","","0","instructions","","","","","","","","","","","","","",""
"learning-instructions","39","233928","0.0-8.0-0.0-0.31","1601","1","2","""event"",""trial"",""time""
""fullscreenenter"",""1"",""2158""
","
","
","""event"",""trial"",""time""
""fullscreenenter"",""1"",""2158""
","
","","","","","","870.6000000238419","<p> Remember, you should use the 1, 2, and 3 keys to select the park for each piece of equipment. </p><br><div class=""choice-instructions-grid""> <div class=""choice-option""><img src=""images/park1.png"" class=""choice-option-img"" stage=""instructions"" position=""0"" ><div class=""choice-option-text""> Press ""1."" </div></div><div class=""choice-option""><img src=""images/park2.png"" class=""choice-option-img"" stage=""instructions"" position=""1"" ><div class=""choice-option-text""> Press ""2."" </div></div><div class=""choice-option""><img src=""images/park3.png"" class=""choice-option-img"" stage=""instructions"" position=""2"" ><div class=""choice-option-text""> Press ""3."" </div></div></div>","","0","instructions","","","","","","","","","","","","","",""
"html-button-response","40","235849","0.0-8.0-1.0","1601","1","2","""event"",""trial"",""time""
""fullscreenenter"",""1"",""2158""
","
","
","""event"",""trial"",""time""
""fullscreenenter"",""1"",""2158""
","
","","","","","","1815.199999988079","<p> Ready to practice? </p>","0","","","","","","","","","","","","","","","",""
"html-keyboard-response","41","236456","0.0-8.0-2.0-0.0","1601","1","2","""event"",""trial"",""time""
""fullscreenenter"",""1"",""2158""
","
","
","""event"",""trial"",""time""
""fullscreenenter"",""1"",""2158""
","
","","","","","","null","<div style=""font-size:60px;"">+</div>","null","","fixation","","","","","","","","","","","","","",""
"learning-trial","42","240464","0.0-8.0-2.0-1.0","1601","1","2","""event"",""trial"",""time""
""fullscreenenter"",""1"",""2158""
","
","
","""event"",""trial"",""time""
""fullscreenenter"",""1"",""2158""
","
","","","","","","1344.9000000059605","images/racket4.png","","","practice","images/park2.png","images/park1.png","images/park3.png","[1,0,2]","1","0","1","images/park2.png","1","practice","","","",""
"html-keyboard-response","43","240966","0.0-8.0-2.0-0.1","1601","1","2","""event"",""trial"",""time""
""fullscreenenter"",""1"",""2158""
","
","
","""event"",""trial"",""time""
""fullscreenenter"",""1"",""2158""
","
","","","","","","null","<div style=""font-size:60px;"">+</div>","null","","fixation","","","","","","","","","","","","","",""
"learning-trial","44","244971","0.0-8.0-2.0-1.1","1601","1","2","""event"",""trial"",""time""
""fullscreenenter"",""1"",""2158""
","
","
","""event"",""trial"",""time""
""fullscreenenter"",""1"",""2158""
","
","","","","","","687.1000000238419","images/ball1.png","","","practice","images/park1.png","images/park3.png","images/park2.png","[0,2,1]","0","0","2","images/park3.png","-1","practice","","","",""
"html-keyboard-response","45","245477","0.0-8.0-2.0-0.2","1601","1","2","""event"",""trial"",""time""
""fullscreenenter"",""1"",""2158""
","
","
","""event"",""trial"",""time""
""fullscreenenter"",""1"",""2158""
","
","","","","","","null","<div style=""font-size:60px;"">+</div>","null","","fixation","","","","","","","","","","","","","",""
"learning-trial","46","249484","0.0-8.0-2.0-1.2","1601","1","2","""event"",""trial"",""time""
""fullscreenenter"",""1"",""2158""
","
","
","""event"",""trial"",""time""
""fullscreenenter"",""1"",""2158""
","
","","","","","","1040.2000000178814","images/ball3.png","","","practice","images/park1.png","images/park2.png","images/park3.png","[0,1,2]","2","2","3","images/park3.png","1","practice","","","",""
"html-keyboard-response","47","249985","0.0-8.0-2.0-0.3","1601","1","2","""event"",""trial"",""time""
""fullscreenenter"",""1"",""2158""
","
","
","""event"",""trial"",""time""
""fullscreenenter"",""1"",""2158""
","
","","","","","","null","<div style=""font-size:60px;"">+</div>","null","","fixation","","","","","","","","","","","","","",""
"learning-trial","48","253994","0.0-8.0-2.0-1.3","1601","1","2","""event"",""trial"",""time""
""fullscreenenter"",""1"",""2158""
","
","
","""event"",""trial"",""time""
""fullscreenenter"",""1"",""2158""
","
","","","","","","1480.5","images/ball4.png","","","practice","images/park2.png","images/park3.png","images/park1.png","[1,2,0]","1","0","2","images/park3.png","-1","practice","","","",""
"html-keyboard-response","49","254496","0.0-8.0-2.0-0.4","1601","1","2","""event"",""trial"",""time""
""fullscreenenter"",""1"",""2158""
","
","
","""event"",""trial"",""time""
""fullscreenenter"",""1"",""2158""
","
","","","","","","null","<div style=""font-size:60px;"">+</div>","null","","fixation","","","","","","","","","","","","","",""
"learning-trial","50","258504","0.0-8.0-2.0-1.4","1601","1","2","""event"",""trial"",""time""
""fullscreenenter"",""1"",""2158""
","
","
","""event"",""trial"",""time""
""fullscreenenter"",""1"",""2158""
","
","","","","","","1230.4000000059605","images/racket3.png","","","practice","images/park1.png","images/park2.png","images/park3.png","[0,1,2]","0","0","2","images/park2.png","-1","practice","","","",""
"html-keyboard-response","51","259008","0.0-8.0-2.0-0.5","1601","1","2","""event"",""trial"",""time""
""fullscreenenter"",""1"",""2158""
","
","
","""event"",""trial"",""time""
""fullscreenenter"",""1"",""2158""
","
","","","","","","null","<div style=""font-size:60px;"">+</div>","null","","fixation","","","","","","","","","","","","","",""
"learning-trial","52","263013","0.0-8.0-2.0-1.5","1601","1","2","""event"",""trial"",""time""
""fullscreenenter"",""1"",""2158""
","
","
","""event"",""trial"",""time""
""fullscreenenter"",""1"",""2158""
","
","","","","","","1588.5999999940395","images/racket4.png","","","practice","images/park2.png","images/park1.png","images/park3.png","[1,0,2]","1","0","1","images/park2.png","1","practice","","","",""
"html-keyboard-response","53","263516","0.0-8.0-2.0-0.6","1601","1","2","""event"",""trial"",""time""
""fullscreenenter"",""1"",""2158""
","
","
","""event"",""trial"",""time""
""fullscreenenter"",""1"",""2158""
","
","","","","","","null","<div style=""font-size:60px;"">+</div>","null","","fixation","","","","","","","","","","","","","",""
"learning-trial","54","267521","0.0-8.0-2.0-1.6","1601","1","2","""event"",""trial"",""time""
""fullscreenenter"",""1"",""2158""
","
","
","""event"",""trial"",""time""
""fullscreenenter"",""1"",""2158""
","
","","","","","","1346.5","images/ball2.png","","","practice","images/park2.png","images/park3.png","images/park1.png","[1,2,0]","2","1","3","images/park1.png","-1","practice","","","",""
"html-keyboard-response","55","268028","0.0-8.0-2.0-0.7","1601","1","2","""event"",""trial"",""time""
""fullscreenenter"",""1"",""2158""
","
","
","""event"",""trial"",""time""
""fullscreenenter"",""1"",""2158""
","
","","","","","","null","<div style=""font-size:60px;"">+</div>","null","","fixation","","","","","","","","","","","","","",""
"learning-trial","56","272033","0.0-8.0-2.0-1.7","1601","1","2","""event"",""trial"",""time""
""fullscreenenter"",""1"",""2158""
","
","
","""event"",""trial"",""time""
""fullscreenenter"",""1"",""2158""
","
","","","","","","975.8999999761581","images/racket3.png","","","practice","images/park2.png","images/park1.png","images/park3.png","[1,0,2]","0","1","1","images/park2.png","-1","practice","","","",""
"html-keyboard-response","57","272535","0.0-8.0-2.0-0.8","1601","1","2","""event"",""trial"",""time""
""fullscreenenter"",""1"",""2158""
","
","
","""event"",""trial"",""time""
""fullscreenenter"",""1"",""2158""
","
","","","","","","null","<div style=""font-size:60px;"">+</div>","null","","fixation","","","","","","","","","","","","","",""
"learning-trial","58","276540","0.0-8.0-2.0-1.8","1601","1","2","""event"",""trial"",""time""
""fullscreenenter"",""1"",""2158""
","
","
","""event"",""trial"",""time""
""fullscreenenter"",""1"",""2158""
","
","","","","","","1504.5999999940395","images/ball3.png","","","practice","images/park2.png","images/park1.png","images/park3.png","[1,0,2]","2","2","2","images/park1.png","1","practice","","","",""
"html-keyboard-response","59","277047","0.0-8.0-2.0-0.9","1601","1","2","""event"",""trial"",""time""
""fullscreenenter"",""1"",""2158""
","
","
","""event"",""trial"",""time""
""fullscreenenter"",""1"",""2158""
","
","","","","","","null","<div style=""font-size:60px;"">+</div>","null","","fixation","","","","","","","","","","","","","",""
"learning-trial","60","281052","0.0-8.0-2.0-1.9","1601","1","2","""event"",""trial"",""time""
""fullscreenenter"",""1"",""2158""
","
","
","""event"",""trial"",""time""
""fullscreenenter"",""1"",""2158""
","
","","","","","","1429.800000011921","images/ball4.png","","","practice","images/park1.png","images/park3.png","images/park2.png","[0,2,1]","1","2","3","images/park2.png","1","practice","","","",""
"html-keyboard-response","61","281559","0.0-8.0-2.0-0.10","1601","1","2","""event"",""trial"",""time""
""fullscreenenter"",""1"",""2158""
","
","
","""event"",""trial"",""time""
""fullscreenenter"",""1"",""2158""
","
","","","","","","null","<div style=""font-size:60px;"">+</div>","null","","fixation","","","","","","","","","","","","","",""
"learning-trial","62","285564","0.0-8.0-2.0-1.10","1601","1","2","""event"",""trial"",""time""
""fullscreenenter"",""1"",""2158""
","
","
","""event"",""trial"",""time""
""fullscreenenter"",""1"",""2158""
","
","","","","","","498.90000000596046","images/ball2.png","","","practice","images/park1.png","images/park3.png","images/park2.png","[0,2,1]","2","1","3","images/park2.png","-1","practice","","","",""
"html-keyboard-response","63","286071","0.0-8.0-2.0-0.11","1601","1","2","""event"",""trial"",""time""
""fullscreenenter"",""1"",""2158""
","
","
","""event"",""trial"",""time""
""fullscreenenter"",""1"",""2158""
","
","","","","","","null","<div style=""font-size:60px;"">+</div>","null","","fixation","","","","","","","","","","","","","",""
"learning-trial","64","290076","0.0-8.0-2.0-1.11","1601","1","2","""event"",""trial"",""time""
""fullscreenenter"",""1"",""2158""
","
","
","""event"",""trial"",""time""
""fullscreenenter"",""1"",""2158""
","
","","","","","","1008.5999999940395","images/ball1.png","","","practice","images/park2.png","images/park1.png","images/park3.png","[1,0,2]","0","1","2","images/park1.png","1","practice","","","",""
"html-button-response","65","292331","0.0-8.0-3.0","1601","1","2","""event"",""trial"",""time""
""fullscreenenter"",""1"",""2158""
","
","
","""event"",""trial"",""time""
""fullscreenenter"",""1"",""2158""
","
","","","","","","2251.5","<p> You earned 0 points in the practice round! </p>","0","","break","","","","","","","","","","","","","",""
"learning-instructions","66","301349","0.0-8.0-4.0-0.0","1601","1","2","""event"",""trial"",""time""
""fullscreenenter"",""1"",""2158""
","
","
","""event"",""trial"",""time""
""fullscreenenter"",""1"",""2158""
","
","","","","","","1312.699999988079","<p> It's almost time to start the real game. </p><p> Before you start, we're going to ask you a few questions about how the game works. </p>","","0","instructions","","","","","","","","","","","","","",""
"preload","67","302772","0.0-8.0-5.0","1601","1","2","""event"",""trial"",""time""
""fullscreenenter"",""1"",""2158""
","
","
","""event"",""trial"",""time""
""fullscreenenter"",""1"",""2158""
","
","true","false","[]","[]","[]","","","","","","","","","","","","","","","","","","",""
"comp-q","68","309230","0.0-8.0-6.0-0.0","1601","1","2","""event"",""trial"",""time""
""fullscreenenter"",""1"",""2158""
","
","
","""event"",""trial"",""time""
""fullscreenenter"",""1"",""2158""
","
","","","","","","1006.1999999880791","<p> <b> True or False? </b> </p><p> If you choose the best option, you will always earn 1 point. </p>","","1","comp_question","","","","","","","","","","","true","","",""
"comp-q","69","316020","0.0-8.0-6.0-1.0","1601","1","2","""event"",""trial"",""time""
""fullscreenenter"",""1"",""2158""
","
","
","""event"",""trial"",""time""
""fullscreenenter"",""1"",""2158""
","
","","","","","","1130.2999999821186","<p><b> That's right! </b> Sometimes you will lose 1 point, even if you choose the best option. </p>","","0","comp_answer","","","","","","","","","","","","","",""
"comp-q","70","321473","0.0-8.0-6.0-0.1","1601","1","2","""event"",""trial"",""time""
""fullscreenenter"",""1"",""2158""
","
","
","""event"",""trial"",""time""
""fullscreenenter"",""1"",""2158""
","
","","","","","","822.1999999880791","<p> <b> True or False? </b> </p><p> You will have as much time as you want to make each choice. </p>","","1","comp_question","","","","","","","","","","","true","","",""
"comp-q","71","327650","0.0-8.0-6.0-1.1","1601","1","2","""event"",""trial"",""time""
""fullscreenenter"",""1"",""2158""
","
","
","""event"",""trial"",""time""
""fullscreenenter"",""1"",""2158""
","
","","","","","","1356.800000011921","<p> <b> That's right! </b> You will only have 4 seconds to make each choice. </p>","","0","comp_answer","","","","","","","","","","","","","",""
"comp-q","72","334420","0.0-8.0-6.0-0.2","1601","1","2","""event"",""trial"",""time""
""fullscreenenter"",""1"",""2158""
","
","
","""event"",""trial"",""time""
""fullscreenenter"",""1"",""2158""
","
","","","","","","617.9000000059605","<p> <b> True or False? </b> </p><p> You should use the '1', '2', and '3' keys to make your choices. </p>","","0","comp_question","","","","","","","","","","","true","","",""
"comp-q","73","340485","0.0-8.0-6.0-1.2","1601","1","2","""event"",""trial"",""time""
""fullscreenenter"",""1"",""2158""
","
","
","""event"",""trial"",""time""
""fullscreenenter"",""1"",""2158""
","
","","","","","","1221.2999999821186","<p> <b> That's right! </b> You should use the '1', '2', and '3' keys to make each choice. </p>","","0","comp_answer","","","","","","","","","","","","","",""
"learning-instructions","74","350486","0.0-8.0-7.0-0.0","1601","1","2","""event"",""trial"",""time""
""fullscreenenter"",""1"",""2158""
","
","
","""event"",""trial"",""time""
""fullscreenenter"",""1"",""2158""
","
","","","","","","1515.8999999761581","<p> It's now time to start the real game. </p>Do your best, because the points you earn in the next rounds will influence your bonus payment. </p>","","0","instructions","","","","","","","","","","","","","",""
"preload","75","352061","0.0-9.0-0.0","1601","1","2","""event"",""trial"",""time""
""fullscreenenter"",""1"",""2158""
","
","
","""event"",""trial"",""time""
""fullscreenenter"",""1"",""2158""
","
","true","false","[]","[]","[]","","","","","","","","","","","","","","","","","","",""
"learning-instructions","76","359533","0.0-9.0-1.0-0.0","1601","1","2","""event"",""trial"",""time""
""fullscreenenter"",""1"",""2158""
","
","
","""event"",""trial"",""time""
""fullscreenenter"",""1"",""2158""
","
","","","","","","642.1999999880791","<p> Your goal in this round is to grow a beautiful garden by watering plants. </p><p> You will need to water many different plants. </p></div>","","0","instructions","","","","","","","","","","","","","",""
"learning-instructions","77","373249","0.0-9.0-1.0-0.1","1601","1","2","""event"",""trial"",""time""
""fullscreenenter"",""1"",""2158""
","
","
","""event"",""trial"",""time""
""fullscreenenter"",""1"",""2158""
","
","","","","","","438","<p> On each turn, you will see a picture of one of your plants and three different watering cans.  </p><p> Each watering can has a different mixture of water and fertilizer.  </p><p> You need to select which watering can to use for each plant. </p>","","0","instructions","","","","","","","","","","","","","",""
"learning-instructions","78","381411","0.0-9.0-1.0-0.2","1601","1","2","""event"",""trial"",""time""
""fullscreenenter"",""1"",""2158""
","
","
","""event"",""trial"",""time""
""fullscreenenter"",""1"",""2158""
","
","","","","","","422.60000002384186","<p> You can select the watering can on the left by pressing 1, the watering can in the middle by pressing 2, and the watering can on the right by pressing 3. </p><br><div class=""choice-instructions-grid""> <div class=""choice-option""><img src=""images/plants_choice1.png"" class=""choice-option-img"" stage=""instructions"" position=""0"" ><div class=""choice-option-text""> Press ""1."" </div></div><div class=""choice-option""><img src=""images/plants_choice2.png"" class=""choice-option-img"" stage=""instructions"" position=""1"" ><div class=""choice-option-text""> Press ""2."" </div></div><div class=""choice-option""><img src=""images/plants_choice3.png"" class=""choice-option-img"" stage=""instructions"" position=""2"" ><div class=""choice-option-text""> Press ""3."" </div></div></div>","","0","instructions","","","","","","","","","","","","","",""
"learning-instructions","79","386182","0.0-9.0-1.0-0.3","1601","1","2","""event"",""trial"",""time""
""fullscreenenter"",""1"",""2158""
","
","
","""event"",""trial"",""time""
""fullscreenenter"",""1"",""2158""
","
","","","","","","602.0999999940395","<p> If the watering can you chose works for the plant, it will grow! </p><div style='float: center;'><img src='images/check.png' width = '200' height = '200'></img>","","0","instructions","","","","","","","","","","","","","",""
"learning-instructions","80","391438","0.0-9.0-1.0-0.4","1601","1","2","""event"",""trial"",""time""
""fullscreenenter"",""1"",""2158""
","
","
","""event"",""trial"",""time""
""fullscreenenter"",""1"",""2158""
","
","","","","","","450.09999999403954","<p> But, if the watering can you chose does not work, your plant will droop. </p><div style='float: center;'><img src='images/x.png' width = '200' height = '200'></img>","","0","instructions","","","","","","","","","","","","","",""
"learning-instructions","81","401954","0.0-9.0-1.0-0.5","1601","1","2","""event"",""trial"",""time""
""fullscreenenter"",""1"",""2158""
","
","
","""event"",""trial"",""time""
""fullscreenenter"",""1"",""2158""
","
","","","","","","438.2000000178814","<p> Importantly, each plant has one fertilizer mixture that works best for it. </p><p> If you choose the watering can with the right fertilizer, the plant will be more likely to grow. </p>","","0","instructions","","","","","","","","","","","","","",""
"learning-instructions","82","412796","0.0-9.0-1.0-0.6","1601","1","2","""event"",""trial"",""time""
""fullscreenenter"",""1"",""2158""
","
","
","""event"",""trial"",""time""
""fullscreenenter"",""1"",""2158""
","
","","","","","","507","<p> However, even if you choose the best watering can for the plant, the plant may still droop. </p><p> Similarly, even if you choose the <i>wrong</i> watering can, the plant may still grow.","","0","instructions","","","","","","","","","","","","","",""
"learning-instructions","83","425163","0.0-9.0-1.0-0.7","1601","1","2","""event"",""trial"",""time""
""fullscreenenter"",""1"",""2158""
","
","
","""event"",""trial"",""time""
""fullscreenenter"",""1"",""2158""
","
","","","","","","510.59999999403954","<p> Try to choose the best watering can for each plant, because you will <b> WIN </b> 1 point each time a plant grows and <b>LOSE</b>  1 point each time a plant droops. </p><p> Your bonus payment will depend on your total number of points.","","0","instructions","","","","","","","","","","","","","",""
"learning-instructions","84","433864","0.0-9.0-1.0-0.8","1601","1","2","""event"",""trial"",""time""
""fullscreenenter"",""1"",""2158""
","
","
","""event"",""trial"",""time""
""fullscreenenter"",""1"",""2158""
","
","","","","","","700","<p> The position of each watering can will change throughout the round. </p><p> The watering can's position <i> does not </i> influence how likely each plant is to droop or grow. </p>","","0","instructions","","","","","","","","","","","","","",""
"learning-instructions","85","443950","0.0-9.0-1.0-0.9","1601","1","2","""event"",""trial"",""time""
""fullscreenenter"",""1"",""2158""
","
","
","""event"",""trial"",""time""
""fullscreenenter"",""1"",""2158""
","
","","","","","","796.3000000119209","<p> You will have 4 seconds to make each choice. Try to respond before time runs out! </p><p> You will lose 1 point each time you do not make a response. </p>","","0","instructions","","","","","","","","","","","","","",""
"html-keyboard-response","86","444556","0.0-9.0-2.0-0.0","1601","1","2","""event"",""trial"",""time""
""fullscreenenter"",""1"",""2158""
","
","
","""event"",""trial"",""time""
""fullscreenenter"",""1"",""2158""
","
","","","","","","null","<div style=""font-size:60px;"">+</div>","null","","fixation","","","","","","","","","","","","","",""
"learning-trial","87","448563","0.0-9.0-2.0-1.0","1601","1","2","""event"",""trial"",""time""
""fullscreenenter"",""1"",""2158""
","
","
","""event"",""trial"",""time""
""fullscreenenter"",""1"",""2158""
","
","","","","","","1456","images/flower4.png","","","learning","images/plants_choice3.png","images/plants_choice1.png","images/plants_choice2.png","[2,0,1]","2","0","1","images/plants_choice3.png","1","plants","","flower","1","0"
"html-keyboard-response","88","449067","0.0-9.0-2.0-0.1","1601","1","2","""event"",""trial"",""time""
""fullscreenenter"",""1"",""2158""
","
","
","""event"",""trial"",""time""
""fullscreenenter"",""1"",""2158""
","
","","","","","","null","<div style=""font-size:60px;"">+</div>","null","","fixation","","","","","","","","","","","","","",""
"learning-trial","89","453073","0.0-9.0-2.0-1.1","1601","1","2","""event"",""trial"",""time""
""fullscreenenter"",""1"",""2158""
","
","
","""event"",""trial"",""time""
""fullscreenenter"",""1"",""2158""
","
","","","","","","1418.0999999940395","images/bush4.png","","","learning","images/plants_choice2.png","images/plants_choice1.png","images/plants_choice3.png","[1,0,2]","1","0","2","images/plants_choice1.png","-1","plants","","bush","1","0"
"html-keyboard-response","90","453579","0.0-9.0-2.0-0.2","1601","1","2","""event"",""trial"",""time""
""fullscreenenter"",""1"",""2158""
","
","
","""event"",""trial"",""time""
""fullscreenenter"",""1"",""2158""
","
","","","","","","null","<div style=""font-size:60px;"">+</div>","null","","fixation","","","","","","","","","","","","","",""
"learning-trial","91","457585","0.0-9.0-2.0-1.2","1601","1","2","""event"",""trial"",""time""
""fullscreenenter"",""1"",""2158""
","
","
","""event"",""trial"",""time""
""fullscreenenter"",""1"",""2158""
","
","","","","","","1813.5999999940395","images/tree2.png","","","learning","images/plants_choice1.png","images/plants_choice2.png","images/plants_choice3.png","[0,1,2]","0","0","1","images/plants_choice1.png","1","plants","","tree","1","0"
"html-keyboard-response","92","458091","0.0-9.0-2.0-0.3","1601","1","2","""event"",""trial"",""time""
""fullscreenenter"",""1"",""2158""
","
","
","""event"",""trial"",""time""
""fullscreenenter"",""1"",""2158""
","
","","","","","","null","<div style=""font-size:60px;"">+</div>","null","","fixation","","","","","","","","","","","","","",""
"learning-trial","93","462097","0.0-9.0-2.0-1.3","1601","1","2","""event"",""trial"",""time""
""fullscreenenter"",""1"",""2158""
","
","
","""event"",""trial"",""time""
""fullscreenenter"",""1"",""2158""
","
","","","","","","1540","images/tree5.png","","","learning","images/plants_choice3.png","images/plants_choice1.png","images/plants_choice2.png","[2,0,1]","0","1","2","images/plants_choice1.png","1","plants","","tree","1","0"
"html-keyboard-response","94","462599","0.0-9.0-2.0-0.4","1601","1","2","""event"",""trial"",""time""
""fullscreenenter"",""1"",""2158""
","
","
","""event"",""trial"",""time""
""fullscreenenter"",""1"",""2158""
","
","","","","","","null","<div style=""font-size:60px;"">+</div>","null","","fixation","","","","","","","","","","","","","",""
"learning-trial","95","466606","0.0-9.0-2.0-1.4","1601","1","2","""event"",""trial"",""time""
""fullscreenenter"",""1"",""2158""
","
","
","""event"",""trial"",""time""
""fullscreenenter"",""1"",""2158""
","
","","","","","","1704.5","images/bush1.png","","","learning","images/plants_choice2.png","images/plants_choice1.png","images/plants_choice3.png","[1,0,2]","1","0","1","images/plants_choice2.png","1","plants","","bush","1","0"
"html-keyboard-response","96","467110","0.0-9.0-2.0-0.5","1601","1","2","""event"",""trial"",""time""
""fullscreenenter"",""1"",""2158""
","
","
","""event"",""trial"",""time""
""fullscreenenter"",""1"",""2158""
","
","","","","","","null","<div style=""font-size:60px;"">+</div>","null","","fixation","","","","","","","","","","","","","",""
"learning-trial","97","471118","0.0-9.0-2.0-1.5","1601","1","2","""event"",""trial"",""time""
""fullscreenenter"",""1"",""2158""
","
","
","""event"",""trial"",""time""
""fullscreenenter"",""1"",""2158""
","
","","","","","","1039.5","images/tree3.png","","","learning","images/plants_choice1.png","images/plants_choice3.png","images/plants_choice2.png","[0,2,1]","0","0","1","images/plants_choice1.png","1","plants","","tree","1","0"
"html-keyboard-response","98","471621","0.0-9.0-2.0-0.6","1601","1","2","""event"",""trial"",""time""
""fullscreenenter"",""1"",""2158""
","
","
","""event"",""trial"",""time""
""fullscreenenter"",""1"",""2158""
","
","","","","","","null","<div style=""font-size:60px;"">+</div>","null","","fixation","","","","","","","","","","","","","",""
"learning-trial","99","475629","0.0-9.0-2.0-1.6","1601","1","2","""event"",""trial"",""time""
""fullscreenenter"",""1"",""2158""
","
","
","""event"",""trial"",""time""
""fullscreenenter"",""1"",""2158""
","
","","","","","","1093.4000000059605","images/tree3.png","","","learning","images/plants_choice2.png","images/plants_choice1.png","images/plants_choice3.png","[1,0,2]","0","1","2","images/plants_choice1.png","1","plants","","tree","1","0"
"html-keyboard-response","100","476130","0.0-9.0-2.0-0.7","1601","1","2","""event"",""trial"",""time""
""fullscreenenter"",""1"",""2158""
","
","
","""event"",""trial"",""time""
""fullscreenenter"",""1"",""2158""
","
","","","","","","null","<div style=""font-size:60px;"">+</div>","null","","fixation","","","","","","","","","","","","","",""
"learning-trial","101","480136","0.0-9.0-2.0-1.7","1601","1","2","""event"",""trial"",""time""
""fullscreenenter"",""1"",""2158""
","
","
","""event"",""trial"",""time""
""fullscreenenter"",""1"",""2158""
","
","","","","","","1226.9000000059605","images/flower5.png","","","learning","images/plants_choice3.png","images/plants_choice2.png","images/plants_choice1.png","[2,1,0]","2","0","1","images/plants_choice3.png","1","plants","","flower","1","0"
"html-keyboard-response","102","480640","0.0-9.0-2.0-0.8","1601","1","2","""event"",""trial"",""time""
""fullscreenenter"",""1"",""2158""
","
","
","""event"",""trial"",""time""
""fullscreenenter"",""1"",""2158""
","
","","","","","","null","<div style=""font-size:60px;"">+</div>","null","","fixation","","","","","","","","","","","","","",""
"learning-trial","103","484648","0.0-9.0-2.0-1.8","1601","1","2","""event"",""trial"",""time""
""fullscreenenter"",""1"",""2158""
","
","
","""event"",""trial"",""time""
""fullscreenenter"",""1"",""2158""
","
","","","","","","753.1999999880791","images/tree3.png","","","learning","images/plants_choice3.png","images/plants_choice1.png","images/plants_choice2.png","[2,0,1]","0","1","2","images/plants_choice1.png","1","plants","","tree","1","0"
"html-keyboard-response","104","485152","0.0-9.0-2.0-0.9","1601","1","2","""event"",""trial"",""time""
""fullscreenenter"",""1"",""2158""
","
","
","""event"",""trial"",""time""
""fullscreenenter"",""1"",""2158""
","
","","","","","","null","<div style=""font-size:60px;"">+</div>","null","","fixation","","","","","","","","","","","","","",""
"learning-trial","105","489160","0.0-9.0-2.0-1.9","1601","1","2","""event"",""trial"",""time""
""fullscreenenter"",""1"",""2158""
","
","
","""event"",""trial"",""time""
""fullscreenenter"",""1"",""2158""
","
","","","","","","1639.4000000059605","images/tree5.png","","","learning","images/plants_choice1.png","images/plants_choice2.png","images/plants_choice3.png","[0,1,2]","0","0","1","images/plants_choice1.png","1","plants","","tree","1","0"
"html-keyboard-response","106","489661","0.0-9.0-2.0-0.10","1601","1","2","""event"",""trial"",""time""
""fullscreenenter"",""1"",""2158""
","
","
","""event"",""trial"",""time""
""fullscreenenter"",""1"",""2158""
","
","","","","","","null","<div style=""font-size:60px;"">+</div>","null","","fixation","","","","","","","","","","","","","",""
"learning-trial","107","493667","0.0-9.0-2.0-1.10","1601","1","2","""event"",""trial"",""time""
""fullscreenenter"",""1"",""2158""
","
","
","""event"",""trial"",""time""
""fullscreenenter"",""1"",""2158""
","
","","","","","","1238.5","images/flower4.png","","","learning","images/plants_choice3.png","images/plants_choice2.png","images/plants_choice1.png","[2,1,0]","2","0","1","images/plants_choice3.png","1","plants","","flower","1","0"
"html-keyboard-response","108","494168","0.0-9.0-2.0-0.11","1601","1","2","""event"",""trial"",""time""
""fullscreenenter"",""1"",""2158""
","
","
","""event"",""trial"",""time""
""fullscreenenter"",""1"",""2158""
","
","","","","","","null","<div style=""font-size:60px;"">+</div>","null","","fixation","","","","","","","","","","","","","",""
"learning-trial","109","498174","0.0-9.0-2.0-1.11","1601","1","2","""event"",""trial"",""time""
""fullscreenenter"",""1"",""2158""
","
","
","""event"",""trial"",""time""
""fullscreenenter"",""1"",""2158""
","
","","","","","","863.2999999821186","images/tree3.png","","","learning","images/plants_choice1.png","images/plants_choice3.png","images/plants_choice2.png","[0,2,1]","0","0","1","images/plants_choice1.png","-1","plants","","tree","1","0"
"html-keyboard-response","110","498675","0.0-9.0-2.0-0.12","1601","1","2","""event"",""trial"",""time""
""fullscreenenter"",""1"",""2158""
","
","
","""event"",""trial"",""time""
""fullscreenenter"",""1"",""2158""
","
","","","","","","null","<div style=""font-size:60px;"">+</div>","null","","fixation","","","","","","","","","","","","","",""
"learning-trial","111","502680","0.0-9.0-2.0-1.12","1601","1","2","""event"",""trial"",""time""
""fullscreenenter"",""1"",""2158""
","
","
","""event"",""trial"",""time""
""fullscreenenter"",""1"",""2158""
","
","","","","","","1095.7999999821186","images/bush3.png","","","learning","images/plants_choice3.png","images/plants_choice1.png","images/plants_choice2.png","[2,0,1]","1","2","3","images/plants_choice2.png","1","plants","","bush","1","0"
"html-keyboard-response","112","503182","0.0-9.0-2.0-0.13","1601","1","2","""event"",""trial"",""time""
""fullscreenenter"",""1"",""2158""
","
","
","""event"",""trial"",""time""
""fullscreenenter"",""1"",""2158""
","
","","","","","","null","<div style=""font-size:60px;"">+</div>","null","","fixation","","","","","","","","","","","","","",""
"learning-trial","113","507187","0.0-9.0-2.0-1.13","1601","1","2","""event"",""trial"",""time""
""fullscreenenter"",""1"",""2158""
","
","
","""event"",""trial"",""time""
""fullscreenenter"",""1"",""2158""
","
","","","","","","797.3000000119209","images/bush3.png","","","learning","images/plants_choice3.png","images/plants_choice2.png","images/plants_choice1.png","[2,1,0]","1","1","2","images/plants_choice2.png","1","plants","","bush","1","0"
"html-keyboard-response","114","507688","0.0-9.0-2.0-0.14","1601","1","2","""event"",""trial"",""time""
""fullscreenenter"",""1"",""2158""
","
","
","""event"",""trial"",""time""
""fullscreenenter"",""1"",""2158""
","
","","","","","","null","<div style=""font-size:60px;"">+</div>","null","","fixation","","","","","","","","","","","","","",""
"learning-trial","115","511694","0.0-9.0-2.0-1.14","1601","1","2","""event"",""trial"",""time""
""fullscreenenter"",""1"",""2158""
","
","
","""event"",""trial"",""time""
""fullscreenenter"",""1"",""2158""
","
","","","","","","749.1999999880791","images/flower4.png","","","learning","images/plants_choice3.png","images/plants_choice2.png","images/plants_choice1.png","[2,1,0]","2","0","1","images/plants_choice3.png","1","plants","","flower","1","0"
"html-keyboard-response","116","512195","0.0-9.0-2.0-0.15","1601","1","2","""event"",""trial"",""time""
""fullscreenenter"",""1"",""2158""
","
","
","""event"",""trial"",""time""
""fullscreenenter"",""1"",""2158""
","
","","","","","","null","<div style=""font-size:60px;"">+</div>","null","","fixation","","","","","","","","","","","","","",""
"learning-trial","117","516200","0.0-9.0-2.0-1.15","1601","1","2","""event"",""trial"",""time""
""fullscreenenter"",""1"",""2158""
","
","
","""event"",""trial"",""time""
""fullscreenenter"",""1"",""2158""
","
","","","","","","750.3999999761581","images/bush1.png","","","learning","images/plants_choice3.png","images/plants_choice2.png","images/plants_choice1.png","[2,1,0]","1","1","2","images/plants_choice2.png","-1","plants","","bush","1","0"
"html-keyboard-response","118","516703","0.0-9.0-2.0-0.16","1601","1","2","""event"",""trial"",""time""
""fullscreenenter"",""1"",""2158""
","
","
","""event"",""trial"",""time""
""fullscreenenter"",""1"",""2158""
","
","","","","","","null","<div style=""font-size:60px;"">+</div>","null","","fixation","","","","","","","","","","","","","",""
"learning-trial","119","520707","0.0-9.0-2.0-1.16","1601","1","2","""event"",""trial"",""time""
""fullscreenenter"",""1"",""2158""
","
","
","""event"",""trial"",""time""
""fullscreenenter"",""1"",""2158""
","
","","","","","","1009","images/bush3.png","","","learning","images/plants_choice3.png","images/plants_choice1.png","images/plants_choice2.png","[2,0,1]","1","2","3","images/plants_choice2.png","1","plants","","bush","1","0"
"html-keyboard-response","120","521209","0.0-9.0-2.0-0.17","1601","1","2","""event"",""trial"",""time""
""fullscreenenter"",""1"",""2158""
","
","
","""event"",""trial"",""time""
""fullscreenenter"",""1"",""2158""
","
","","","","","","null","<div style=""font-size:60px;"">+</div>","null","","fixation","","","","","","","","","","","","","",""
"learning-trial","121","525214","0.0-9.0-2.0-1.17","1601","1","2","""event"",""trial"",""time""
""fullscreenenter"",""1"",""2158""
","
","
","""event"",""trial"",""time""
""fullscreenenter"",""1"",""2158""
","
","","","","","","764","images/bush1.png","","","learning","images/plants_choice2.png","images/plants_choice3.png","images/plants_choice1.png","[1,2,0]","1","0","1","images/plants_choice2.png","1","plants","","bush","1","0"
"html-keyboard-response","122","525716","0.0-9.0-2.0-0.18","1601","1","2","""event"",""trial"",""time""
""fullscreenenter"",""1"",""2158""
","
","
","""event"",""trial"",""time""
""fullscreenenter"",""1"",""2158""
","
","","","","","","null","<div style=""font-size:60px;"">+</div>","null","","fixation","","","","","","","","","","","","","",""
"learning-trial","123","529721","0.0-9.0-2.0-1.18","1601","1","2","""event"",""trial"",""time""
""fullscreenenter"",""1"",""2158""
","
","
","""event"",""trial"",""time""
""fullscreenenter"",""1"",""2158""
","
","","","","","","689.8000000119209","images/bush1.png","","","learning","images/plants_choice2.png","images/plants_choice3.png","images/plants_choice1.png","[1,2,0]","1","0","1","images/plants_choice2.png","1","plants","","bush","1","0"
"html-keyboard-response","124","530225","0.0-9.0-2.0-0.19","1601","1","2","""event"",""trial"",""time""
""fullscreenenter"",""1"",""2158""
","
","
","""event"",""trial"",""time""
""fullscreenenter"",""1"",""2158""
","
","","","","","","null","<div style=""font-size:60px;"">+</div>","null","","fixation","","","","","","","","","","","","","",""
"learning-trial","125","534228","0.0-9.0-2.0-1.19","1601","1","2","""event"",""trial"",""time""
""fullscreenenter"",""1"",""2158""
","
","
","""event"",""trial"",""time""
""fullscreenenter"",""1"",""2158""
","
","","","","","","822.5","images/flower4.png","","","learning","images/plants_choice3.png","images/plants_choice1.png","images/plants_choice2.png","[2,0,1]","2","0","1","images/plants_choice3.png","1","plants","","flower","1","0"
"html-keyboard-response","126","534729","0.0-9.0-2.0-0.20","1601","1","2","""event"",""trial"",""time""
""fullscreenenter"",""1"",""2158""
","
","
","""event"",""trial"",""time""
""fullscreenenter"",""1"",""2158""
","
","","","","","","null","<div style=""font-size:60px;"">+</div>","null","","fixation","","","","","","","","","","","","","",""
"learning-trial","127","538735","0.0-9.0-2.0-1.20","1601","1","2","""event"",""trial"",""time""
""fullscreenenter"",""1"",""2158""
","
","
","""event"",""trial"",""time""
""fullscreenenter"",""1"",""2158""
","
","","","","","","970.9000000059605","images/flower4.png","","","learning","images/plants_choice1.png","images/plants_choice3.png","images/plants_choice2.png","[0,2,1]","2","1","2","images/plants_choice3.png","-1","plants","","flower","1","0"
"html-keyboard-response","128","539240","0.0-9.0-2.0-0.21","1601","1","2","""event"",""trial"",""time""
""fullscreenenter"",""1"",""2158""
","
","
","""event"",""trial"",""time""
""fullscreenenter"",""1"",""2158""
","
","","","","","","null","<div style=""font-size:60px;"">+</div>","null","","fixation","","","","","","","","","","","","","",""
"learning-trial","129","543247","0.0-9.0-2.0-1.21","1601","1","2","""event"",""trial"",""time""
""fullscreenenter"",""1"",""2158""
","
","
","""event"",""trial"",""time""
""fullscreenenter"",""1"",""2158""
","
","","","","","","864.1999999880791","images/flower4.png","","","learning","images/plants_choice2.png","images/plants_choice3.png","images/plants_choice1.png","[1,2,0]","2","1","2","images/plants_choice3.png","1","plants","","flower","1","0"
"html-keyboard-response","130","543748","0.0-9.0-2.0-0.22","1601","1","2","""event"",""trial"",""time""
""fullscreenenter"",""1"",""2158""
","
","
","""event"",""trial"",""time""
""fullscreenenter"",""1"",""2158""
","
","","","","","","null","<div style=""font-size:60px;"">+</div>","null","","fixation","","","","","","","","","","","","","",""
"learning-trial","131","547754","0.0-9.0-2.0-1.22","1601","1","2","""event"",""trial"",""time""
""fullscreenenter"",""1"",""2158""
","
","
","""event"",""trial"",""time""
""fullscreenenter"",""1"",""2158""
","
","","","","","","796.5","images/bush3.png","","","learning","images/plants_choice1.png","images/plants_choice2.png","images/plants_choice3.png","[0,1,2]","1","1","2","images/plants_choice2.png","-1","plants","","bush","1","0"
"html-keyboard-response","132","548255","0.0-9.0-2.0-0.23","1601","1","2","""event"",""trial"",""time""
""fullscreenenter"",""1"",""2158""
","
","
","""event"",""trial"",""time""
""fullscreenenter"",""1"",""2158""
","
","","","","","","null","<div style=""font-size:60px;"">+</div>","null","","fixation","","","","","","","","","","","","","",""
"learning-trial","133","552261","0.0-9.0-2.0-1.23","1601","1","2","""event"",""trial"",""time""
""fullscreenenter"",""1"",""2158""
","
","
","""event"",""trial"",""time""
""fullscreenenter"",""1"",""2158""
","
","","","","","","1081.699999988079","images/tree5.png","","","learning","images/plants_choice2.png","images/plants_choice3.png","images/plants_choice1.png","[1,2,0]","0","2","3","images/plants_choice1.png","1","plants","","tree","1","0"
"html-keyboard-response","134","552762","0.0-9.0-2.0-0.24","1601","1","2","""event"",""trial"",""time""
""fullscreenenter"",""1"",""2158""
","
","
","""event"",""trial"",""time""
""fullscreenenter"",""1"",""2158""
","
","","","","","","null","<div style=""font-size:60px;"">+</div>","null","","fixation","","","","","","","","","","","","","",""
"learning-trial","135","556767","0.0-9.0-2.0-1.24","1601","1","2","""event"",""trial"",""time""
""fullscreenenter"",""1"",""2158""
","
","
","""event"",""trial"",""time""
""fullscreenenter"",""1"",""2158""
","
","","","","","","813.7999999821186","images/bush4.png","","","learning","images/plants_choice2.png","images/plants_choice1.png","images/plants_choice3.png","[1,0,2]","1","0","1","images/plants_choice2.png","1","plants","","bush","1","0"
"html-keyboard-response","136","557274","0.0-9.0-2.0-0.25","1601","1","2","""event"",""trial"",""time""
""fullscreenenter"",""1"",""2158""
","
","
","""event"",""trial"",""time""
""fullscreenenter"",""1"",""2158""
","
","","","","","","null","<div style=""font-size:60px;"">+</div>","null","","fixation","","","","","","","","","","","","","",""
"learning-trial","137","561280","0.0-9.0-2.0-1.25","1601","1","2","""event"",""trial"",""time""
""fullscreenenter"",""1"",""2158""
","
","
","""event"",""trial"",""time""
""fullscreenenter"",""1"",""2158""
","
","","","","","","991.6000000238419","images/flower2.png","","","learning","images/plants_choice2.png","images/plants_choice3.png","images/plants_choice1.png","[1,2,0]","2","1","2","images/plants_choice3.png","-1","plants","","flower","1","0"
"html-keyboard-response","138","561786","0.0-9.0-2.0-0.26","1601","1","2","""event"",""trial"",""time""
""fullscreenenter"",""1"",""2158""
","
","
","""event"",""trial"",""time""
""fullscreenenter"",""1"",""2158""
","
","","","","","","null","<div style=""font-size:60px;"">+</div>","null","","fixation","","","","","","","","","","","","","",""
"learning-trial","139","565792","0.0-9.0-2.0-1.26","1601","1","2","""event"",""trial"",""time""
""fullscreenenter"",""1"",""2158""
","
","
","""event"",""trial"",""time""
""fullscreenenter"",""1"",""2158""
","
","","","","","","1128.5","images/flower2.png","","","learning","images/plants_choice1.png","images/plants_choice2.png","images/plants_choice3.png","[0,1,2]","2","2","3","images/plants_choice3.png","1","plants","","flower","1","0"
"html-keyboard-response","140","566294","0.0-9.0-2.0-0.27","1601","1","2","""event"",""trial"",""time""
""fullscreenenter"",""1"",""2158""
","
","
","""event"",""trial"",""time""
""fullscreenenter"",""1"",""2158""
","
","","","","","","null","<div style=""font-size:60px;"">+</div>","null","","fixation","","","","","","","","","","","","","",""
"learning-trial","141","570299","0.0-9.0-2.0-1.27","1601","1","2","""event"",""trial"",""time""
""fullscreenenter"",""1"",""2158""
","
","
","""event"",""trial"",""time""
""fullscreenenter"",""1"",""2158""
","
","","","","","","1918.5","images/tree2.png","","","learning","images/plants_choice2.png","images/plants_choice3.png","images/plants_choice1.png","[1,2,0]","0","2","3","images/plants_choice1.png","1","plants","","tree","1","0"
"html-keyboard-response","142","570805","0.0-9.0-2.0-0.28","1601","1","2","""event"",""trial"",""time""
""fullscreenenter"",""1"",""2158""
","
","
","""event"",""trial"",""time""
""fullscreenenter"",""1"",""2158""
","
","","","","","","null","<div style=""font-size:60px;"">+</div>","null","","fixation","","","","","","","","","","","","","",""
"learning-trial","143","574811","0.0-9.0-2.0-1.28","1601","1","2","""event"",""trial"",""time""
""fullscreenenter"",""1"",""2158""
","
","
","""event"",""trial"",""time""
""fullscreenenter"",""1"",""2158""
","
","","","","","","1032.699999988079","images/flower4.png","","","learning","images/plants_choice2.png","images/plants_choice1.png","images/plants_choice3.png","[1,0,2]","2","2","3","images/plants_choice3.png","1","plants","","flower","1","0"
"html-keyboard-response","144","575317","0.0-9.0-2.0-0.29","1601","1","2","""event"",""trial"",""time""
""fullscreenenter"",""1"",""2158""
","
","
","""event"",""trial"",""time""
""fullscreenenter"",""1"",""2158""
","
","","","","","","null","<div style=""font-size:60px;"">+</div>","null","","fixation","","","","","","","","","","","","","",""
"learning-trial","145","579323","0.0-9.0-2.0-1.29","1601","1","2","""event"",""trial"",""time""
""fullscreenenter"",""1"",""2158""
","
","
","""event"",""trial"",""time""
""fullscreenenter"",""1"",""2158""
","
","","","","","","875.7999999821186","images/flower2.png","","","learning","images/plants_choice3.png","images/plants_choice1.png","images/plants_choice2.png","[2,0,1]","2","0","1","images/plants_choice3.png","1","plants","","flower","1","0"
"html-keyboard-response","146","579824","0.0-9.0-2.0-0.30","1601","1","2","""event"",""trial"",""time""
""fullscreenenter"",""1"",""2158""
","
","
","""event"",""trial"",""time""
""fullscreenenter"",""1"",""2158""
","
","","","","","","null","<div style=""font-size:60px;"">+</div>","null","","fixation","","","","","","","","","","","","","",""
"learning-trial","147","583829","0.0-9.0-2.0-1.30","1601","1","2","""event"",""trial"",""time""
""fullscreenenter"",""1"",""2158""
","
","
","""event"",""trial"",""time""
""fullscreenenter"",""1"",""2158""
","
","","","","","","958.6999999880791","images/tree5.png","","","learning","images/plants_choice3.png","images/plants_choice1.png","images/plants_choice2.png","[2,0,1]","0","1","2","images/plants_choice1.png","1","plants","","tree","1","0"
"html-keyboard-response","148","584331","0.0-9.0-2.0-0.31","1601","1","2","""event"",""trial"",""time""
""fullscreenenter"",""1"",""2158""
","
","
","""event"",""trial"",""time""
""fullscreenenter"",""1"",""2158""
","
","","","","","","null","<div style=""font-size:60px;"">+</div>","null","","fixation","","","","","","","","","","","","","",""
"learning-trial","149","588337","0.0-9.0-2.0-1.31","1601","1","2","""event"",""trial"",""time""
""fullscreenenter"",""1"",""2158""
","
","
","""event"",""trial"",""time""
""fullscreenenter"",""1"",""2158""
","
","","","","","","781.5","images/flower2.png","","","learning","images/plants_choice2.png","images/plants_choice1.png","images/plants_choice3.png","[1,0,2]","2","2","3","images/plants_choice3.png","1","plants","","flower","1","0"
"html-keyboard-response","150","588843","0.0-9.0-2.0-0.32","1601","1","2","""event"",""trial"",""time""
""fullscreenenter"",""1"",""2158""
","
","
","""event"",""trial"",""time""
""fullscreenenter"",""1"",""2158""
","
","","","","","","null","<div style=""font-size:60px;"">+</div>","null","","fixation","","","","","","","","","","","","","",""
"learning-trial","151","592849","0.0-9.0-2.0-1.32","1601","1","2","""event"",""trial"",""time""
""fullscreenenter"",""1"",""2158""
","
","
","""event"",""trial"",""time""
""fullscreenenter"",""1"",""2158""
","
","","","","","","848.9000000059605","images/flower2.png","","","learning","images/plants_choice1.png","images/plants_choice3.png","images/plants_choice2.png","[0,2,1]","2","1","2","images/plants_choice3.png","1","plants","","flower","1","0"
"html-keyboard-response","152","593355","0.0-9.0-2.0-0.33","1601","1","2","""event"",""trial"",""time""
""fullscreenenter"",""1"",""2158""
","
","
","""event"",""trial"",""time""
""fullscreenenter"",""1"",""2158""
","
","","","","","","null","<div style=""font-size:60px;"">+</div>","null","","fixation","","","","","","","","","","","","","",""
"learning-trial","153","597361","0.0-9.0-2.0-1.33","1601","1","2","""event"",""trial"",""time""
""fullscreenenter"",""1"",""2158""
","
","
","""event"",""trial"",""time""
""fullscreenenter"",""1"",""2158""
","
","","","","","","1577.3999999761581","images/tree5.png","","","learning","images/plants_choice2.png","images/plants_choice1.png","images/plants_choice3.png","[1,0,2]","0","1","2","images/plants_choice1.png","1","plants","","tree","1","0"
"html-keyboard-response","154","597867","0.0-9.0-2.0-0.34","1601","1","2","""event"",""trial"",""time""
""fullscreenenter"",""1"",""2158""
","
","
","""event"",""trial"",""time""
""fullscreenenter"",""1"",""2158""
","
","","","","","","null","<div style=""font-size:60px;"">+</div>","null","","fixation","","","","","","","","","","","","","",""
"learning-trial","155","601873","0.0-9.0-2.0-1.34","1601","1","2","""event"",""trial"",""time""
""fullscreenenter"",""1"",""2158""
","
","
","""event"",""trial"",""time""
""fullscreenenter"",""1"",""2158""
","
","","","","","","865.3999999761581","images/tree2.png","","","learning","images/plants_choice2.png","images/plants_choice1.png","images/plants_choice3.png","[1,0,2]","0","1","2","images/plants_choice1.png","1","plants","","tree","1","0"
"html-keyboard-response","156","602374","0.0-9.0-2.0-0.35","1601","1","2","""event"",""trial"",""time""
""fullscreenenter"",""1"",""2158""
","
","
","""event"",""trial"",""time""
""fullscreenenter"",""1"",""2158""
","
","","","","","","null","<div style=""font-size:60px;"">+</div>","null","","fixation","","","","","","","","","","","","","",""
"learning-trial","157","606380","0.0-9.0-2.0-1.35","1601","1","2","""event"",""trial"",""time""
""fullscreenenter"",""1"",""2158""
","
","
","""event"",""trial"",""time""
""fullscreenenter"",""1"",""2158""
","
","","","","","","756.2000000178814","images/bush4.png","","","learning","images/plants_choice2.png","images/plants_choice3.png","images/plants_choice1.png","[1,2,0]","1","0","1","images/plants_choice2.png","1","plants","","bush","1","0"
"html-keyboard-response","158","606886","0.0-9.0-2.0-0.36","1601","1","2","""event"",""trial"",""time""
""fullscreenenter"",""1"",""2158""
","
","
","""event"",""trial"",""time""
""fullscreenenter"",""1"",""2158""
","
","","","","","","null","<div style=""font-size:60px;"">+</div>","null","","fixation","","","","","","","","","","","","","",""
"learning-trial","159","610892","0.0-9.0-2.0-1.36","1601","1","2","""event"",""trial"",""time""
""fullscreenenter"",""1"",""2158""
","
","
","""event"",""trial"",""time""
""fullscreenenter"",""1"",""2158""
","
","","","","","","979.5999999940395","images/flower5.png","","","learning","images/plants_choice1.png","images/plants_choice2.png","images/plants_choice3.png","[0,1,2]","2","2","3","images/plants_choice3.png","1","plants","","flower","1","0"
"html-keyboard-response","160","611398","0.0-9.0-2.0-0.37","1601","1","2","""event"",""trial"",""time""
""fullscreenenter"",""1"",""2158""
","
","
","""event"",""trial"",""time""
""fullscreenenter"",""1"",""2158""
","
","","","","","","null","<div style=""font-size:60px;"">+</div>","null","","fixation","","","","","","","","","","","","","",""
"learning-trial","161","615404","0.0-9.0-2.0-1.37","1601","1","2","""event"",""trial"",""time""
""fullscreenenter"",""1"",""2158""
","
","
","""event"",""trial"",""time""
""fullscreenenter"",""1"",""2158""
","
","","","","","","1169.7999999821186","images/flower5.png","","","learning","images/plants_choice2.png","images/plants_choice1.png","images/plants_choice3.png","[1,0,2]","2","2","3","images/plants_choice3.png","1","plants","","flower","1","0"
"html-keyboard-response","162","615910","0.0-9.0-2.0-0.38","1601","1","2","""event"",""trial"",""time""
""fullscreenenter"",""1"",""2158""
","
","
","""event"",""trial"",""time""
""fullscreenenter"",""1"",""2158""
","
","","","","","","null","<div style=""font-size:60px;"">+</div>","null","","fixation","","","","","","","","","","","","","",""
"learning-trial","163","619916","0.0-9.0-2.0-1.38","1601","1","2","""event"",""trial"",""time""
""fullscreenenter"",""1"",""2158""
","
","
","""event"",""trial"",""time""
""fullscreenenter"",""1"",""2158""
","
","","","","","","1881.699999988079","images/tree2.png","","","learning","images/plants_choice2.png","images/plants_choice1.png","images/plants_choice3.png","[1,0,2]","0","1","2","images/plants_choice1.png","1","plants","","tree","1","0"
"html-keyboard-response","164","620422","0.0-9.0-2.0-0.39","1601","1","2","""event"",""trial"",""time""
""fullscreenenter"",""1"",""2158""
","
","
","""event"",""trial"",""time""
""fullscreenenter"",""1"",""2158""
","
","","","","","","null","<div style=""font-size:60px;"">+</div>","null","","fixation","","","","","","","","","","","","","",""
"learning-trial","165","624430","0.0-9.0-2.0-1.39","1601","1","2","""event"",""trial"",""time""
""fullscreenenter"",""1"",""2158""
","
","
","""event"",""trial"",""time""
""fullscreenenter"",""1"",""2158""
","
","","","","","","1074.2999999821186","images/tree2.png","","","learning","images/plants_choice1.png","images/plants_choice2.png","images/plants_choice3.png","[0,1,2]","0","0","1","images/plants_choice1.png","1","plants","","tree","1","0"
"html-keyboard-response","166","624935","0.0-9.0-2.0-0.40","1601","1","2","""event"",""trial"",""time""
""fullscreenenter"",""1"",""2158""
","
","
","""event"",""trial"",""time""
""fullscreenenter"",""1"",""2158""
","
","","","","","","null","<div style=""font-size:60px;"">+</div>","null","","fixation","","","","","","","","","","","","","",""
"learning-trial","167","628940","0.0-9.0-2.0-1.40","1601","1","2","""event"",""trial"",""time""
""fullscreenenter"",""1"",""2158""
","
","
","""event"",""trial"",""time""
""fullscreenenter"",""1"",""2158""
","
","","","","","","1163.199999988079","images/bush4.png","","","learning","images/plants_choice3.png","images/plants_choice1.png","images/plants_choice2.png","[2,0,1]","1","2","3","images/plants_choice2.png","1","plants","","bush","1","0"
"html-keyboard-response","168","629447","0.0-9.0-2.0-0.41","1601","1","2","""event"",""trial"",""time""
""fullscreenenter"",""1"",""2158""
","
","
","""event"",""trial"",""time""
""fullscreenenter"",""1"",""2158""
","
","","","","","","null","<div style=""font-size:60px;"">+</div>","null","","fixation","","","","","","","","","","","","","",""
"learning-trial","169","633452","0.0-9.0-2.0-1.41","1601","1","2","""event"",""trial"",""time""
""fullscreenenter"",""1"",""2158""
","
","
","""event"",""trial"",""time""
""fullscreenenter"",""1"",""2158""
","
","","","","","","1181","images/tree3.png","","","learning","images/plants_choice3.png","images/plants_choice1.png","images/plants_choice2.png","[2,0,1]","0","1","2","images/plants_choice1.png","1","plants","","tree","1","0"
"html-keyboard-response","170","633959","0.0-9.0-2.0-0.42","1601","1","2","""event"",""trial"",""time""
""fullscreenenter"",""1"",""2158""
","
","
","""event"",""trial"",""time""
""fullscreenenter"",""1"",""2158""
","
","","","","","","null","<div style=""font-size:60px;"">+</div>","null","","fixation","","","","","","","","","","","","","",""
"learning-trial","171","637965","0.0-9.0-2.0-1.42","1601","1","2","""event"",""trial"",""time""
""fullscreenenter"",""1"",""2158""
","
","
","""event"",""trial"",""time""
""fullscreenenter"",""1"",""2158""
","
","","","","","","715.3000000119209","images/bush4.png","","","learning","images/plants_choice3.png","images/plants_choice2.png","images/plants_choice1.png","[2,1,0]","1","1","2","images/plants_choice2.png","1","plants","","bush","1","0"
"html-keyboard-response","172","638471","0.0-9.0-2.0-0.43","1601","1","2","""event"",""trial"",""time""
""fullscreenenter"",""1"",""2158""
","
","
","""event"",""trial"",""time""
""fullscreenenter"",""1"",""2158""
","
","","","","","","null","<div style=""font-size:60px;"">+</div>","null","","fixation","","","","","","","","","","","","","",""
"learning-trial","173","642477","0.0-9.0-2.0-1.43","1601","1","2","""event"",""trial"",""time""
""fullscreenenter"",""1"",""2158""
","
","
","""event"",""trial"",""time""
""fullscreenenter"",""1"",""2158""
","
","","","","","","853.9000000059605","images/tree3.png","","","learning","images/plants_choice1.png","images/plants_choice2.png","images/plants_choice3.png","[0,1,2]","0","0","1","images/plants_choice1.png","1","plants","","tree","1","0"
"html-keyboard-response","174","642980","0.0-9.0-2.0-0.44","1601","1","2","""event"",""trial"",""time""
""fullscreenenter"",""1"",""2158""
","
","
","""event"",""trial"",""time""
""fullscreenenter"",""1"",""2158""
","
","","","","","","null","<div style=""font-size:60px;"">+</div>","null","","fixation","","","","","","","","","","","","","",""
"learning-trial","175","646984","0.0-9.0-2.0-1.44","1601","1","2","""event"",""trial"",""time""
""fullscreenenter"",""1"",""2158""
","
","
","""event"",""trial"",""time""
""fullscreenenter"",""1"",""2158""
","
","","","","","","633.7999999821186","images/bush4.png","","","learning","images/plants_choice1.png","images/plants_choice2.png","images/plants_choice3.png","[0,1,2]","1","1","2","images/plants_choice2.png","1","plants","","bush","1","0"
"html-keyboard-response","176","647490","0.0-9.0-2.0-0.45","1601","1","2","""event"",""trial"",""time""
""fullscreenenter"",""1"",""2158""
","
","
","""event"",""trial"",""time""
""fullscreenenter"",""1"",""2158""
","
","","","","","","null","<div style=""font-size:60px;"">+</div>","null","","fixation","","","","","","","","","","","","","",""
"learning-trial","177","651496","0.0-9.0-2.0-1.45","1601","1","2","""event"",""trial"",""time""
""fullscreenenter"",""1"",""2158""
","
","
","""event"",""trial"",""time""
""fullscreenenter"",""1"",""2158""
","
","","","","","","583.2000000178814","images/bush1.png","","","learning","images/plants_choice1.png","images/plants_choice2.png","images/plants_choice3.png","[0,1,2]","1","1","2","images/plants_choice2.png","1","plants","","bush","1","0"
"html-keyboard-response","178","652002","0.0-9.0-2.0-0.46","1601","1","2","""event"",""trial"",""time""
""fullscreenenter"",""1"",""2158""
","
","
","""event"",""trial"",""time""
""fullscreenenter"",""1"",""2158""
","
","","","","","","null","<div style=""font-size:60px;"">+</div>","null","","fixation","","","","","","","","","","","","","",""
"learning-trial","179","656008","0.0-9.0-2.0-1.46","1601","1","2","""event"",""trial"",""time""
""fullscreenenter"",""1"",""2158""
","
","
","""event"",""trial"",""time""
""fullscreenenter"",""1"",""2158""
","
","","","","","","723.4000000059605","images/flower5.png","","","learning","images/plants_choice2.png","images/plants_choice3.png","images/plants_choice1.png","[1,2,0]","2","1","2","images/plants_choice3.png","1","plants","","flower","1","0"
"html-keyboard-response","180","656514","0.0-9.0-2.0-0.47","1601","1","2","""event"",""trial"",""time""
""fullscreenenter"",""1"",""2158""
","
","
","""event"",""trial"",""time""
""fullscreenenter"",""1"",""2158""
","
","","","","","","null","<div style=""font-size:60px;"">+</div>","null","","fixation","","","","","","","","","","","","","",""
"learning-trial","181","660520","0.0-9.0-2.0-1.47","1601","1","2","""event"",""trial"",""time""
""fullscreenenter"",""1"",""2158""
","
","
","""event"",""trial"",""time""
""fullscreenenter"",""1"",""2158""
","
","","","","","","735.6999999880791","images/flower4.png","","","learning","images/plants_choice3.png","images/plants_choice1.png","images/plants_choice2.png","[2,0,1]","2","0","1","images/plants_choice3.png","1","plants","","flower","1","0"
"html-keyboard-response","182","661021","0.0-9.0-2.0-0.48","1601","1","2","""event"",""trial"",""time""
""fullscreenenter"",""1"",""2158""
","
","
","""event"",""trial"",""time""
""fullscreenenter"",""1"",""2158""
","
","","","","","","null","<div style=""font-size:60px;"">+</div>","null","","fixation","","","","","","","","","","","","","",""
"learning-trial","183","665027","0.0-9.0-2.0-1.48","1601","1","2","""event"",""trial"",""time""
""fullscreenenter"",""1"",""2158""
","
","
","""event"",""trial"",""time""
""fullscreenenter"",""1"",""2158""
","
","","","","","","1165.4000000059605","images/bush3.png","","","learning","images/plants_choice2.png","images/plants_choice3.png","images/plants_choice1.png","[1,2,0]","1","0","1","images/plants_choice2.png","1","plants","","bush","1","0"
"html-keyboard-response","184","665528","0.0-9.0-2.0-0.49","1601","1","2","""event"",""trial"",""time""
""fullscreenenter"",""1"",""2158""
","
","
","""event"",""trial"",""time""
""fullscreenenter"",""1"",""2158""
","
","","","","","","null","<div style=""font-size:60px;"">+</div>","null","","fixation","","","","","","","","","","","","","",""
"learning-trial","185","669533","0.0-9.0-2.0-1.49","1601","1","2","""event"",""trial"",""time""
""fullscreenenter"",""1"",""2158""
","
","
","""event"",""trial"",""time""
""fullscreenenter"",""1"",""2158""
","
","","","","","","662.6999999880791","images/flower2.png","","","learning","images/plants_choice1.png","images/plants_choice3.png","images/plants_choice2.png","[0,2,1]","2","1","2","images/plants_choice3.png","1","plants","","flower","1","0"
"html-keyboard-response","186","670035","0.0-9.0-2.0-0.50","1601","1","2","""event"",""trial"",""time""
""fullscreenenter"",""1"",""2158""
","
","
","""event"",""trial"",""time""
""fullscreenenter"",""1"",""2158""
","
","","","","","","null","<div style=""font-size:60px;"">+</div>","null","","fixation","","","","","","","","","","","","","",""
"learning-trial","187","674040","0.0-9.0-2.0-1.50","1601","1","2","""event"",""trial"",""time""
""fullscreenenter"",""1"",""2158""
","
","
","""event"",""trial"",""time""
""fullscreenenter"",""1"",""2158""
","
","","","","","","676.3000000119209","images/bush1.png","","","learning","images/plants_choice2.png","images/plants_choice1.png","images/plants_choice3.png","[1,0,2]","1","0","1","images/plants_choice2.png","1","plants","","bush","1","0"
"html-keyboard-response","188","674541","0.0-9.0-2.0-0.51","1601","1","2","""event"",""trial"",""time""
""fullscreenenter"",""1"",""2158""
","
","
","""event"",""trial"",""time""
""fullscreenenter"",""1"",""2158""
","
","","","","","","null","<div style=""font-size:60px;"">+</div>","null","","fixation","","","","","","","","","","","","","",""
"learning-trial","189","678547","0.0-9.0-2.0-1.51","1601","1","2","""event"",""trial"",""time""
""fullscreenenter"",""1"",""2158""
","
","
","""event"",""trial"",""time""
""fullscreenenter"",""1"",""2158""
","
","","","","","","688.6999999880791","images/bush3.png","","","learning","images/plants_choice2.png","images/plants_choice1.png","images/plants_choice3.png","[1,0,2]","1","0","1","images/plants_choice2.png","1","plants","","bush","1","0"
"html-keyboard-response","190","679048","0.0-9.0-2.0-0.52","1601","1","2","""event"",""trial"",""time""
""fullscreenenter"",""1"",""2158""
","
","
","""event"",""trial"",""time""
""fullscreenenter"",""1"",""2158""
","
","","","","","","null","<div style=""font-size:60px;"">+</div>","null","","fixation","","","","","","","","","","","","","",""
"learning-trial","191","683054","0.0-9.0-2.0-1.52","1601","1","2","""event"",""trial"",""time""
""fullscreenenter"",""1"",""2158""
","
","
","""event"",""trial"",""time""
""fullscreenenter"",""1"",""2158""
","
","","","","","","1169.7999999821186","images/tree2.png","","","learning","images/plants_choice1.png","images/plants_choice2.png","images/plants_choice3.png","[0,1,2]","0","0","1","images/plants_choice1.png","1","plants","","tree","1","0"
"html-keyboard-response","192","683555","0.0-9.0-2.0-0.53","1601","1","2","""event"",""trial"",""time""
""fullscreenenter"",""1"",""2158""
","
","
","""event"",""trial"",""time""
""fullscreenenter"",""1"",""2158""
","
","","","","","","null","<div style=""font-size:60px;"">+</div>","null","","fixation","","","","","","","","","","","","","",""
"learning-trial","193","687561","0.0-9.0-2.0-1.53","1601","1","2","""event"",""trial"",""time""
""fullscreenenter"",""1"",""2158""
","
","
","""event"",""trial"",""time""
""fullscreenenter"",""1"",""2158""
","
","","","","","","1029.0999999940395","images/flower5.png","","","learning","images/plants_choice3.png","images/plants_choice1.png","images/plants_choice2.png","[2,0,1]","2","0","1","images/plants_choice3.png","1","plants","","flower","1","0"
"html-keyboard-response","194","688062","0.0-9.0-2.0-0.54","1601","1","2","""event"",""trial"",""time""
""fullscreenenter"",""1"",""2158""
","
","
","""event"",""trial"",""time""
""fullscreenenter"",""1"",""2158""
","
","","","","","","null","<div style=""font-size:60px;"">+</div>","null","","fixation","","","","","","","","","","","","","",""
"learning-trial","195","692070","0.0-9.0-2.0-1.54","1601","1","2","""event"",""trial"",""time""
""fullscreenenter"",""1"",""2158""
","
","
","""event"",""trial"",""time""
""fullscreenenter"",""1"",""2158""
","
","","","","","","582.5999999940395","images/flower2.png","","","learning","images/plants_choice3.png","images/plants_choice2.png","images/plants_choice1.png","[2,1,0]","2","0","1","images/plants_choice3.png","1","plants","","flower","1","0"
"html-keyboard-response","196","692575","0.0-9.0-2.0-0.55","1601","1","2","""event"",""trial"",""time""
""fullscreenenter"",""1"",""2158""
","
","
","""event"",""trial"",""time""
""fullscreenenter"",""1"",""2158""
","
","","","","","","null","<div style=""font-size:60px;"">+</div>","null","","fixation","","","","","","","","","","","","","",""
"learning-trial","197","696580","0.0-9.0-2.0-1.55","1601","1","2","""event"",""trial"",""time""
""fullscreenenter"",""1"",""2158""
","
","
","""event"",""trial"",""time""
""fullscreenenter"",""1"",""2158""
","
","","","","","","999.5999999940395","images/tree5.png","","","learning","images/plants_choice1.png","images/plants_choice3.png","images/plants_choice2.png","[0,2,1]","0","0","1","images/plants_choice1.png","-1","plants","","tree","1","0"
"html-keyboard-response","198","697081","0.0-9.0-2.0-0.56","1601","1","2","""event"",""trial"",""time""
""fullscreenenter"",""1"",""2158""
","
","
","""event"",""trial"",""time""
""fullscreenenter"",""1"",""2158""
","
","","","","","","null","<div style=""font-size:60px;"">+</div>","null","","fixation","","","","","","","","","","","","","",""
"learning-trial","199","701086","0.0-9.0-2.0-1.56","1601","1","2","""event"",""trial"",""time""
""fullscreenenter"",""1"",""2158""
","
","
","""event"",""trial"",""time""
""fullscreenenter"",""1"",""2158""
","
","","","","","","874.7000000178814","images/flower2.png","","","learning","images/plants_choice3.png","images/plants_choice1.png","images/plants_choice2.png","[2,0,1]","2","0","1","images/plants_choice3.png","1","plants","","flower","1","0"
"html-keyboard-response","200","701588","0.0-9.0-2.0-0.57","1601","1","2","""event"",""trial"",""time""
""fullscreenenter"",""1"",""2158""
","
","
","""event"",""trial"",""time""
""fullscreenenter"",""1"",""2158""
","
","","","","","","null","<div style=""font-size:60px;"">+</div>","null","","fixation","","","","","","","","","","","","","",""
"learning-trial","201","705593","0.0-9.0-2.0-1.57","1601","1","2","""event"",""trial"",""time""
""fullscreenenter"",""1"",""2158""
","
","
","""event"",""trial"",""time""
""fullscreenenter"",""1"",""2158""
","
","","","","","","936.3000000119209","images/tree3.png","","","learning","images/plants_choice3.png","images/plants_choice2.png","images/plants_choice1.png","[2,1,0]","0","2","3","images/plants_choice1.png","1","plants","","tree","1","0"
"html-keyboard-response","202","706094","0.0-9.0-2.0-0.58","1601","1","2","""event"",""trial"",""time""
""fullscreenenter"",""1"",""2158""
","
","
","""event"",""trial"",""time""
""fullscreenenter"",""1"",""2158""
","
","","","","","","null","<div style=""font-size:60px;"">+</div>","null","","fixation","","","","","","","","","","","","","",""
"learning-trial","203","710100","0.0-9.0-2.0-1.58","1601","1","2","""event"",""trial"",""time""
""fullscreenenter"",""1"",""2158""
","
","
","""event"",""trial"",""time""
""fullscreenenter"",""1"",""2158""
","
","","","","","","895.0999999940395","images/bush4.png","","","learning","images/plants_choice3.png","images/plants_choice1.png","images/plants_choice2.png","[2,0,1]","1","2","3","images/plants_choice2.png","1","plants","","bush","1","0"
"html-keyboard-response","204","710602","0.0-9.0-2.0-0.59","1601","1","2","""event"",""trial"",""time""
""fullscreenenter"",""1"",""2158""
","
","
","""event"",""trial"",""time""
""fullscreenenter"",""1"",""2158""
","
","","","","","","null","<div style=""font-size:60px;"">+</div>","null","","fixation","","","","","","","","","","","","","",""
"learning-trial","205","714607","0.0-9.0-2.0-1.59","1601","1","2","""event"",""trial"",""time""
""fullscreenenter"",""1"",""2158""
","
","
","""event"",""trial"",""time""
""fullscreenenter"",""1"",""2158""
","
","","","","","","698.9000000059605","images/bush4.png","","","learning","images/plants_choice2.png","images/plants_choice3.png","images/plants_choice1.png","[1,2,0]","1","0","1","images/plants_choice2.png","1","plants","","bush","1","0"
"html-keyboard-response","206","715108","0.0-9.0-2.0-0.60","1601","1","2","""event"",""trial"",""time""
""fullscreenenter"",""1"",""2158""
","
","
","""event"",""trial"",""time""
""fullscreenenter"",""1"",""2158""
","
","","","","","","null","<div style=""font-size:60px;"">+</div>","null","","fixation","","","","","","","","","","","","","",""
"learning-trial","207","719114","0.0-9.0-2.0-1.60","1601","1","2","""event"",""trial"",""time""
""fullscreenenter"",""1"",""2158""
","
","
","""event"",""trial"",""time""
""fullscreenenter"",""1"",""2158""
","
","","","","","","793.7000000178814","images/flower5.png","","","learning","images/plants_choice1.png","images/plants_choice3.png","images/plants_choice2.png","[0,2,1]","2","1","2","images/plants_choice3.png","1","plants","","flower","1","0"
"html-keyboard-response","208","719615","0.0-9.0-2.0-0.61","1601","1","2","""event"",""trial"",""time""
""fullscreenenter"",""1"",""2158""
","
","
","""event"",""trial"",""time""
""fullscreenenter"",""1"",""2158""
","
","","","","","","null","<div style=""font-size:60px;"">+</div>","null","","fixation","","","","","","","","","","","","","",""
"learning-trial","209","723620","0.0-9.0-2.0-1.61","1601","1","2","""event"",""trial"",""time""
""fullscreenenter"",""1"",""2158""
","
","
","""event"",""trial"",""time""
""fullscreenenter"",""1"",""2158""
","
","","","","","","1267.9000000059605","images/tree5.png","","","learning","images/plants_choice1.png","images/plants_choice3.png","images/plants_choice2.png","[0,2,1]","0","0","1","images/plants_choice1.png","-1","plants","","tree","1","0"
"html-keyboard-response","210","724122","0.0-9.0-2.0-0.62","1601","1","2","""event"",""trial"",""time""
""fullscreenenter"",""1"",""2158""
","
","
","""event"",""trial"",""time""
""fullscreenenter"",""1"",""2158""
","
","","","","","","null","<div style=""font-size:60px;"">+</div>","null","","fixation","","","","","","","","","","","","","",""
"learning-trial","211","728127","0.0-9.0-2.0-1.62","1601","1","2","""event"",""trial"",""time""
""fullscreenenter"",""1"",""2158""
","
","
","""event"",""trial"",""time""
""fullscreenenter"",""1"",""2158""
","
","","","","","","927.5","images/flower5.png","","","learning","images/plants_choice3.png","images/plants_choice1.png","images/plants_choice2.png","[2,0,1]","2","0","1","images/plants_choice3.png","1","plants","","flower","1","0"
"html-keyboard-response","212","728634","0.0-9.0-2.0-0.63","1601","1","2","""event"",""trial"",""time""
""fullscreenenter"",""1"",""2158""
","
","
","""event"",""trial"",""time""
""fullscreenenter"",""1"",""2158""
","
","","","","","","null","<div style=""font-size:60px;"">+</div>","null","","fixation","","","","","","","","","","","","","",""
"learning-trial","213","732639","0.0-9.0-2.0-1.63","1601","1","2","""event"",""trial"",""time""
""fullscreenenter"",""1"",""2158""
","
","
","""event"",""trial"",""time""
""fullscreenenter"",""1"",""2158""
","
","","","","","","918.1000000238419","images/tree5.png","","","learning","images/plants_choice3.png","images/plants_choice1.png","images/plants_choice2.png","[2,0,1]","0","1","2","images/plants_choice1.png","1","plants","","tree","1","0"
"html-keyboard-response","214","733146","0.0-9.0-2.0-0.64","1601","1","2","""event"",""trial"",""time""
""fullscreenenter"",""1"",""2158""
","
","
","""event"",""trial"",""time""
""fullscreenenter"",""1"",""2158""
","
","","","","","","null","<div style=""font-size:60px;"">+</div>","null","","fixation","","","","","","","","","","","","","",""
"learning-trial","215","737151","0.0-9.0-2.0-1.64","1601","1","2","""event"",""trial"",""time""
""fullscreenenter"",""1"",""2158""
","
","
","""event"",""trial"",""time""
""fullscreenenter"",""1"",""2158""
","
","","","","","","830.1999999880791","images/bush3.png","","","learning","images/plants_choice3.png","images/plants_choice1.png","images/plants_choice2.png","[2,0,1]","1","2","3","images/plants_choice2.png","1","plants","","bush","1","0"
"html-keyboard-response","216","737653","0.0-9.0-2.0-0.65","1601","1","2","""event"",""trial"",""time""
""fullscreenenter"",""1"",""2158""
","
","
","""event"",""trial"",""time""
""fullscreenenter"",""1"",""2158""
","
","","","","","","null","<div style=""font-size:60px;"">+</div>","null","","fixation","","","","","","","","","","","","","",""
"learning-trial","217","741658","0.0-9.0-2.0-1.65","1601","1","2","""event"",""trial"",""time""
""fullscreenenter"",""1"",""2158""
","
","
","""event"",""trial"",""time""
""fullscreenenter"",""1"",""2158""
","
","","","","","","1191.800000011921","images/bush3.png","","","learning","images/plants_choice1.png","images/plants_choice3.png","images/plants_choice2.png","[0,2,1]","1","2","3","images/plants_choice2.png","1","plants","","bush","1","0"
"html-keyboard-response","218","742165","0.0-9.0-2.0-0.66","1601","1","2","""event"",""trial"",""time""
""fullscreenenter"",""1"",""2158""
","
","
","""event"",""trial"",""time""
""fullscreenenter"",""1"",""2158""
","
","","","","","","null","<div style=""font-size:60px;"">+</div>","null","","fixation","","","","","","","","","","","","","",""
"learning-trial","219","746170","0.0-9.0-2.0-1.66","1601","1","2","""event"",""trial"",""time""
""fullscreenenter"",""1"",""2158""
","
","
","""event"",""trial"",""time""
""fullscreenenter"",""1"",""2158""
","
","","","","","","1078.800000011921","images/tree2.png","","","learning","images/plants_choice2.png","images/plants_choice1.png","images/plants_choice3.png","[1,0,2]","0","1","2","images/plants_choice1.png","1","plants","","tree","1","0"
"html-keyboard-response","220","746677","0.0-9.0-2.0-0.67","1601","1","2","""event"",""trial"",""time""
""fullscreenenter"",""1"",""2158""
","
","
","""event"",""trial"",""time""
""fullscreenenter"",""1"",""2158""
","
","","","","","","null","<div style=""font-size:60px;"">+</div>","null","","fixation","","","","","","","","","","","","","",""
"learning-trial","221","750684","0.0-9.0-2.0-1.67","1601","1","2","""event"",""trial"",""time""
""fullscreenenter"",""1"",""2158""
","
","
","""event"",""trial"",""time""
""fullscreenenter"",""1"",""2158""
","
","","","","","","989.6000000238419","images/tree3.png","","","learning","images/plants_choice1.png","images/plants_choice3.png","images/plants_choice2.png","[0,2,1]","0","0","1","images/plants_choice1.png","1","plants","","tree","1","0"
"html-keyboard-response","222","751189","0.0-9.0-2.0-0.68","1601","1","2","""event"",""trial"",""time""
""fullscreenenter"",""1"",""2158""
","
","
","""event"",""trial"",""time""
""fullscreenenter"",""1"",""2158""
","
","","","","","","null","<div style=""font-size:60px;"">+</div>","null","","fixation","","","","","","","","","","","","","",""
"learning-trial","223","755194","0.0-9.0-2.0-1.68","1601","1","2","""event"",""trial"",""time""
""fullscreenenter"",""1"",""2158""
","
","
","""event"",""trial"",""time""
""fullscreenenter"",""1"",""2158""
","
","","","","","","817.8000000119209","images/bush1.png","","","learning","images/plants_choice1.png","images/plants_choice3.png","images/plants_choice2.png","[0,2,1]","1","2","3","images/plants_choice2.png","1","plants","","bush","1","0"
"html-keyboard-response","224","755696","0.0-9.0-2.0-0.69","1601","1","2","""event"",""trial"",""time""
""fullscreenenter"",""1"",""2158""
","
","
","""event"",""trial"",""time""
""fullscreenenter"",""1"",""2158""
","
","","","","","","null","<div style=""font-size:60px;"">+</div>","null","","fixation","","","","","","","","","","","","","",""
"learning-trial","225","759702","0.0-9.0-2.0-1.69","1601","1","2","""event"",""trial"",""time""
""fullscreenenter"",""1"",""2158""
","
","
","""event"",""trial"",""time""
""fullscreenenter"",""1"",""2158""
","
","","","","","","712.5","images/tree2.png","","","learning","images/plants_choice3.png","images/plants_choice1.png","images/plants_choice2.png","[2,0,1]","0","1","2","images/plants_choice1.png","1","plants","","tree","1","0"
"html-keyboard-response","226","760203","0.0-9.0-2.0-0.70","1601","1","2","""event"",""trial"",""time""
""fullscreenenter"",""1"",""2158""
","
","
","""event"",""trial"",""time""
""fullscreenenter"",""1"",""2158""
","
","","","","","","null","<div style=""font-size:60px;"">+</div>","null","","fixation","","","","","","","","","","","","","",""
"learning-trial","227","764208","0.0-9.0-2.0-1.70","1601","1","2","""event"",""trial"",""time""
""fullscreenenter"",""1"",""2158""
","
","
","""event"",""trial"",""time""
""fullscreenenter"",""1"",""2158""
","
","","","","","","1308.2000000178814","images/bush1.png","","","learning","images/plants_choice1.png","images/plants_choice2.png","images/plants_choice3.png","[0,1,2]","1","1","1","images/plants_choice1.png","-1","plants","","bush","1","0"
"html-keyboard-response","228","764712","0.0-9.0-2.0-0.71","1601","1","2","""event"",""trial"",""time""
""fullscreenenter"",""1"",""2158""
","
","
","""event"",""trial"",""time""
""fullscreenenter"",""1"",""2158""
","
","","","","","","null","<div style=""font-size:60px;"">+</div>","null","","fixation","","","","","","","","","","","","","",""
"learning-trial","229","768715","0.0-9.0-2.0-1.71","1601","1","2","""event"",""trial"",""time""
""fullscreenenter"",""1"",""2158""
","
","
","""event"",""trial"",""time""
""fullscreenenter"",""1"",""2158""
","
","","","","","","663.8000000119209","images/flower5.png","","","learning","images/plants_choice3.png","images/plants_choice1.png","images/plants_choice2.png","[2,0,1]","2","0","1","images/plants_choice3.png","1","plants","","flower","1","0"
"html-button-response","230","771560","0.0-9.0-3.0","1601","1","2","""event"",""trial"",""time""
""fullscreenenter"",""1"",""2158""
","
","
","""event"",""trial"",""time""
""fullscreenenter"",""1"",""2158""
","
","","","","","","2843.0999999940395","<p> You have completed the round! <p> In this round, you earned 54 points! </p>","0","","break","","","","","","","","","","","","","",""
"html-button-response","231","772553","0.0-10.0","1601","1","2","""event"",""trial"",""time""
""fullscreenenter"",""1"",""2158""
","
","
","""event"",""trial"",""time""
""fullscreenenter"",""1"",""2158""
","
","","","","","","989.8000000119209","<p> Now it's time to play another round. </p>","0","","transition_screen","","","","","","","","","","","","","",""
"preload","232","774495","0.0-11.0-0.0","1601","1","2","""event"",""trial"",""time""
""fullscreenenter"",""1"",""2158""
","
","
","""event"",""trial"",""time""
""fullscreenenter"",""1"",""2158""
","
","true","false","[]","[]","[]","","","","","","","","","","","","","","","","","","",""
"learning-instructions","233","782220","0.0-11.0-1.0-0.0","1601","1","2","""event"",""trial"",""time""
""fullscreenenter"",""1"",""2158""
","
","
","""event"",""trial"",""time""
""fullscreenenter"",""1"",""2158""
","
","","","","","","1245.300000011921","<p> Your goal in this round is to feed all of your pets with the foods they like. </p><p> You will need to feed many pets. </p></div>","","0","instructions","","","","","","","","","","","","","",""
"learning-instructions","234","791043","0.0-11.0-1.0-0.1","1601","1","2","""event"",""trial"",""time""
""fullscreenenter"",""1"",""2158""
","
","
","""event"",""trial"",""time""
""fullscreenenter"",""1"",""2158""
","
","","","","","","830.7999999821186","<p> On each turn, you will see a picture of one of your pets and three different types of foods.  </p><p> You need to select the food that you want to give to your pet.  </p>","","0","instructions","","","","","","","","","","","","","",""
"learning-instructions","235","798586","0.0-11.0-1.0-0.2","1601","1","2","""event"",""trial"",""time""
""fullscreenenter"",""1"",""2158""
","
","
","""event"",""trial"",""time""
""fullscreenenter"",""1"",""2158""
","
","","","","","","842","<p> You can select the food on the left by pressing 1, the food in the middle by pressing 2, and the food on the right by pressing 3. </p><br><div class=""choice-instructions-grid""> <div class=""choice-option""><img src=""images/pets_choice1.png"" class=""choice-option-img"" stage=""instructions"" position=""0"" ><div class=""choice-option-text""> Press ""1."" </div></div><div class=""choice-option""><img src=""images/pets_choice2.png"" class=""choice-option-img"" stage=""instructions"" position=""1"" ><div class=""choice-option-text""> Press ""2."" </div></div><div class=""choice-option""><img src=""images/pets_choice3.png"" class=""choice-option-img"" stage=""instructions"" position=""2"" ><div class=""choice-option-text""> Press ""3."" </div></div></div>","","0","instructions","","","","","","","","","","","","","",""
"learning-instructions","236","803739","0.0-11.0-1.0-0.3","1601","1","2","""event"",""trial"",""time""
""fullscreenenter"",""1"",""2158""
","
","
","""event"",""trial"",""time""
""fullscreenenter"",""1"",""2158""
","
