"trial_type","trial_index","time_elapsed","internal_node_id","subject_id","condition","task_version","interactions","blur_events","focus_events","fullscreenenter_events","fullscreenexit_events","success","timeout","failed_images","failed_audio","failed_video","rt","stimulus","response","button_pressed","task_part","left_choice","middle_choice","right_choice","choice_positions","correct_response","correct_position","key_press","option_selected","points","task_block","correct","stim_cat","block_condition","block_number"
"pavlovia","0","6","0.0-0.0","1711","2","2","""event"",""trial"",""time""
""blur"",""1"",""4762""
""focus"",""1"",""6528""
""fullscreenenter"",""1"",""7887""
","""event"",""trial"",""time""
""blur"",""1"",""4762""
","""event"",""trial"",""time""
""focus"",""1"",""6528""
","""event"",""trial"",""time""
""fullscreenenter"",""1"",""7887""
","
","","","","","","","","","","","","","","","","","","","","","","","",""
"fullscreen","1","8883","0.0-1.0","1711","2","2","""event"",""trial"",""time""
""blur"",""1"",""4762""
""focus"",""1"",""6528""
""fullscreenenter"",""1"",""7887""
","""event"",""trial"",""time""
""blur"",""1"",""4762""
","""event"",""trial"",""time""
""focus"",""1"",""6528""
","""event"",""trial"",""time""
""fullscreenenter"",""1"",""7887""
","
","true","","","","","","","","","","","","","","","","","","","","","","",""
"preload","2","11044","0.0-2.0","1711","2","2","""event"",""trial"",""time""
""blur"",""1"",""4762""
""focus"",""1"",""6528""
""fullscreenenter"",""1"",""7887""
","""event"",""trial"",""time""
""blur"",""1"",""4762""
","""event"",""trial"",""time""
""focus"",""1"",""6528""
","""event"",""trial"",""time""
""fullscreenenter"",""1"",""7887""
","
","true","false","[]","[]","[]","","","","","","","","","","","","","","","","","","",""
"audio-keyboard-response","3","15423","0.0-3.0","1711","2","2","""event"",""trial"",""time""
""blur"",""1"",""4762""
""focus"",""1"",""6528""
""fullscreenenter"",""1"",""7887""
","""event"",""trial"",""time""
""blur"",""1"",""4762""
","""event"",""trial"",""time""
""focus"",""1"",""6528""
","""event"",""trial"",""time""
""fullscreenenter"",""1"",""7887""
","
","","","","","","4367.999999999999","audio/beep_loop.wav"," ","","","","","","","","","","","","","","","",""
"audio-button-response","4","19322","0.0-4.0","1711","2","2","""event"",""trial"",""time""
""blur"",""1"",""4762""
""focus"",""1"",""6528""
""fullscreenenter"",""1"",""7887""
","""event"",""trial"",""time""
""blur"",""1"",""4762""
","""event"",""trial"",""time""
""focus"",""1"",""6528""
","""event"",""trial"",""time""
""fullscreenenter"",""1"",""7887""
","
","","","","","","3891","audio/shark.wav","0","","","","","","","","","","","","","","","",""
"audio-button-response","5","21322","0.0-5.0","1711","2","2","""event"",""trial"",""time""
""blur"",""1"",""4762""
""focus"",""1"",""6528""
""fullscreenenter"",""1"",""7887""
","""event"",""trial"",""time""
""blur"",""1"",""4762""
","""event"",""trial"",""time""
""focus"",""1"",""6528""
","""event"",""trial"",""time""
""fullscreenenter"",""1"",""7887""
","
","","","","","","1000","audio/turtle.wav","1","","","","","","","","","","","","","","","",""
"preload","6","24435","0.0-6.0","1711","2","2","""event"",""trial"",""time""
""blur"",""1"",""4762""
""focus"",""1"",""6528""
""fullscreenenter"",""1"",""7887""
","""event"",""trial"",""time""
""blur"",""1"",""4762""
","""event"",""trial"",""time""
""focus"",""1"",""6528""
","""event"",""trial"",""time""
""fullscreenenter"",""1"",""7887""
","
","true","false","[]","[]","[]","","","","","","","","","","","","","","","","","","",""
"html-keyboard-response","7","26342","0.0-7.0","1711","2","2","""event"",""trial"",""time""
""blur"",""1"",""4762""
""focus"",""1"",""6528""
""fullscreenenter"",""1"",""7887""
","""event"",""trial"",""time""
""blur"",""1"",""4762""
","""event"",""trial"",""time""
""focus"",""1"",""6528""
","""event"",""trial"",""time""
""fullscreenenter"",""1"",""7887""
","
","","","","","","1906.0999999940395","Welcome to the experiment. Press any key to begin and to advance the instructions."," ","","","","","","","","","","","","","","","",""
"learning-instructions","8","35066","0.0-8.0-0.0-0.0","1711","2","2","""event"",""trial"",""time""
""blur"",""1"",""4762""
""focus"",""1"",""6528""
""fullscreenenter"",""1"",""7887""
","""event"",""trial"",""time""
""blur"",""1"",""4762""
","""event"",""trial"",""time""
""focus"",""1"",""6528""
","""event"",""trial"",""time""
""fullscreenenter"",""1"",""7887""
","
","","","","","","971.6000000238419","<p> Welcome! Today you are going to play 6 different rounds of a decision-making game. </p><p> Use the mouse to click next to continue. </p>","","0","instructions","","","","","","","","","","","","","",""
"learning-instructions","9","40395","0.0-8.0-0.0-0.1","1711","2","2","""event"",""trial"",""time""
""blur"",""1"",""4762""
""focus"",""1"",""6528""
""fullscreenenter"",""1"",""7887""
","""event"",""trial"",""time""
""blur"",""1"",""4762""
","""event"",""trial"",""time""
""focus"",""1"",""6528""
","""event"",""trial"",""time""
""fullscreenenter"",""1"",""7887""
","
","","","","","","2329.7999999821186","<p> You will start with a practice round to learn the rules. </p>","","0","instructions","","","","","","","","","","","","","",""
"learning-instructions","10","48818","0.0-8.0-0.0-0.2","1711","2","2","""event"",""trial"",""time""
""blur"",""1"",""4762""
""focus"",""1"",""6528""
""fullscreenenter"",""1"",""7887""
","""event"",""trial"",""time""
""blur"",""1"",""4762""
","""event"",""trial"",""time""
""focus"",""1"",""6528""
","""event"",""trial"",""time""
""fullscreenenter"",""1"",""7887""
","
","","","","","","673.1999999880791","<p> Your goal in this round is to deliver sports equipment to three different parks. </p><p> You will need to deliver many types of equipment. </p></div>","","0","instructions","","","","","","","","","","","","","",""
"learning-instructions","11","58114","0.0-8.0-0.0-0.3","1711","2","2","""event"",""trial"",""time""
""blur"",""1"",""4762""
""focus"",""1"",""6528""
""fullscreenenter"",""1"",""7887""
","""event"",""trial"",""time""
""blur"",""1"",""4762""
","""event"",""trial"",""time""
""focus"",""1"",""6528""
","""event"",""trial"",""time""
""fullscreenenter"",""1"",""7887""
","
","","","","","","819.3000000119209","<p> On each turn, you will see one piece of sports equipment and three different parks.  </p><p> You need to select which park to deliver the equipment to.  </p>","","0","instructions","","","","","","","","","","","","","",""
"learning-instructions","12","72203","0.0-8.0-0.0-0.4","1711","2","2","""event"",""trial"",""time""
""blur"",""1"",""4762""
""focus"",""1"",""6528""
""fullscreenenter"",""1"",""7887""
","""event"",""trial"",""time""
""blur"",""1"",""4762""
","""event"",""trial"",""time""
""focus"",""1"",""6528""
","""event"",""trial"",""time""
""fullscreenenter"",""1"",""7887""
","
","","","","","","807.2000000178814","<p> You can select the park on the left by pressing the '1' key on your keyboard. <br>You can select the park in the middle by pressing the '2' key on your keyboard. <br>You can select the park on the right by pressing the '3' key on your keyboard.  </p><br><div class=""choice-instructions-grid""> <div class=""choice-option""><img src=""images/park1.png"" class=""choice-option-img"" stage=""instructions"" position=""0"" ><div class=""choice-option-text""> Press ""1."" </div></div><div class=""choice-option""><img src=""images/park2.png"" class=""choice-option-img"" stage=""instructions"" position=""1"" ><div class=""choice-option-text""> Press ""2."" </div></div><div class=""choice-option""><img src=""images/park3.png"" class=""choice-option-img"" stage=""instructions"" position=""2"" ><div class=""choice-option-text""> Press ""3."" </div></div></div>","","0","instructions","","","","","","","","","","","","","",""
"learning-instructions","13","78022","0.0-8.0-0.0-0.5","1711","2","2","""event"",""trial"",""time""
""blur"",""1"",""4762""
""focus"",""1"",""6528""
""fullscreenenter"",""1"",""7887""
","""event"",""trial"",""time""
""blur"",""1"",""4762""
","""event"",""trial"",""time""
""focus"",""1"",""6528""
","""event"",""trial"",""time""
""fullscreenenter"",""1"",""7887""
","
","","","","","","436.7000000178814","<p> If the kids in the park you chose like the equipment, they will be very happy! </p><div style='float: center;'><img src='images/check.png' width = '200' height = '200'></img>","","0","instructions","","","","","","","","","","","","","",""
"learning-instructions","14","84007","0.0-8.0-0.0-0.6","1711","2","2","""event"",""trial"",""time""
""blur"",""1"",""4762""
""focus"",""1"",""6528""
""fullscreenenter"",""1"",""7887""
","""event"",""trial"",""time""
""blur"",""1"",""4762""
","""event"",""trial"",""time""
""focus"",""1"",""6528""
","""event"",""trial"",""time""
""fullscreenenter"",""1"",""7887""
","
","","","","","","391.40000000596046","<p> But, if the kids in the park you chose do not like the equipment, they will be sad. </p><div style='float: center;'><img src='images/x.png' width = '200' height = '200'></img>","","0","instructions","","","","","","","","","","","","","",""
"learning-instructions","15","90831","0.0-8.0-0.0-0.7","1711","2","2","""event"",""trial"",""time""
""blur"",""1"",""4762""
""focus"",""1"",""6528""
""fullscreenenter"",""1"",""7887""
","""event"",""trial"",""time""
""blur"",""1"",""4762""
","""event"",""trial"",""time""
""focus"",""1"",""6528""
","""event"",""trial"",""time""
""fullscreenenter"",""1"",""7887""
","
","","","","","","385.40000000596046","<p> Importantly, the kids in each park like some pieces of sports equipment more than others. </p>","","0","instructions","","","","","","","","","","","","","",""
"learning-instructions","16","97275","0.0-8.0-0.0-0.8","1711","2","2","""event"",""trial"",""time""
""blur"",""1"",""4762""
""focus"",""1"",""6528""
""fullscreenenter"",""1"",""7887""
","""event"",""trial"",""time""
""blur"",""1"",""4762""
","""event"",""trial"",""time""
""focus"",""1"",""6528""
","""event"",""trial"",""time""
""fullscreenenter"",""1"",""7887""
","
","","","","","","399.2999999821186","<p> If you choose the best park for each piece of equipment, the kids there will usually be happy. </p>","","0","instructions","","","","","","","","","","","","","",""
"learning-instructions","17","105863","0.0-8.0-0.0-0.9","1711","2","2","""event"",""trial"",""time""
""blur"",""1"",""4762""
""focus"",""1"",""6528""
""fullscreenenter"",""1"",""7887""
","""event"",""trial"",""time""
""blur"",""1"",""4762""
","""event"",""trial"",""time""
""focus"",""1"",""6528""
","""event"",""trial"",""time""
""fullscreenenter"",""1"",""7887""
","
","","","","","","1947.6000000238419","<p> However, even if you choose the best park for the equipment, the kids may sometimes be sad. </p>","","0","instructions","","","","","","","","","","","","","",""
"learning-instructions","18","115855","0.0-8.0-0.0-0.10","1711","2","2","""event"",""trial"",""time""
""blur"",""1"",""4762""
""focus"",""1"",""6528""
""fullscreenenter"",""1"",""7887""
","""event"",""trial"",""time""
""blur"",""1"",""4762""
","""event"",""trial"",""time""
""focus"",""1"",""6528""
","""event"",""trial"",""time""
""fullscreenenter"",""1"",""7887""
","
","","","","","","2749.300000011921","<p> Similarly, even if you choose the <i>wrong</i> park for the equipment, the kids may still be happy sometimes.","","0","instructions","","","","","","","","","","","","","",""
"learning-instructions","19","122771","0.0-8.0-0.0-0.11","1711","2","2","""event"",""trial"",""time""
""blur"",""1"",""4762""
""focus"",""1"",""6528""
""fullscreenenter"",""1"",""7887""
","""event"",""trial"",""time""
""blur"",""1"",""4762""
","""event"",""trial"",""time""
""focus"",""1"",""6528""
","""event"",""trial"",""time""
""fullscreenenter"",""1"",""7887""
","
","","","","","","1865.699999988079","<p> For example, the best park for this soccer ball is this one.<div style='float: center;'><img src='images/i1.png' width = '500' height = '268'></img>","","0","instructions","","","","","","","","","","","","","",""
"learning-instructions","20","128891","0.0-8.0-0.0-0.12","1711","2","2","""event"",""trial"",""time""
""blur"",""1"",""4762""
""focus"",""1"",""6528""
""fullscreenenter"",""1"",""7887""
","""event"",""trial"",""time""
""blur"",""1"",""4762""
","""event"",""trial"",""time""
""focus"",""1"",""6528""
","""event"",""trial"",""time""
""fullscreenenter"",""1"",""7887""
","
","","","","","","815.3000000119209","<p> Let's see what happens if you choose this park for the soccer ball five times.","","0","instructions","","","","","","","","","","","","","",""
"learning-instructions","21","132490","0.0-8.0-0.0-0.13","1711","2","2","""event"",""trial"",""time""
""blur"",""1"",""4762""
""focus"",""1"",""6528""
""fullscreenenter"",""1"",""7887""
","""event"",""trial"",""time""
""blur"",""1"",""4762""
","""event"",""trial"",""time""
""focus"",""1"",""6528""
","""event"",""trial"",""time""
""fullscreenenter"",""1"",""7887""
","
","","","","","","1445","<p> The kids are happy.<div style='float: left;'><img src='images/i2.png' width = '640' height = '360'></img>","","0","instructions","","","","","","","","","","","","","",""
"learning-instructions","22","135058","0.0-8.0-0.0-0.14","1711","2","2","""event"",""trial"",""time""
""blur"",""1"",""4762""
""focus"",""1"",""6528""
""fullscreenenter"",""1"",""7887""
","""event"",""trial"",""time""
""blur"",""1"",""4762""
","""event"",""trial"",""time""
""focus"",""1"",""6528""
","""event"",""trial"",""time""
""fullscreenenter"",""1"",""7887""
","
","","","","","","392.90000000596046","<p> The kids are happy.<div style='float: left;'><img src='images/i3.png' width = '640' height = '360'></img>","","0","instructions","","","","","","","","","","","","","",""
"learning-instructions","23","138300","0.0-8.0-0.0-0.15","1711","2","2","""event"",""trial"",""time""
""blur"",""1"",""4762""
""focus"",""1"",""6528""
""fullscreenenter"",""1"",""7887""
","""event"",""trial"",""time""
""blur"",""1"",""4762""
","""event"",""trial"",""time""
""focus"",""1"",""6528""
","""event"",""trial"",""time""
""fullscreenenter"",""1"",""7887""
","
","","","","","","1074.9000000059605","<p> The kids are happy.<div style='float: left;'><img src='images/i4.png' width = '640' height = '360'></img>","","0","instructions","","","","","","","","","","","","","",""
"learning-instructions","24","140871","0.0-8.0-0.0-0.16","1711","2","2","""event"",""trial"",""time""
""blur"",""1"",""4762""
""focus"",""1"",""6528""
""fullscreenenter"",""1"",""7887""
","""event"",""trial"",""time""
""blur"",""1"",""4762""
","""event"",""trial"",""time""
""focus"",""1"",""6528""
","""event"",""trial"",""time""
""fullscreenenter"",""1"",""7887""
","
","","","","","","364.69999998807907","<p> The kids are sad.<div style='float: left;'><img src='images/i5.png' width = '640' height = '360'></img>","","0","instructions","","","","","","","","","","","","","",""
"learning-instructions","25","143607","0.0-8.0-0.0-0.17","1711","2","2","""event"",""trial"",""time""
""blur"",""1"",""4762""
""focus"",""1"",""6528""
""fullscreenenter"",""1"",""7887""
","""event"",""trial"",""time""
""blur"",""1"",""4762""
","""event"",""trial"",""time""
""focus"",""1"",""6528""
","""event"",""trial"",""time""
""fullscreenenter"",""1"",""7887""
","
","","","","","","571.1999999880791","<p> The kids are happy.<div style='float: left;'><img src='images/i6.png' width = '640' height = '360'></img>","","0","instructions","","","","","","","","","","","","","",""
"learning-instructions","26","151366","0.0-8.0-0.0-0.18","1711","2","2","""event"",""trial"",""time""
""blur"",""1"",""4762""
""focus"",""1"",""6528""
""fullscreenenter"",""1"",""7887""
","""event"",""trial"",""time""
""blur"",""1"",""4762""
","""event"",""trial"",""time""
""focus"",""1"",""6528""
","""event"",""trial"",""time""
""fullscreenenter"",""1"",""7887""
","
","","","","","","481.10000002384186","<p> As you can see, selecting that park for the soccer ball made the kids happy most of the time, but not all the time.","","0","instructions","","","","","","","","","","","","","",""
"learning-instructions","27","157791","0.0-8.0-0.0-0.19","1711","2","2","""event"",""trial"",""time""
""blur"",""1"",""4762""
""focus"",""1"",""6528""
""fullscreenenter"",""1"",""7887""
","""event"",""trial"",""time""
""blur"",""1"",""4762""
","""event"",""trial"",""time""
""focus"",""1"",""6528""
","""event"",""trial"",""time""
""fullscreenenter"",""1"",""7887""
","
","","","","","","415.40000000596046","<p> Now let's see what happens if you choose a DIFFERENT park for the soccer ball 5 times.","","0","instructions","","","","","","","","","","","","","",""
"learning-instructions","28","161143","0.0-8.0-0.0-0.20","1711","2","2","""event"",""trial"",""time""
""blur"",""1"",""4762""
""focus"",""1"",""6528""
""fullscreenenter"",""1"",""7887""
","""event"",""trial"",""time""
""blur"",""1"",""4762""
","""event"",""trial"",""time""
""focus"",""1"",""6528""
","""event"",""trial"",""time""
""fullscreenenter"",""1"",""7887""
","
","","","","","","1146.7000000178814","<p> The kids are sad.<div style='float: left;'><img src='images/i7.png' width = '640' height = '360'></img>","","0","instructions","","","","","","","","","","","","","",""
"learning-instructions","29","164422","0.0-8.0-0.0-0.21","1711","2","2","""event"",""trial"",""time""
""blur"",""1"",""4762""
""focus"",""1"",""6528""
""fullscreenenter"",""1"",""7887""
","""event"",""trial"",""time""
""blur"",""1"",""4762""
","""event"",""trial"",""time""
""focus"",""1"",""6528""
","""event"",""trial"",""time""
""fullscreenenter"",""1"",""7887""
","
","","","","","","1067.300000011921","<p> The kids are sad.<div style='float: left;'><img src='images/i8.png' width = '640' height = '360'></img>","","0","instructions","","","","","","","","","","","","","",""
"learning-instructions","30","167267","0.0-8.0-0.0-0.22","1711","2","2","""event"",""trial"",""time""
""blur"",""1"",""4762""
""focus"",""1"",""6528""
""fullscreenenter"",""1"",""7887""
","""event"",""trial"",""time""
""blur"",""1"",""4762""
","""event"",""trial"",""time""
""focus"",""1"",""6528""
","""event"",""trial"",""time""
""fullscreenenter"",""1"",""7887""
","
","","","","","","670.9000000059605","<p> The kids are happy.<div style='float: left;'><img src='images/i9.png' width = '640' height = '360'></img>","","0","instructions","","","","","","","","","","","","","",""
"learning-instructions","31","169939","0.0-8.0-0.0-0.23","1711","2","2","""event"",""trial"",""time""
""blur"",""1"",""4762""
""focus"",""1"",""6528""
""fullscreenenter"",""1"",""7887""
","""event"",""trial"",""time""
""blur"",""1"",""4762""
","""event"",""trial"",""time""
""focus"",""1"",""6528""
","""event"",""trial"",""time""
""fullscreenenter"",""1"",""7887""
","
","","","","","","463.5","<p> The kids are sad.<div style='float: left;'><img src='images/i10.png' width = '640' height = '360'></img>","","0","instructions","","","","","","","","","","","","","",""
"learning-instructions","32","172647","0.0-8.0-0.0-0.24","1711","2","2","""event"",""trial"",""time""
""blur"",""1"",""4762""
""focus"",""1"",""6528""
""fullscreenenter"",""1"",""7887""
","""event"",""trial"",""time""
""blur"",""1"",""4762""
","""event"",""trial"",""time""
""focus"",""1"",""6528""
","""event"",""trial"",""time""
""fullscreenenter"",""1"",""7887""
","
","","","","","","501.10000002384186","<p> The kids are sad.<div style='float: left;'><img src='images/i11.png' width = '640' height = '360'></img>","","0","instructions","","","","","","","","","","","","","",""
"learning-instructions","33","181115","0.0-8.0-0.0-0.25","1711","2","2","""event"",""trial"",""time""
""blur"",""1"",""4762""
""focus"",""1"",""6528""
""fullscreenenter"",""1"",""7887""
","""event"",""trial"",""time""
""blur"",""1"",""4762""
","""event"",""trial"",""time""
""focus"",""1"",""6528""
","""event"",""trial"",""time""
""fullscreenenter"",""1"",""7887""
","
","","","","","","339.30000001192093","<p> As you can see, selecting the wrong park for the soccer ball made the kids sad most of the time, but not all the time.","","0","instructions","","","","","","","","","","","","","",""
"learning-instructions","34","190538","0.0-8.0-0.0-0.26","1711","2","2","""event"",""trial"",""time""
""blur"",""1"",""4762""
""focus"",""1"",""6528""
""fullscreenenter"",""1"",""7887""
","""event"",""trial"",""time""
""blur"",""1"",""4762""
","""event"",""trial"",""time""
""focus"",""1"",""6528""
","""event"",""trial"",""time""
""fullscreenenter"",""1"",""7887""
","
","","","","","","312.89999997615814","<p> The different pieces of equipment belong in different parks. You need to try to learn which is the best park for each piece of equipment.","","0","instructions","","","","","","","","","","","","","",""
"learning-instructions","35","207215","0.0-8.0-0.0-0.27","1711","2","2","""event"",""trial"",""time""
""blur"",""1"",""4762""
""focus"",""1"",""6528""
""fullscreenenter"",""1"",""7887""
","""event"",""trial"",""time""
""blur"",""1"",""4762""
","""event"",""trial"",""time""
""focus"",""1"",""6528""
","""event"",""trial"",""time""
""fullscreenenter"",""1"",""7887""
","
","","","","","","289.30000001192093","<p> Try to choose the best park for each piece of equipment, because you will <b> WIN </b> 1 point for each time you make the kids happy and <b>LOSE</b> 1 point for each time you make them sad. </p><p> Remember, if you make the best choice, you will win 1 point most of the time, but not all the time. </p>","","0","instructions","","","","","","","","","","","","","",""
"learning-instructions","36","213215","0.0-8.0-0.0-0.28","1711","2","2","""event"",""trial"",""time""
""blur"",""1"",""4762""
""focus"",""1"",""6528""
""fullscreenenter"",""1"",""7887""
","""event"",""trial"",""time""
""blur"",""1"",""4762""
","""event"",""trial"",""time""
""focus"",""1"",""6528""
","""event"",""trial"",""time""
""fullscreenenter"",""1"",""7887""
","
","","","","","","509.19999998807907","<p> This is just a practice round, but in the real game, your bonus payment will depend on your total number of points.","","0","instructions","","","","","","","","","","","","","",""
"learning-instructions","37","225259","0.0-8.0-0.0-0.29","1711","2","2","""event"",""trial"",""time""
""blur"",""1"",""4762""
""focus"",""1"",""6528""
""fullscreenenter"",""1"",""7887""
","""event"",""trial"",""time""
""blur"",""1"",""4762""
","""event"",""trial"",""time""
""focus"",""1"",""6528""
","""event"",""trial"",""time""
""fullscreenenter"",""1"",""7887""
","
","","","","","","1713.2000000178814","<p> The position where each park appears will change throughout the game. </p><p> The position where the park appears <i> does not </i> influence how likely the kids are to be happy or sad. </p>","","0","instructions","","","","","","","","","","","","","",""
"learning-instructions","38","235818","0.0-8.0-0.0-0.30","1711","2","2","""event"",""trial"",""time""
""blur"",""1"",""4762""
""focus"",""1"",""6528""
""fullscreenenter"",""1"",""7887""
","""event"",""trial"",""time""
""blur"",""1"",""4762""
","""event"",""trial"",""time""
""focus"",""1"",""6528""
","""event"",""trial"",""time""
""fullscreenenter"",""1"",""7887""
","
","","","","","","383.2999999821186","<p> You will have 4 seconds to make each choice. Try to respond before time runs out! </p><p> You will lose 1 point each time you do not make a response. </p>","","0","instructions","","","","","","","","","","","","","",""
"learning-instructions","39","243194","0.0-8.0-0.0-0.31","1711","2","2","""event"",""trial"",""time""
""blur"",""1"",""4762""
""focus"",""1"",""6528""
""fullscreenenter"",""1"",""7887""
","""event"",""trial"",""time""
""blur"",""1"",""4762""
","""event"",""trial"",""time""
""focus"",""1"",""6528""
","""event"",""trial"",""time""
""fullscreenenter"",""1"",""7887""
","
","","","","","","578.7999999821186","<p> Remember, you should use the 1, 2, and 3 keys to select the park for each piece of equipment. </p><br><div class=""choice-instructions-grid""> <div class=""choice-option""><img src=""images/park1.png"" class=""choice-option-img"" stage=""instructions"" position=""0"" ><div class=""choice-option-text""> Press ""1."" </div></div><div class=""choice-option""><img src=""images/park2.png"" class=""choice-option-img"" stage=""instructions"" position=""1"" ><div class=""choice-option-text""> Press ""2."" </div></div><div class=""choice-option""><img src=""images/park3.png"" class=""choice-option-img"" stage=""instructions"" position=""2"" ><div class=""choice-option-text""> Press ""3."" </div></div></div>","","0","instructions","","","","","","","","","","","","","",""
"html-button-response","40","244887","0.0-8.0-1.0","1711","2","2","""event"",""trial"",""time""
""blur"",""1"",""4762""
""focus"",""1"",""6528""
""fullscreenenter"",""1"",""7887""
","""event"",""trial"",""time""
""blur"",""1"",""4762""
","""event"",""trial"",""time""
""focus"",""1"",""6528""
","""event"",""trial"",""time""
""fullscreenenter"",""1"",""7887""
","
","","","","","","1586.2000000178814","<p> Ready to practice? </p>","0","","","","","","","","","","","","","","","",""
"html-keyboard-response","41","245496","0.0-8.0-2.0-0.0","1711","2","2","""event"",""trial"",""time""
""blur"",""1"",""4762""
""focus"",""1"",""6528""
""fullscreenenter"",""1"",""7887""
","""event"",""trial"",""time""
""blur"",""1"",""4762""
","""event"",""trial"",""time""
""focus"",""1"",""6528""
","""event"",""trial"",""time""
""fullscreenenter"",""1"",""7887""
","
","","","","","","null","<div style=""font-size:60px;"">+</div>","null","","fixation","","","","","","","","","","","","","",""
"learning-trial","42","249501","0.0-8.0-2.0-1.0","1711","2","2","""event"",""trial"",""time""
""blur"",""1"",""4762""
""focus"",""1"",""6528""
""fullscreenenter"",""1"",""7887""
","""event"",""trial"",""time""
""blur"",""1"",""4762""
","""event"",""trial"",""time""
""focus"",""1"",""6528""
","""event"",""trial"",""time""
""fullscreenenter"",""1"",""7887""
","
","","","","","","1091.699999988079","images/racket4.png","","","practice","images/park3.png","images/park2.png","images/park1.png","[2,1,0]","0","2","1","images/park3.png","-1","practice","","","",""
"html-keyboard-response","43","250002","0.0-8.0-2.0-0.1","1711","2","2","""event"",""trial"",""time""
""blur"",""1"",""4762""
""focus"",""1"",""6528""
""fullscreenenter"",""1"",""7887""
","""event"",""trial"",""time""
""blur"",""1"",""4762""
","""event"",""trial"",""time""
""focus"",""1"",""6528""
","""event"",""trial"",""time""
""fullscreenenter"",""1"",""7887""
","
","","","","","","null","<div style=""font-size:60px;"">+</div>","null","","fixation","","","","","","","","","","","","","",""
"learning-trial","44","254012","0.0-8.0-2.0-1.1","1711","2","2","""event"",""trial"",""time""
""blur"",""1"",""4762""
""focus"",""1"",""6528""
""fullscreenenter"",""1"",""7887""
","""event"",""trial"",""time""
""blur"",""1"",""4762""
","""event"",""trial"",""time""
""focus"",""1"",""6528""
","""event"",""trial"",""time""
""fullscreenenter"",""1"",""7887""
","
","","","","","","1345.8999999761581","images/racket4.png","","","practice","images/park2.png","images/park1.png","images/park3.png","[1,0,2]","0","1","1","images/park2.png","-1","practice","","","",""
"html-keyboard-response","45","254524","0.0-8.0-2.0-0.2","1711","2","2","""event"",""trial"",""time""
""blur"",""1"",""4762""
""focus"",""1"",""6528""
""fullscreenenter"",""1"",""7887""
","""event"",""trial"",""time""
""blur"",""1"",""4762""
","""event"",""trial"",""time""
""focus"",""1"",""6528""
","""event"",""trial"",""time""
""fullscreenenter"",""1"",""7887""
","
","","","","","","null","<div style=""font-size:60px;"">+</div>","null","","fixation","","","","","","","","","","","","","",""
"learning-trial","46","258532","0.0-8.0-2.0-1.2","1711","2","2","""event"",""trial"",""time""
""blur"",""1"",""4762""
""focus"",""1"",""6528""
""fullscreenenter"",""1"",""7887""
","""event"",""trial"",""time""
""blur"",""1"",""4762""
","""event"",""trial"",""time""
""focus"",""1"",""6528""
","""event"",""trial"",""time""
""fullscreenenter"",""1"",""7887""
","
","","","","","","1144","images/ball3.png","","","practice","images/park2.png","images/park3.png","images/park1.png","[1,2,0]","0","2","1","images/park2.png","-1","practice","","","",""
"html-keyboard-response","47","259042","0.0-8.0-2.0-0.3","1711","2","2","""event"",""trial"",""time""
""blur"",""1"",""4762""
""focus"",""1"",""6528""
""fullscreenenter"",""1"",""7887""
","""event"",""trial"",""time""
""blur"",""1"",""4762""
","""event"",""trial"",""time""
""focus"",""1"",""6528""
","""event"",""trial"",""time""
""fullscreenenter"",""1"",""7887""
","
","","","","","","null","<div style=""font-size:60px;"">+</div>","null","","fixation","","","","","","","","","","","","","",""
"learning-trial","48","263058","0.0-8.0-2.0-1.3","1711","2","2","""event"",""trial"",""time""
""blur"",""1"",""4762""
""focus"",""1"",""6528""
""fullscreenenter"",""1"",""7887""
","""event"",""trial"",""time""
""blur"",""1"",""4762""
","""event"",""trial"",""time""
""focus"",""1"",""6528""
","""event"",""trial"",""time""
""fullscreenenter"",""1"",""7887""
","
","","","","","","null","images/ball2.png","","","practice","images/park1.png","images/park3.png","images/park2.png","[0,2,1]","2","1","null","null","-1","practice","","","",""
"html-keyboard-response","49","263569","0.0-8.0-2.0-0.4","1711","2","2","""event"",""trial"",""time""
""blur"",""1"",""4762""
""focus"",""1"",""6528""
""fullscreenenter"",""1"",""7887""
","""event"",""trial"",""time""
""blur"",""1"",""4762""
","""event"",""trial"",""time""
""focus"",""1"",""6528""
","""event"",""trial"",""time""
""fullscreenenter"",""1"",""7887""
","
","","","","","","null","<div style=""font-size:60px;"">+</div>","null","","fixation","","","","","","","","","","","","","",""
"learning-trial","50","267587","0.0-8.0-2.0-1.4","1711","2","2","""event"",""trial"",""time""
""blur"",""1"",""4762""
""focus"",""1"",""6528""
""fullscreenenter"",""1"",""7887""
","""event"",""trial"",""time""
""blur"",""1"",""4762""
","""event"",""trial"",""time""
""focus"",""1"",""6528""
","""event"",""trial"",""time""
""fullscreenenter"",""1"",""7887""
","
","","","","","","2322.600000023842","images/racket1.png","","","practice","images/park1.png","images/park3.png","images/park2.png","[0,2,1]","1","2","3","images/park2.png","1","practice","","","",""
"html-keyboard-response","51","268097","0.0-8.0-2.0-0.5","1711","2","2","""event"",""trial"",""time""
""blur"",""1"",""4762""
""focus"",""1"",""6528""
""fullscreenenter"",""1"",""7887""
","""event"",""trial"",""time""
""blur"",""1"",""4762""
","""event"",""trial"",""time""
""focus"",""1"",""6528""
","""event"",""trial"",""time""
""fullscreenenter"",""1"",""7887""
","
","","","","","","null","<div style=""font-size:60px;"">+</div>","null","","fixation","","","","","","","","","","","","","",""
"learning-trial","52","272110","0.0-8.0-2.0-1.5","1711","2","2","""event"",""trial"",""time""
""blur"",""1"",""4762""
""focus"",""1"",""6528""
""fullscreenenter"",""1"",""7887""
","""event"",""trial"",""time""
""blur"",""1"",""4762""
","""event"",""trial"",""time""
""focus"",""1"",""6528""
","""event"",""trial"",""time""
""fullscreenenter"",""1"",""7887""
","
","","","","","","1681.9000000059605","images/ball3.png","","","practice","images/park3.png","images/park2.png","images/park1.png","[2,1,0]","0","2","1","images/park3.png","-1","practice","","","",""
"html-keyboard-response","53","272624","0.0-8.0-2.0-0.6","1711","2","2","""event"",""trial"",""time""
""blur"",""1"",""4762""
""focus"",""1"",""6528""
""fullscreenenter"",""1"",""7887""
","""event"",""trial"",""time""
""blur"",""1"",""4762""
","""event"",""trial"",""time""
""focus"",""1"",""6528""
","""event"",""trial"",""time""
""fullscreenenter"",""1"",""7887""
","
","","","","","","null","<div style=""font-size:60px;"">+</div>","null","","fixation","","","","","","","","","","","","","",""
"learning-trial","54","276627","0.0-8.0-2.0-1.6","1711","2","2","""event"",""trial"",""time""
""blur"",""1"",""4762""
""focus"",""1"",""6528""
""fullscreenenter"",""1"",""7887""
","""event"",""trial"",""time""
""blur"",""1"",""4762""
","""event"",""trial"",""time""
""focus"",""1"",""6528""
","""event"",""trial"",""time""
""fullscreenenter"",""1"",""7887""
","
","","","","","","1475.5","images/racket2.png","","","practice","images/park3.png","images/park1.png","images/park2.png","[2,0,1]","1","2","1","images/park3.png","-1","practice","","","",""
"html-keyboard-response","55","277128","0.0-8.0-2.0-0.7","1711","2","2","""event"",""trial"",""time""
""blur"",""1"",""4762""
""focus"",""1"",""6528""
""fullscreenenter"",""1"",""7887""
","""event"",""trial"",""time""
""blur"",""1"",""4762""
","""event"",""trial"",""time""
""focus"",""1"",""6528""
","""event"",""trial"",""time""
""fullscreenenter"",""1"",""7887""
","
","","","","","","null","<div style=""font-size:60px;"">+</div>","null","","fixation","","","","","","","","","","","","","",""
"learning-trial","56","281131","0.0-8.0-2.0-1.7","1711","2","2","""event"",""trial"",""time""
""blur"",""1"",""4762""
""focus"",""1"",""6528""
""fullscreenenter"",""1"",""7887""
","""event"",""trial"",""time""
""blur"",""1"",""4762""
","""event"",""trial"",""time""
""focus"",""1"",""6528""
","""event"",""trial"",""time""
""fullscreenenter"",""1"",""7887""
","
","","","","","","1683.5999999940395","images/ball2.png","","","practice","images/park2.png","images/park1.png","images/park3.png","[1,0,2]","2","2","2","images/park1.png","-1","practice","","","",""
"html-keyboard-response","57","281633","0.0-8.0-2.0-0.8","1711","2","2","""event"",""trial"",""time""
""blur"",""1"",""4762""
""focus"",""1"",""6528""
""fullscreenenter"",""1"",""7887""
","""event"",""trial"",""time""
""blur"",""1"",""4762""
","""event"",""trial"",""time""
""focus"",""1"",""6528""
","""event"",""trial"",""time""
""fullscreenenter"",""1"",""7887""
","
","","","","","","null","<div style=""font-size:60px;"">+</div>","null","","fixation","","","","","","","","","","","","","",""
"learning-trial","58","285643","0.0-8.0-2.0-1.8","1711","2","2","""event"",""trial"",""time""
""blur"",""1"",""4762""
""focus"",""1"",""6528""
""fullscreenenter"",""1"",""7887""
","""event"",""trial"",""time""
""blur"",""1"",""4762""
","""event"",""trial"",""time""
""focus"",""1"",""6528""
","""event"",""trial"",""time""
""fullscreenenter"",""1"",""7887""
","
","","","","","","1890.5","images/racket2.png","","","practice","images/park3.png","images/park2.png","images/park1.png","[2,1,0]","1","1","3","images/park1.png","-1","practice","","","",""
"html-keyboard-response","59","286155","0.0-8.0-2.0-0.9","1711","2","2","""event"",""trial"",""time""
""blur"",""1"",""4762""
""focus"",""1"",""6528""
""fullscreenenter"",""1"",""7887""
","""event"",""trial"",""time""
""blur"",""1"",""4762""
","""event"",""trial"",""time""
""focus"",""1"",""6528""
","""event"",""trial"",""time""
""fullscreenenter"",""1"",""7887""
","
","","","","","","null","<div style=""font-size:60px;"">+</div>","null","","fixation","","","","","","","","","","","","","",""
"learning-trial","60","290158","0.0-8.0-2.0-1.9","1711","2","2","""event"",""trial"",""time""
""blur"",""1"",""4762""
""focus"",""1"",""6528""
""fullscreenenter"",""1"",""7887""
","""event"",""trial"",""time""
""blur"",""1"",""4762""
","""event"",""trial"",""time""
""focus"",""1"",""6528""
","""event"",""trial"",""time""
""fullscreenenter"",""1"",""7887""
","
","","","","","","2384.2000000178814","images/racket3.png","","","practice","images/park3.png","images/park1.png","images/park2.png","[2,0,1]","2","0","3","images/park2.png","-1","practice","","","",""
"html-keyboard-response","61","290660","0.0-8.0-2.0-0.10","1711","2","2","""event"",""trial"",""time""
""blur"",""1"",""4762""
""focus"",""1"",""6528""
""fullscreenenter"",""1"",""7887""
","""event"",""trial"",""time""
""blur"",""1"",""4762""
","""event"",""trial"",""time""
""focus"",""1"",""6528""
","""event"",""trial"",""time""
""fullscreenenter"",""1"",""7887""
","
","","","","","","null","<div style=""font-size:60px;"">+</div>","null","","fixation","","","","","","","","","","","","","",""
"learning-trial","62","294663","0.0-8.0-2.0-1.10","1711","2","2","""event"",""trial"",""time""
""blur"",""1"",""4762""
""focus"",""1"",""6528""
""fullscreenenter"",""1"",""7887""
","""event"",""trial"",""time""
""blur"",""1"",""4762""
","""event"",""trial"",""time""
""focus"",""1"",""6528""
","""event"",""trial"",""time""
""fullscreenenter"",""1"",""7887""
","
","","","","","","1167.699999988079","images/racket3.png","","","practice","images/park1.png","images/park3.png","images/park2.png","[0,2,1]","2","1","3","images/park2.png","-1","practice","","","",""
"html-keyboard-response","63","295165","0.0-8.0-2.0-0.11","1711","2","2","""event"",""trial"",""time""
""blur"",""1"",""4762""
""focus"",""1"",""6528""
""fullscreenenter"",""1"",""7887""
","""event"",""trial"",""time""
""blur"",""1"",""4762""
","""event"",""trial"",""time""
""focus"",""1"",""6528""
","""event"",""trial"",""time""
""fullscreenenter"",""1"",""7887""
","
","","","","","","null","<div style=""font-size:60px;"">+</div>","null","","fixation","","","","","","","","","","","","","",""
"learning-trial","64","299168","0.0-8.0-2.0-1.11","1711","2","2","""event"",""trial"",""time""
""blur"",""1"",""4762""
""focus"",""1"",""6528""
""fullscreenenter"",""1"",""7887""
","""event"",""trial"",""time""
""blur"",""1"",""4762""
","""event"",""trial"",""time""
""focus"",""1"",""6528""
","""event"",""trial"",""time""
""fullscreenenter"",""1"",""7887""
","
","","","","","","1431.0999999940395","images/racket1.png","","","practice","images/park3.png","images/park1.png","images/park2.png","[2,0,1]","1","2","3","images/park2.png","1","practice","","","",""
"html-button-response","65","301113","0.0-8.0-3.0","1711","2","2","""event"",""trial"",""time""
""blur"",""1"",""4762""
""focus"",""1"",""6528""
""fullscreenenter"",""1"",""7887""
","""event"",""trial"",""time""
""blur"",""1"",""4762""
","""event"",""trial"",""time""
""focus"",""1"",""6528""
","""event"",""trial"",""time""
""fullscreenenter"",""1"",""7887""
","
","","","","","","1942.9000000059605","<p> You earned -8 points in the practice round! </p>","0","","break","","","","","","","","","","","","","",""
"learning-instructions","66","312286","0.0-8.0-4.0-0.0","1711","2","2","""event"",""trial"",""time""
""blur"",""1"",""4762""
""focus"",""1"",""6528""
""fullscreenenter"",""1"",""7887""
","""event"",""trial"",""time""
""blur"",""1"",""4762""
","""event"",""trial"",""time""
""focus"",""1"",""6528""
","""event"",""trial"",""time""
""fullscreenenter"",""1"",""7887""
","
","","","","","","2784.199999988079","<p> It's almost time to start the real game. </p><p> Before you start, we're going to ask you a few questions about how the game works. </p>","","0","instructions","","","","","","","","","","","","","",""
"preload","67","313732","0.0-8.0-5.0","1711","2","2","""event"",""trial"",""time""
""blur"",""1"",""4762""
""focus"",""1"",""6528""
""fullscreenenter"",""1"",""7887""
","""event"",""trial"",""time""
""blur"",""1"",""4762""
","""event"",""trial"",""time""
""focus"",""1"",""6528""
","""event"",""trial"",""time""
""fullscreenenter"",""1"",""7887""
","
","true","false","[]","[]","[]","","","","","","","","","","","","","","","","","","",""
"comp-q","68","320314","0.0-8.0-6.0-0.0","1711","2","2","""event"",""trial"",""time""
""blur"",""1"",""4762""
""focus"",""1"",""6528""
""fullscreenenter"",""1"",""7887""
","""event"",""trial"",""time""
""blur"",""1"",""4762""
","""event"",""trial"",""time""
""focus"",""1"",""6528""
","""event"",""trial"",""time""
""fullscreenenter"",""1"",""7887""
","
","","","","","","1132.2999999821186","<p> <b> True or False? </b> </p><p> If you choose the best option, you will always earn 1 point. </p>","","0","comp_question","","","","","","","","","","","false","","",""
"comp-q","69","326803","0.0-8.0-6.0-1.0","1711","2","2","""event"",""trial"",""time""
""blur"",""1"",""4762""
""focus"",""1"",""6528""
""fullscreenenter"",""1"",""7887""
","""event"",""trial"",""time""
""blur"",""1"",""4762""
","""event"",""trial"",""time""
""focus"",""1"",""6528""
","""event"",""trial"",""time""
""fullscreenenter"",""1"",""7887""
","
","","","","","","930.8000000119209","<p><b> Incorrect. </b> Sometimes you will lose 1 point, even if you choose the best option. </p>","","0","comp_answer","","","","","","","","","","","","","",""
"comp-q","70","332178","0.0-8.0-6.0-0.1","1711","2","2","""event"",""trial"",""time""
""blur"",""1"",""4762""
""focus"",""1"",""6528""
""fullscreenenter"",""1"",""7887""
","""event"",""trial"",""time""
""blur"",""1"",""4762""
","""event"",""trial"",""time""
""focus"",""1"",""6528""
","""event"",""trial"",""time""
""fullscreenenter"",""1"",""7887""
","
","","","","","","746.1999999880791","<p> <b> True or False? </b> </p><p> You will have as much time as you want to make each choice. </p>","","1","comp_question","","","","","","","","","","","true","","",""
"comp-q","71","337846","0.0-8.0-6.0-1.1","1711","2","2","""event"",""trial"",""time""
""blur"",""1"",""4762""
""focus"",""1"",""6528""
""fullscreenenter"",""1"",""7887""
","""event"",""trial"",""time""
""blur"",""1"",""4762""
","""event"",""trial"",""time""
""focus"",""1"",""6528""
","""event"",""trial"",""time""
""fullscreenenter"",""1"",""7887""
","
","","","","","","844.5","<p> <b> That's right! </b> You will only have 4 seconds to make each choice. </p>","","0","comp_answer","","","","","","","","","","","","","",""
"comp-q","72","345594","0.0-8.0-6.0-0.2","1711","2","2","""event"",""trial"",""time""
""blur"",""1"",""4762""
""focus"",""1"",""6528""
""fullscreenenter"",""1"",""7887""
","""event"",""trial"",""time""
""blur"",""1"",""4762""
","""event"",""trial"",""time""
""focus"",""1"",""6528""
","""event"",""trial"",""time""
""fullscreenenter"",""1"",""7887""
","
","","","","","","1592.2999999821186","<p> <b> True or False? </b> </p><p> You should use the '1', '2', and '3' keys to make your choices. </p>","","0","comp_question","","","","","","","","","","","true","","",""
"comp-q","73","351686","0.0-8.0-6.0-1.2","1711","2","2","""event"",""trial"",""time""
""blur"",""1"",""4762""
""focus"",""1"",""6528""
""fullscreenenter"",""1"",""7887""
","""event"",""trial"",""time""
""blur"",""1"",""4762""
","""event"",""trial"",""time""
""focus"",""1"",""6528""
","""event"",""trial"",""time""
""fullscreenenter"",""1"",""7887""
","
","","","","","","1254","<p> <b> That's right! </b> You should use the '1', '2', and '3' keys to make each choice. </p>","","0","comp_answer","","","","","","","","","","","","","",""
"learning-instructions","74","361463","0.0-8.0-7.0-0.0","1711","2","2","""event"",""trial"",""time""
""blur"",""1"",""4762""
""focus"",""1"",""6528""
""fullscreenenter"",""1"",""7887""
","""event"",""trial"",""time""
""blur"",""1"",""4762""
","""event"",""trial"",""time""
""focus"",""1"",""6528""
","""event"",""trial"",""time""
""fullscreenenter"",""1"",""7887""
","
","","","","","","1280.800000011921","<p> It's now time to start the real game. </p>Do your best, because the points you earn in the next rounds will influence your bonus payment. </p>","","0","instructions","","","","","","","","","","","","","",""
"preload","75","363140","0.0-9.0-0.0","1711","2","2","""event"",""trial"",""time""
""blur"",""1"",""4762""
""focus"",""1"",""6528""
""fullscreenenter"",""1"",""7887""
","""event"",""trial"",""time""
""blur"",""1"",""4762""
","""event"",""trial"",""time""
""focus"",""1"",""6528""
","""event"",""trial"",""time""
""fullscreenenter"",""1"",""7887""
","
","true","false","[]","[]","[]","","","","","","","","","","","","","","","","","","",""
"learning-instructions","76","371238","0.0-9.0-1.0-0.0","1711","2","2","""event"",""trial"",""time""
""blur"",""1"",""4762""
""focus"",""1"",""6528""
""fullscreenenter"",""1"",""7887""
","""event"",""trial"",""time""
""blur"",""1"",""4762""
","""event"",""trial"",""time""
""focus"",""1"",""6528""
","""event"",""trial"",""time""
""fullscreenenter"",""1"",""7887""
","
","","","","","","1636.4000000059605","<p> Your goal in this round is to feed all of your pets with the foods they like. </p><p> You will need to feed many pets. </p></div>","","0","instructions","","","","","","","","","","","","","",""
"learning-instructions","77","380194","0.0-9.0-1.0-0.1","1711","2","2","""event"",""trial"",""time""
""blur"",""1"",""4762""
""focus"",""1"",""6528""
""fullscreenenter"",""1"",""7887""
","""event"",""trial"",""time""
""blur"",""1"",""4762""
","""event"",""trial"",""time""
""focus"",""1"",""6528""
","""event"",""trial"",""time""
""fullscreenenter"",""1"",""7887""
","
","","","","","","952","<p> On each turn, you will see a picture of one of your pets and three different types of foods.  </p><p> You need to select the food that you want to give to your pet.  </p>","","0","instructions","","","","","","","","","","","","","",""
"learning-instructions","78","387942","0.0-9.0-1.0-0.2","1711","2","2","""event"",""trial"",""time""
""blur"",""1"",""4762""
""focus"",""1"",""6528""
""fullscreenenter"",""1"",""7887""
","""event"",""trial"",""time""
""blur"",""1"",""4762""
","""event"",""trial"",""time""
""focus"",""1"",""6528""
","""event"",""trial"",""time""
""fullscreenenter"",""1"",""7887""
","
","","","","","","1050","<p> You can select the food on the left by pressing 1, the food in the middle by pressing 2, and the food on the right by pressing 3. </p><br><div class=""choice-instructions-grid""> <div class=""choice-option""><img src=""images/pets_choice1.png"" class=""choice-option-img"" stage=""instructions"" position=""0"" ><div class=""choice-option-text""> Press ""1."" </div></div><div class=""choice-option""><img src=""images/pets_choice2.png"" class=""choice-option-img"" stage=""instructions"" position=""1"" ><div class=""choice-option-text""> Press ""2."" </div></div><div class=""choice-option""><img src=""images/pets_choice3.png"" class=""choice-option-img"" stage=""instructions"" position=""2"" ><div class=""choice-option-text""> Press ""3."" </div></div></div>","","0","instructions","","","","","","","","","","","","","",""
"learning-instructions","79","392277","0.0-9.0-1.0-0.3","1711","2","2","""event"",""trial"",""time""
""blur"",""1"",""4762""
""focus"",""1"",""6528""
""fullscreenenter"",""1"",""7887""
","""event"",""trial"",""time""
""blur"",""1"",""4762""
","""event"",""trial"",""time""
""focus"",""1"",""6528""
","""event"",""trial"",""time""
""fullscreenenter"",""1"",""7887""
","
","","","","","","305.30000001192093","<p> If your pet likes the food you chose, it will be very happy! </p><div style='float: center;'><img src='images/check.png' width = '200' height = '200'></img>","","0","instructions","","","","","","","","","","","","","",""
"learning-instructions","80","398278","0.0-9.0-1.0-0.4","1711","2","2","""event"",""trial"",""time""
""blur"",""1"",""4762""
""focus"",""1"",""6528""
""fullscreenenter"",""1"",""7887""
","""event"",""trial"",""time""
""blur"",""1"",""4762""
","""event"",""trial"",""time""
""focus"",""1"",""6528""
","""event"",""trial"",""time""
""fullscreenenter"",""1"",""7887""
","
","","","","","","1576.0999999940395","<p> But, if your pet does not like the food you chose, it will feel sick. </p><div style='float: center;'><img src='images/x.png' width = '200' height = '200'></img>","","0","instructions","","","","","","","","","","","","","",""
"learning-instructions","81","406830","0.0-9.0-1.0-0.5","1711","2","2","""event"",""trial"",""time""
""blur"",""1"",""4762""
""focus"",""1"",""6528""
""fullscreenenter"",""1"",""7887""
","""event"",""trial"",""time""
""blur"",""1"",""4762""
","""event"",""trial"",""time""
""focus"",""1"",""6528""
","""event"",""trial"",""time""
""fullscreenenter"",""1"",""7887""
","
","","","","","","898.0999999940395","<p> Importantly, each pet has a food that it prefers. </p><p> If you choose the food that the pet prefers, it will be more likely to be happy! </p>","","0","instructions","","","","","","","","","","","","","",""
"learning-instructions","82","416894","0.0-9.0-1.0-0.6","1711","2","2","""event"",""trial"",""time""
""blur"",""1"",""4762""
""focus"",""1"",""6528""
""fullscreenenter"",""1"",""7887""
","""event"",""trial"",""time""
""blur"",""1"",""4762""
","""event"",""trial"",""time""
""focus"",""1"",""6528""
","""event"",""trial"",""time""
""fullscreenenter"",""1"",""7887""
","
","","","","","","452.19999998807907","<p> However, even if you choose the food the pet prefers, it may still feel sick sometimes. </p><p> Similarly, even if you choose the <i>wrong</i> food, it may still feel happy.","","0","instructions","","","","","","","","","","","","","",""
"learning-instructions","83","430130","0.0-9.0-1.0-0.7","1711","2","2","""event"",""trial"",""time""
""blur"",""1"",""4762""
""focus"",""1"",""6528""
""fullscreenenter"",""1"",""7887""
","""event"",""trial"",""time""
""blur"",""1"",""4762""
","""event"",""trial"",""time""
""focus"",""1"",""6528""
","""event"",""trial"",""time""
""fullscreenenter"",""1"",""7887""
","
","","","","","","438.19999998807907","<p> Try to choose the food each pet prefers, because you will <b> WIN </b> 1 point each time the pet is happy and <b>LOSE</b>  1 point each time the pet feels sick. </p><p> Your bonus payment will depend on your total number of points.","","0","instructions","","","","","","","","","","","","","",""
"learning-instructions","84","439234","0.0-9.0-1.0-0.8","1711","2","2","""event"",""trial"",""time""
""blur"",""1"",""4762""
""focus"",""1"",""6528""
""fullscreenenter"",""1"",""7887""
","""event"",""trial"",""time""
""blur"",""1"",""4762""
","""event"",""trial"",""time""
""focus"",""1"",""6528""
","""event"",""trial"",""time""
""fullscreenenter"",""1"",""7887""
","
","","","","","","492.30000001192093","<p> The position of each food will change throughout the round. </p><p> The food's position <i> does not </i> influence how likely the pet is to feel happy or sick. </p>","","0","instructions","","","","","","","","","","","","","",""
"learning-instructions","85","449278","0.0-9.0-1.0-0.9","1711","2","2","""event"",""trial"",""time""
""blur"",""1"",""4762""
""focus"",""1"",""6528""
""fullscreenenter"",""1"",""7887""
","""event"",""trial"",""time""
""blur"",""1"",""4762""
","""event"",""trial"",""time""
""focus"",""1"",""6528""
","""event"",""trial"",""time""
""fullscreenenter"",""1"",""7887""
","
","","","","","","746.3000000119209","<p> You will have 4 seconds to make each choice. Try to respond before time runs out! </p><p> You will lose 1 point each time you do not make a response. </p>","","0","instructions","","","","","","","","","","","","","",""
"html-keyboard-response","86","449907","0.0-9.0-2.0-0.0","1711","2","2","""event"",""trial"",""time""
""blur"",""1"",""4762""
""focus"",""1"",""6528""
""fullscreenenter"",""1"",""7887""
","""event"",""trial"",""time""
""blur"",""1"",""4762""
","""event"",""trial"",""time""
""focus"",""1"",""6528""
","""event"",""trial"",""time""
""fullscreenenter"",""1"",""7887""
","
","","","","","","null","<div style=""font-size:60px;"">+</div>","null","","fixation","","","","","","","","","","","","","",""
"learning-trial","87","453912","0.0-9.0-2.0-1.0","1711","2","2","""event"",""trial"",""time""
""blur"",""1"",""4762""
""focus"",""1"",""6528""
""fullscreenenter"",""1"",""7887""
","""event"",""trial"",""time""
""blur"",""1"",""4762""
","""event"",""trial"",""time""
""focus"",""1"",""6528""
","""event"",""trial"",""time""
""fullscreenenter"",""1"",""7887""
","
","","","","","","1513.199999988079","images/dog2.png","","","learning","images/pets_choice3.png","images/pets_choice2.png","images/pets_choice1.png","[2,1,0]","2","0","2","images/pets_choice2.png","-1","pets","","dog","2","0"
"html-keyboard-response","88","454428","0.0-9.0-2.0-0.1","1711","2","2","""event"",""trial"",""time""
""blur"",""1"",""4762""
""focus"",""1"",""6528""
""fullscreenenter"",""1"",""7887""
","""event"",""trial"",""time""
""blur"",""1"",""4762""
","""event"",""trial"",""time""
""focus"",""1"",""6528""
","""event"",""trial"",""time""
""fullscreenenter"",""1"",""7887""
","
","","","","","","null","<div style=""font-size:60px;"">+</div>","null","","fixation","","","","","","","","","","","","","",""
"learning-trial","89","458444","0.0-9.0-2.0-1.1","1711","2","2","""event"",""trial"",""time""
""blur"",""1"",""4762""
""focus"",""1"",""6528""
""fullscreenenter"",""1"",""7887""
","""event"",""trial"",""time""
""blur"",""1"",""4762""
","""event"",""trial"",""time""
""focus"",""1"",""6528""
","""event"",""trial"",""time""
""fullscreenenter"",""1"",""7887""
","
","","","","","","2224.0999999940395","images/rabbit5.png","","","learning","images/pets_choice2.png","images/pets_choice1.png","images/pets_choice3.png","[1,0,2]","1","0","1","images/pets_choice2.png","1","pets","","rabbit","2","0"
"html-keyboard-response","90","458958","0.0-9.0-2.0-0.2","1711","2","2","""event"",""trial"",""time""
""blur"",""1"",""4762""
""focus"",""1"",""6528""
""fullscreenenter"",""1"",""7887""
","""event"",""trial"",""time""
""blur"",""1"",""4762""
","""event"",""trial"",""time""
""focus"",""1"",""6528""
","""event"",""trial"",""time""
""fullscreenenter"",""1"",""7887""
","
","","","","","","null","<div style=""font-size:60px;"">+</div>","null","","fixation","","","","","","","","","","","","","",""
"learning-trial","91","462960","0.0-9.0-2.0-1.2","1711","2","2","""event"",""trial"",""time""
""blur"",""1"",""4762""
""focus"",""1"",""6528""
""fullscreenenter"",""1"",""7887""
","""event"",""trial"",""time""
""blur"",""1"",""4762""
","""event"",""trial"",""time""
""focus"",""1"",""6528""
","""event"",""trial"",""time""
""fullscreenenter"",""1"",""7887""
","
","","","","","","2093.9000000059605","images/dog1.png","","","learning","images/pets_choice3.png","images/pets_choice1.png","images/pets_choice2.png","[2,0,1]","0","1","1","images/pets_choice3.png","-1","pets","","dog","2","0"
"html-keyboard-response","92","463470","0.0-9.0-2.0-0.3","1711","2","2","""event"",""trial"",""time""
""blur"",""1"",""4762""
""focus"",""1"",""6528""
""fullscreenenter"",""1"",""7887""
","""event"",""trial"",""time""
""blur"",""1"",""4762""
","""event"",""trial"",""time""
""focus"",""1"",""6528""
","""event"",""trial"",""time""
""fullscreenenter"",""1"",""7887""
","
","","","","","","null","<div style=""font-size:60px;"">+</div>","null","","fixation","","","","","","","","","","","","","",""
"learning-trial","93","467488","0.0-9.0-2.0-1.3","1711","2","2","""event"",""trial"",""time""
""blur"",""1"",""4762""
""focus"",""1"",""6528""
""fullscreenenter"",""1"",""7887""
","""event"",""trial"",""time""
""blur"",""1"",""4762""
","""event"",""trial"",""time""
""focus"",""1"",""6528""
","""event"",""trial"",""time""
""fullscreenenter"",""1"",""7887""
","
","","","","","","1701.2999999821186","images/rodent3.png","","","learning","images/pets_choice1.png","images/pets_choice3.png","images/pets_choice2.png","[0,2,1]","1","2","2","images/pets_choice3.png","-1","pets","","rodent","2","0"
"html-keyboard-response","94","468000","0.0-9.0-2.0-0.4","1711","2","2","""event"",""trial"",""time""
""blur"",""1"",""4762""
""focus"",""1"",""6528""
""fullscreenenter"",""1"",""7887""
","""event"",""trial"",""time""
""blur"",""1"",""4762""
","""event"",""trial"",""time""
""focus"",""1"",""6528""
","""event"",""trial"",""time""
""fullscreenenter"",""1"",""7887""
","
","","","","","","null","<div style=""font-size:60px;"">+</div>","null","","fixation","","","","","","","","","","","","","",""
"learning-trial","95","472007","0.0-9.0-2.0-1.4","1711","2","2","""event"",""trial"",""time""
""blur"",""1"",""4762""
""focus"",""1"",""6528""
""fullscreenenter"",""1"",""7887""
","""event"",""trial"",""time""
""blur"",""1"",""4762""
","""event"",""trial"",""time""
""focus"",""1"",""6528""
","""event"",""trial"",""time""
""fullscreenenter"",""1"",""7887""
","
","","","","","","2651.0999999940395","images/rodent4.png","","","learning","images/pets_choice3.png","images/pets_choice1.png","images/pets_choice2.png","[2,0,1]","0","1","3","images/pets_choice2.png","-1","pets","","rodent","2","0"
"html-keyboard-response","96","472516","0.0-9.0-2.0-0.5","1711","2","2","""event"",""trial"",""time""
""blur"",""1"",""4762""
""focus"",""1"",""6528""
""fullscreenenter"",""1"",""7887""
","""event"",""trial"",""time""
""blur"",""1"",""4762""
","""event"",""trial"",""time""
""focus"",""1"",""6528""
","""event"",""trial"",""time""
""fullscreenenter"",""1"",""7887""
","
","","","","","","null","<div style=""font-size:60px;"">+</div>","null","","fixation","","","","","","","","","","","","","",""
"learning-trial","97","476524","0.0-9.0-2.0-1.5","1711","2","2","""event"",""trial"",""time""
""blur"",""1"",""4762""
""focus"",""1"",""6528""
""fullscreenenter"",""1"",""7887""
","""event"",""trial"",""time""
""blur"",""1"",""4762""
","""event"",""trial"",""time""
""focus"",""1"",""6528""
","""event"",""trial"",""time""
""fullscreenenter"",""1"",""7887""
","
","","","","","","1735.5999999940395","images/dog5.png","","","learning","images/pets_choice1.png","images/pets_choice3.png","images/pets_choice2.png","[0,2,1]","1","2","1","images/pets_choice1.png","-1","pets","","dog","2","0"
"html-keyboard-response","98","477034","0.0-9.0-2.0-0.6","1711","2","2","""event"",""trial"",""time""
""blur"",""1"",""4762""
""focus"",""1"",""6528""
""fullscreenenter"",""1"",""7887""
","""event"",""trial"",""time""
""blur"",""1"",""4762""
","""event"",""trial"",""time""
""focus"",""1"",""6528""
","""event"",""trial"",""time""
""fullscreenenter"",""1"",""7887""
","
","","","","","","null","<div style=""font-size:60px;"">+</div>","null","","fixation","","","","","","","","","","","","","",""
"learning-trial","99","481036","0.0-9.0-2.0-1.6","1711","2","2","""event"",""trial"",""time""
""blur"",""1"",""4762""
""focus"",""1"",""6528""
""fullscreenenter"",""1"",""7887""
","""event"",""trial"",""time""
""blur"",""1"",""4762""
","""event"",""trial"",""time""
""focus"",""1"",""6528""
","""event"",""trial"",""time""
""fullscreenenter"",""1"",""7887""
","
","","","","","","2034.0999999940395","images/rodent4.png","","","learning","images/pets_choice1.png","images/pets_choice3.png","images/pets_choice2.png","[0,2,1]","0","0","2","images/pets_choice3.png","-1","pets","","rodent","2","0"
"html-keyboard-response","100","481538","0.0-9.0-2.0-0.7","1711","2","2","""event"",""trial"",""time""
""blur"",""1"",""4762""
""focus"",""1"",""6528""
""fullscreenenter"",""1"",""7887""
","""event"",""trial"",""time""
""blur"",""1"",""4762""
","""event"",""trial"",""time""
""focus"",""1"",""6528""
","""event"",""trial"",""time""
""fullscreenenter"",""1"",""7887""
","
","","","","","","null","<div style=""font-size:60px;"">+</div>","null","","fixation","","","","","","","","","","","","","",""
"learning-trial","101","485541","0.0-9.0-2.0-1.7","1711","2","2","""event"",""trial"",""time""
""blur"",""1"",""4762""
""focus"",""1"",""6528""
""fullscreenenter"",""1"",""7887""
","""event"",""trial"",""time""
""blur"",""1"",""4762""
","""event"",""trial"",""time""
""focus"",""1"",""6528""
","""event"",""trial"",""time""
""fullscreenenter"",""1"",""7887""
","
","","","","","","1433.800000011921","images/rabbit5.png","","","learning","images/pets_choice3.png","images/pets_choice1.png","images/pets_choice2.png","[2,0,1]","1","2","1","images/pets_choice3.png","1","pets","","rabbit","2","0"
"html-keyboard-response","102","486054","0.0-9.0-2.0-0.8","1711","2","2","""event"",""trial"",""time""
""blur"",""1"",""4762""
""focus"",""1"",""6528""
""fullscreenenter"",""1"",""7887""
","""event"",""trial"",""time""
""blur"",""1"",""4762""
","""event"",""trial"",""time""
""focus"",""1"",""6528""
","""event"",""trial"",""time""
""fullscreenenter"",""1"",""7887""
","
","","","","","","null","<div style=""font-size:60px;"">+</div>","null","","fixation","","","","","","","","","","","","","",""
"learning-trial","103","490056","0.0-9.0-2.0-1.8","1711","2","2","""event"",""trial"",""time""
""blur"",""1"",""4762""
""focus"",""1"",""6528""
""fullscreenenter"",""1"",""7887""
","""event"",""trial"",""time""
""blur"",""1"",""4762""
","""event"",""trial"",""time""
""focus"",""1"",""6528""
","""event"",""trial"",""time""
""fullscreenenter"",""1"",""7887""
","
","","","","","","2502.9000000059605","images/dog5.png","","","learning","images/pets_choice2.png","images/pets_choice3.png","images/pets_choice1.png","[1,2,0]","1","0","1","images/pets_choice2.png","1","pets","","dog","2","0"
"html-keyboard-response","104","490558","0.0-9.0-2.0-0.9","1711","2","2","""event"",""trial"",""time""
""blur"",""1"",""4762""
""focus"",""1"",""6528""
""fullscreenenter"",""1"",""7887""
","""event"",""trial"",""time""
""blur"",""1"",""4762""
","""event"",""trial"",""time""
""focus"",""1"",""6528""
","""event"",""trial"",""time""
""fullscreenenter"",""1"",""7887""
","
","","","","","","null","<div style=""font-size:60px;"">+</div>","null","","fixation","","","","","","","","","","","","","",""
"learning-trial","105","494561","0.0-9.0-2.0-1.9","1711","2","2","""event"",""trial"",""time""
""blur"",""1"",""4762""
""focus"",""1"",""6528""
""fullscreenenter"",""1"",""7887""
","""event"",""trial"",""time""
""blur"",""1"",""4762""
","""event"",""trial"",""time""
""focus"",""1"",""6528""
","""event"",""trial"",""time""
""fullscreenenter"",""1"",""7887""
","
","","","","","","741.9000000059605","images/dog5.png","","","learning","images/pets_choice2.png","images/pets_choice1.png","images/pets_choice3.png","[1,0,2]","1","0","1","images/pets_choice2.png","1","pets","","dog","2","0"
"html-keyboard-response","106","495066","0.0-9.0-2.0-0.10","1711","2","2","""event"",""trial"",""time""
""blur"",""1"",""4762""
""focus"",""1"",""6528""
""fullscreenenter"",""1"",""7887""
","""event"",""trial"",""time""
""blur"",""1"",""4762""
","""event"",""trial"",""time""
""focus"",""1"",""6528""
","""event"",""trial"",""time""
""fullscreenenter"",""1"",""7887""
","
","","","","","","null","<div style=""font-size:60px;"">+</div>","null","","fixation","","","","","","","","","","","","","",""
"learning-trial","107","499068","0.0-9.0-2.0-1.10","1711","2","2","""event"",""trial"",""time""
""blur"",""1"",""4762""
""focus"",""1"",""6528""
""fullscreenenter"",""1"",""7887""
","""event"",""trial"",""time""
""blur"",""1"",""4762""
","""event"",""trial"",""time""
""focus"",""1"",""6528""
","""event"",""trial"",""time""
""fullscreenenter"",""1"",""7887""
","
","","","","","","1065.800000011921","images/rabbit5.png","","","learning","images/pets_choice2.png","images/pets_choice1.png","images/pets_choice3.png","[1,0,2]","1","0","3","images/pets_choice3.png","-1","pets","","rabbit","2","0"
"html-keyboard-response","108","499570","0.0-9.0-2.0-0.11","1711","2","2","""event"",""trial"",""time""
""blur"",""1"",""4762""
""focus"",""1"",""6528""
""fullscreenenter"",""1"",""7887""
","""event"",""trial"",""time""
""blur"",""1"",""4762""
","""event"",""trial"",""time""
""focus"",""1"",""6528""
","""event"",""trial"",""time""
""fullscreenenter"",""1"",""7887""
","
","","","","","","null","<div style=""font-size:60px;"">+</div>","null","","fixation","","","","","","","","","","","","","",""
"learning-trial","109","503573","0.0-9.0-2.0-1.11","1711","2","2","""event"",""trial"",""time""
""blur"",""1"",""4762""
""focus"",""1"",""6528""
""fullscreenenter"",""1"",""7887""
","""event"",""trial"",""time""
""blur"",""1"",""4762""
","""event"",""trial"",""time""
""focus"",""1"",""6528""
","""event"",""trial"",""time""
""fullscreenenter"",""1"",""7887""
","
","","","","","","1345.9000000059605","images/rodent1.png","","","learning","images/pets_choice2.png","images/pets_choice1.png","images/pets_choice3.png","[1,0,2]","2","2","2","images/pets_choice1.png","-1","pets","","rodent","2","0"
"html-keyboard-response","110","504078","0.0-9.0-2.0-0.12","1711","2","2","""event"",""trial"",""time""
""blur"",""1"",""4762""
""focus"",""1"",""6528""
""fullscreenenter"",""1"",""7887""
","""event"",""trial"",""time""
""blur"",""1"",""4762""
","""event"",""trial"",""time""
""focus"",""1"",""6528""
","""event"",""trial"",""time""
""fullscreenenter"",""1"",""7887""
","
","","","","","","null","<div style=""font-size:60px;"">+</div>","null","","fixation","","","","","","","","","","","","","",""
"learning-trial","111","508081","0.0-9.0-2.0-1.12","1711","2","2","""event"",""trial"",""time""
""blur"",""1"",""4762""
""focus"",""1"",""6528""
""fullscreenenter"",""1"",""7887""
","""event"",""trial"",""time""
""blur"",""1"",""4762""
","""event"",""trial"",""time""
""focus"",""1"",""6528""
","""event"",""trial"",""time""
""fullscreenenter"",""1"",""7887""
","
","","","","","","1429.5","images/rabbit2.png","","","learning","images/pets_choice1.png","images/pets_choice2.png","images/pets_choice3.png","[0,1,2]","0","0","3","images/pets_choice3.png","-1","pets","","rabbit","2","0"
"html-keyboard-response","112","508590","0.0-9.0-2.0-0.13","1711","2","2","""event"",""trial"",""time""
""blur"",""1"",""4762""
""focus"",""1"",""6528""
""fullscreenenter"",""1"",""7887""
","""event"",""trial"",""time""
""blur"",""1"",""4762""
","""event"",""trial"",""time""
""focus"",""1"",""6528""
","""event"",""trial"",""time""
""fullscreenenter"",""1"",""7887""
","
","","","","","","null","<div style=""font-size:60px;"">+</div>","null","","fixation","","","","","","","","","","","","","",""
"learning-trial","113","512593","0.0-9.0-2.0-1.13","1711","2","2","""event"",""trial"",""time""
""blur"",""1"",""4762""
""focus"",""1"",""6528""
""fullscreenenter"",""1"",""7887""
","""event"",""trial"",""time""
""blur"",""1"",""4762""
","""event"",""trial"",""time""
""focus"",""1"",""6528""
","""event"",""trial"",""time""
""fullscreenenter"",""1"",""7887""
","
","","","","","","3430.300000011921","images/dog2.png","","","learning","images/pets_choice3.png","images/pets_choice2.png","images/pets_choice1.png","[2,1,0]","2","0","3","images/pets_choice1.png","-1","pets","","dog","2","0"
"html-keyboard-response","114","513095","0.0-9.0-2.0-0.14","1711","2","2","""event"",""trial"",""time""
""blur"",""1"",""4762""
""focus"",""1"",""6528""
""fullscreenenter"",""1"",""7887""
","""event"",""trial"",""time""
""blur"",""1"",""4762""
","""event"",""trial"",""time""
""focus"",""1"",""6528""
","""event"",""trial"",""time""
""fullscreenenter"",""1"",""7887""
","
","","","","","","null","<div style=""font-size:60px;"">+</div>","null","","fixation","","","","","","","","","","","","","",""
"learning-trial","115","517097","0.0-9.0-2.0-1.14","1711","2","2","""event"",""trial"",""time""
""blur"",""1"",""4762""
""focus"",""1"",""6528""
""fullscreenenter"",""1"",""7887""
","""event"",""trial"",""time""
""blur"",""1"",""4762""
","""event"",""trial"",""time""
""focus"",""1"",""6528""
","""event"",""trial"",""time""
""fullscreenenter"",""1"",""7887""
","
","","","","","","1093.5999999940395","images/dog5.png","","","learning","images/pets_choice2.png","images/pets_choice3.png","images/pets_choice1.png","[1,2,0]","1","0","1","images/pets_choice2.png","1","pets","","dog","2","0"
"html-keyboard-response","116","517599","0.0-9.0-2.0-0.15","1711","2","2","""event"",""trial"",""time""
""blur"",""1"",""4762""
""focus"",""1"",""6528""
""fullscreenenter"",""1"",""7887""
","""event"",""trial"",""time""
""blur"",""1"",""4762""
","""event"",""trial"",""time""
""focus"",""1"",""6528""
","""event"",""trial"",""time""
""fullscreenenter"",""1"",""7887""
","
","","","","","","null","<div style=""font-size:60px;"">+</div>","null","","fixation","","","","","","","","","","","","","",""
"learning-trial","117","521602","0.0-9.0-2.0-1.15","1711","2","2","""event"",""trial"",""time""
""blur"",""1"",""4762""
""focus"",""1"",""6528""
""fullscreenenter"",""1"",""7887""
","""event"",""trial"",""time""
""blur"",""1"",""4762""
","""event"",""trial"",""time""
""focus"",""1"",""6528""
","""event"",""trial"",""time""
""fullscreenenter"",""1"",""7887""
","
","","","","","","2668.699999988079","images/dog1.png","","","learning","images/pets_choice1.png","images/pets_choice3.png","images/pets_choice2.png","[0,2,1]","0","0","2","images/pets_choice3.png","-1","pets","","dog","2","0"
"html-keyboard-response","118","522104","0.0-9.0-2.0-0.16","1711","2","2","""event"",""trial"",""time""
""blur"",""1"",""4762""
""focus"",""1"",""6528""
""fullscreenenter"",""1"",""7887""
","""event"",""trial"",""time""
""blur"",""1"",""4762""
","""event"",""trial"",""time""
""focus"",""1"",""6528""
","""event"",""trial"",""time""
""fullscreenenter"",""1"",""7887""
","
","","","","","","null","<div style=""font-size:60px;"">+</div>","null","","fixation","","","","","","","","","","","","","",""
"learning-trial","119","526107","0.0-9.0-2.0-1.16","1711","2","2","""event"",""trial"",""time""
""blur"",""1"",""4762""
""focus"",""1"",""6528""
""fullscreenenter"",""1"",""7887""
","""event"",""trial"",""time""
""blur"",""1"",""4762""
","""event"",""trial"",""time""
""focus"",""1"",""6528""
","""event"",""trial"",""time""
""fullscreenenter"",""1"",""7887""
","
","","","","","","1100.300000011921","images/dog5.png","","","learning","images/pets_choice3.png","images/pets_choice2.png","images/pets_choice1.png","[2,1,0]","1","1","2","images/pets_choice2.png","-1","pets","","dog","2","0"
"html-keyboard-response","120","526608","0.0-9.0-2.0-0.17","1711","2","2","""event"",""trial"",""time""
""blur"",""1"",""4762""
""focus"",""1"",""6528""
""fullscreenenter"",""1"",""7887""
","""event"",""trial"",""time""
""blur"",""1"",""4762""
","""event"",""trial"",""time""
""focus"",""1"",""6528""
","""event"",""trial"",""time""
""fullscreenenter"",""1"",""7887""
","
","","","","","","null","<div style=""font-size:60px;"">+</div>","null","","fixation","","","","","","","","","","","","","",""
"learning-trial","121","530612","0.0-9.0-2.0-1.17","1711","2","2","""event"",""trial"",""time""
""blur"",""1"",""4762""
""focus"",""1"",""6528""
""fullscreenenter"",""1"",""7887""
","""event"",""trial"",""time""
""blur"",""1"",""4762""
","""event"",""trial"",""time""
""focus"",""1"",""6528""
","""event"",""trial"",""time""
""fullscreenenter"",""1"",""7887""
","
","","","","","","3946.699999988079","images/rodent4.png","","","learning","images/pets_choice2.png","images/pets_choice3.png","images/pets_choice1.png","[1,2,0]","0","2","3","images/pets_choice1.png","1","pets","","rodent","2","0"
"html-keyboard-response","122","531114","0.0-9.0-2.0-0.18","1711","2","2","""event"",""trial"",""time""
""blur"",""1"",""4762""
""focus"",""1"",""6528""
""fullscreenenter"",""1"",""7887""
","""event"",""trial"",""time""
""blur"",""1"",""4762""
","""event"",""trial"",""time""
""focus"",""1"",""6528""
","""event"",""trial"",""time""
""fullscreenenter"",""1"",""7887""
","
","","","","","","null","<div style=""font-size:60px;"">+</div>","null","","fixation","","","","","","","","","","","","","",""
"learning-trial","123","535123","0.0-9.0-2.0-1.18","1711","2","2","""event"",""trial"",""time""
""blur"",""1"",""4762""
""focus"",""1"",""6528""
""fullscreenenter"",""1"",""7887""
","""event"",""trial"",""time""
""blur"",""1"",""4762""
","""event"",""trial"",""time""
""focus"",""1"",""6528""
","""event"",""trial"",""time""
""fullscreenenter"",""1"",""7887""
","
","","","","","","2722.4000000059605","images/rabbit5.png","","","learning","images/pets_choice3.png","images/pets_choice2.png","images/pets_choice1.png","[2,1,0]","1","1","3","images/pets_choice1.png","-1","pets","","rabbit","2","0"
"html-keyboard-response","124","535624","0.0-9.0-2.0-0.19","1711","2","2","""event"",""trial"",""time""
""blur"",""1"",""4762""
""focus"",""1"",""6528""
""fullscreenenter"",""1"",""7887""
","""event"",""trial"",""time""
""blur"",""1"",""4762""
","""event"",""trial"",""time""
""focus"",""1"",""6528""
","""event"",""trial"",""time""
""fullscreenenter"",""1"",""7887""
","
","","","","","","null","<div style=""font-size:60px;"">+</div>","null","","fixation","","","","","","","","","","","","","",""
"learning-trial","125","539626","0.0-9.0-2.0-1.19","1711","2","2","""event"",""trial"",""time""
""blur"",""1"",""4762""
""focus"",""1"",""6528""
""fullscreenenter"",""1"",""7887""
","""event"",""trial"",""time""
""blur"",""1"",""4762""
","""event"",""trial"",""time""
""focus"",""1"",""6528""
","""event"",""trial"",""time""
""fullscreenenter"",""1"",""7887""
","
","","","","","","1348.199999988079","images/rodent4.png","","","learning","images/pets_choice3.png","images/pets_choice1.png","images/pets_choice2.png","[2,0,1]","0","1","2","images/pets_choice1.png","1","pets","","rodent","2","0"
"html-keyboard-response","126","540128","0.0-9.0-2.0-0.20","1711","2","2","""event"",""trial"",""time""
""blur"",""1"",""4762""
""focus"",""1"",""6528""
""fullscreenenter"",""1"",""7887""
","""event"",""trial"",""time""
""blur"",""1"",""4762""
","""event"",""trial"",""time""
""focus"",""1"",""6528""
","""event"",""trial"",""time""
""fullscreenenter"",""1"",""7887""
","
","","","","","","null","<div style=""font-size:60px;"">+</div>","null","","fixation","","","","","","","","","","","","","",""
"learning-trial","127","544131","0.0-9.0-2.0-1.20","1711","2","2","""event"",""trial"",""time""
""blur"",""1"",""4762""
""focus"",""1"",""6528""
""fullscreenenter"",""1"",""7887""
","""event"",""trial"",""time""
""blur"",""1"",""4762""
","""event"",""trial"",""time""
""focus"",""1"",""6528""
","""event"",""trial"",""time""
""fullscreenenter"",""1"",""7887""
","
","","","","","","1035.4000000059605","images/rodent4.png","","","learning","images/pets_choice2.png","images/pets_choice3.png","images/pets_choice1.png","[1,2,0]","0","2","3","images/pets_choice1.png","1","pets","","rodent","2","0"
"html-keyboard-response","128","544642","0.0-9.0-2.0-0.21","1711","2","2","""event"",""trial"",""time""
""blur"",""1"",""4762""
""focus"",""1"",""6528""
""fullscreenenter"",""1"",""7887""
","""event"",""trial"",""time""
""blur"",""1"",""4762""
","""event"",""trial"",""time""
""focus"",""1"",""6528""
","""event"",""trial"",""time""
""fullscreenenter"",""1"",""7887""
","
","","","","","","null","<div style=""font-size:60px;"">+</div>","null","","fixation","","","","","","","","","","","","","",""
"learning-trial","129","548645","0.0-9.0-2.0-1.21","1711","2","2","""event"",""trial"",""time""
""blur"",""1"",""4762""
""focus"",""1"",""6528""
""fullscreenenter"",""1"",""7887""
","""event"",""trial"",""time""
""blur"",""1"",""4762""
","""event"",""trial"",""time""
""focus"",""1"",""6528""
","""event"",""trial"",""time""
""fullscreenenter"",""1"",""7887""
","
","","","","","","1777.5","images/rodent1.png","","","learning","images/pets_choice1.png","images/pets_choice2.png","images/pets_choice3.png","[0,1,2]","2","2","1","images/pets_choice1.png","1","pets","","rodent","2","0"
"html-keyboard-response","130","549147","0.0-9.0-2.0-0.22","1711","2","2","""event"",""trial"",""time""
""blur"",""1"",""4762""
""focus"",""1"",""6528""
""fullscreenenter"",""1"",""7887""
","""event"",""trial"",""time""
""blur"",""1"",""4762""
","""event"",""trial"",""time""
""focus"",""1"",""6528""
","""event"",""trial"",""time""
""fullscreenenter"",""1"",""7887""
","
","","","","","","null","<div style=""font-size:60px;"">+</div>","null","","fixation","","","","","","","","","","","","","",""
"learning-trial","131","553149","0.0-9.0-2.0-1.22","1711","2","2","""event"",""trial"",""time""
""blur"",""1"",""4762""
""focus"",""1"",""6528""
""fullscreenenter"",""1"",""7887""
","""event"",""trial"",""time""
""blur"",""1"",""4762""
","""event"",""trial"",""time""
""focus"",""1"",""6528""
","""event"",""trial"",""time""
""fullscreenenter"",""1"",""7887""
","
","","","","","","1032.800000011921","images/rodent3.png","","","learning","images/pets_choice1.png","images/pets_choice3.png","images/pets_choice2.png","[0,2,1]","1","2","1","images/pets_choice1.png","-1","pets","","rodent","2","0"
"html-keyboard-response","132","553652","0.0-9.0-2.0-0.23","1711","2","2","""event"",""trial"",""time""
""blur"",""1"",""4762""
""focus"",""1"",""6528""
""fullscreenenter"",""1"",""7887""
","""event"",""trial"",""time""
""blur"",""1"",""4762""
","""event"",""trial"",""time""
""focus"",""1"",""6528""
","""event"",""trial"",""time""
""fullscreenenter"",""1"",""7887""
","
","","","","","","null","<div style=""font-size:60px;"">+</div>","null","","fixation","","","","","","","","","","","","","",""
"learning-trial","133","557654","0.0-9.0-2.0-1.23","1711","2","2","""event"",""trial"",""time""
""blur"",""1"",""4762""
""focus"",""1"",""6528""
""fullscreenenter"",""1"",""7887""
","""event"",""trial"",""time""
""blur"",""1"",""4762""
","""event"",""trial"",""time""
""focus"",""1"",""6528""
","""event"",""trial"",""time""
""fullscreenenter"",""1"",""7887""
","
","","","","","","2376.7000000178814","images/dog1.png","","","learning","images/pets_choice2.png","images/pets_choice1.png","images/pets_choice3.png","[1,0,2]","0","1","1","images/pets_choice2.png","-1","pets","","dog","2","0"
"html-keyboard-response","134","558170","0.0-9.0-2.0-0.24","1711","2","2","""event"",""trial"",""time""
""blur"",""1"",""4762""
""focus"",""1"",""6528""
""fullscreenenter"",""1"",""7887""
","""event"",""trial"",""time""
""blur"",""1"",""4762""
","""event"",""trial"",""time""
""focus"",""1"",""6528""
","""event"",""trial"",""time""
""fullscreenenter"",""1"",""7887""
","
","","","","","","null","<div style=""font-size:60px;"">+</div>","null","","fixation","","","","","","","","","","","","","",""
"learning-trial","135","562176","0.0-9.0-2.0-1.24","1711","2","2","""event"",""trial"",""time""
""blur"",""1"",""4762""
""focus"",""1"",""6528""
""fullscreenenter"",""1"",""7887""
","""event"",""trial"",""time""
""blur"",""1"",""4762""
","""event"",""trial"",""time""
""focus"",""1"",""6528""
","""event"",""trial"",""time""
""fullscreenenter"",""1"",""7887""
","
","","","","","","1959.0999999940395","images/rodent3.png","","","learning","images/pets_choice1.png","images/pets_choice2.png","images/pets_choice3.png","[0,1,2]","1","1","1","images/pets_choice1.png","-1","pets","","rodent","2","0"
"html-keyboard-response","136","562678","0.0-9.0-2.0-0.25","1711","2","2","""event"",""trial"",""time""
""blur"",""1"",""4762""
""focus"",""1"",""6528""
""fullscreenenter"",""1"",""7887""
","""event"",""trial"",""time""
""blur"",""1"",""4762""
","""event"",""trial"",""time""
""focus"",""1"",""6528""
","""event"",""trial"",""time""
""fullscreenenter"",""1"",""7887""
","
","","","","","","null","<div style=""font-size:60px;"">+</div>","null","","fixation","","","","","","","","","","","","","",""
"learning-trial","137","566680","0.0-9.0-2.0-1.25","1711","2","2","""event"",""trial"",""time""
""blur"",""1"",""4762""
""focus"",""1"",""6528""
""fullscreenenter"",""1"",""7887""
","""event"",""trial"",""time""
""blur"",""1"",""4762""
","""event"",""trial"",""time""
""focus"",""1"",""6528""
","""event"",""trial"",""time""
""fullscreenenter"",""1"",""7887""
","
","","","","","","1557.699999988079","images/rodent3.png","","","learning","images/pets_choice1.png","images/pets_choice3.png","images/pets_choice2.png","[0,2,1]","1","2","1","images/pets_choice1.png","-1","pets","","rodent","2","0"
"html-keyboard-response","138","567193","0.0-9.0-2.0-0.26","1711","2","2","""event"",""trial"",""time""
""blur"",""1"",""4762""
""focus"",""1"",""6528""
""fullscreenenter"",""1"",""7887""
","""event"",""trial"",""time""
""blur"",""1"",""4762""
","""event"",""trial"",""time""
""focus"",""1"",""6528""
","""event"",""trial"",""time""
""fullscreenenter"",""1"",""7887""
","
","","","","","","null","<div style=""font-size:60px;"">+</div>","null","","fixation","","","","","","","","","","","","","",""
"learning-trial","139","571195","0.0-9.0-2.0-1.26","1711","2","2","""event"",""trial"",""time""
""blur"",""1"",""4762""
""focus"",""1"",""6528""
""fullscreenenter"",""1"",""7887""
","""event"",""trial"",""time""
""blur"",""1"",""4762""
","""event"",""trial"",""time""
""focus"",""1"",""6528""
","""event"",""trial"",""time""
""fullscreenenter"",""1"",""7887""
","
","","","","","","2090.5","images/rabbit5.png","","","learning","images/pets_choice1.png","images/pets_choice2.png","images/pets_choice3.png","[0,1,2]","1","1","1","images/pets_choice1.png","-1","pets","","rabbit","2","0"
"html-keyboard-response","140","571696","0.0-9.0-2.0-0.27","1711","2","2","""event"",""trial"",""time""
""blur"",""1"",""4762""
""focus"",""1"",""6528""
""fullscreenenter"",""1"",""7887""
","""event"",""trial"",""time""
""blur"",""1"",""4762""
","""event"",""trial"",""time""
""focus"",""1"",""6528""
","""event"",""trial"",""time""
""fullscreenenter"",""1"",""7887""
","
","","","","","","null","<div style=""font-size:60px;"">+</div>","null","","fixation","","","","","","","","","","","","","",""
"learning-trial","141","575699","0.0-9.0-2.0-1.27","1711","2","2","""event"",""trial"",""time""
""blur"",""1"",""4762""
""focus"",""1"",""6528""
""fullscreenenter"",""1"",""7887""
","""event"",""trial"",""time""
""blur"",""1"",""4762""
","""event"",""trial"",""time""
""focus"",""1"",""6528""
","""event"",""trial"",""time""
""fullscreenenter"",""1"",""7887""
","
","","","","","","3778.9000000059605","images/dog2.png","","","learning","images/pets_choice3.png","images/pets_choice2.png","images/pets_choice1.png","[2,1,0]","2","0","3","images/pets_choice1.png","-1","pets","","dog","2","0"
"html-keyboard-response","142","576200","0.0-9.0-2.0-0.28","1711","2","2","""event"",""trial"",""time""
""blur"",""1"",""4762""
""focus"",""1"",""6528""
""fullscreenenter"",""1"",""7887""
","""event"",""trial"",""time""
""blur"",""1"",""4762""
","""event"",""trial"",""time""
""focus"",""1"",""6528""
","""event"",""trial"",""time""
""fullscreenenter"",""1"",""7887""
","
","","","","","","null","<div style=""font-size:60px;"">+</div>","null","","fixation","","","","","","","","","","","","","",""
"learning-trial","143","580203","0.0-9.0-2.0-1.28","1711","2","2","""event"",""trial"",""time""
""blur"",""1"",""4762""
""focus"",""1"",""6528""
""fullscreenenter"",""1"",""7887""
","""event"",""trial"",""time""
""blur"",""1"",""4762""
","""event"",""trial"",""time""
""focus"",""1"",""6528""
","""event"",""trial"",""time""
""fullscreenenter"",""1"",""7887""
","
","","","","","","1892.4000000059605","images/rabbit4.png","","","learning","images/pets_choice3.png","images/pets_choice2.png","images/pets_choice1.png","[2,1,0]","2","0","1","images/pets_choice3.png","1","pets","","rabbit","2","0"
"html-keyboard-response","144","580704","0.0-9.0-2.0-0.29","1711","2","2","""event"",""trial"",""time""
""blur"",""1"",""4762""
""focus"",""1"",""6528""
""fullscreenenter"",""1"",""7887""
","""event"",""trial"",""time""
""blur"",""1"",""4762""
","""event"",""trial"",""time""
""focus"",""1"",""6528""
","""event"",""trial"",""time""
""fullscreenenter"",""1"",""7887""
","
","","","","","","null","<div style=""font-size:60px;"">+</div>","null","","fixation","","","","","","","","","","","","","",""
"learning-trial","145","584707","0.0-9.0-2.0-1.29","1711","2","2","""event"",""trial"",""time""
""blur"",""1"",""4762""
""focus"",""1"",""6528""
""fullscreenenter"",""1"",""7887""
","""event"",""trial"",""time""
""blur"",""1"",""4762""
","""event"",""trial"",""time""
""focus"",""1"",""6528""
","""event"",""trial"",""time""
""fullscreenenter"",""1"",""7887""
","
","","","","","","3347.800000011921","images/dog1.png","","","learning","images/pets_choice1.png","images/pets_choice2.png","images/pets_choice3.png","[0,1,2]","0","0","3","images/pets_choice3.png","1","pets","","dog","2","0"
"html-keyboard-response","146","585209","0.0-9.0-2.0-0.30","1711","2","2","""event"",""trial"",""time""
""blur"",""1"",""4762""
""focus"",""1"",""6528""
""fullscreenenter"",""1"",""7887""
","""event"",""trial"",""time""
""blur"",""1"",""4762""
","""event"",""trial"",""time""
""focus"",""1"",""6528""
","""event"",""trial"",""time""
""fullscreenenter"",""1"",""7887""
","
","","","","","","null","<div style=""font-size:60px;"">+</div>","null","","fixation","","","","","","","","","","","","","",""
"learning-trial","147","589213","0.0-9.0-2.0-1.30","1711","2","2","""event"",""trial"",""time""
""blur"",""1"",""4762""
""focus"",""1"",""6528""
""fullscreenenter"",""1"",""7887""
","""event"",""trial"",""time""
""blur"",""1"",""4762""
","""event"",""trial"",""time""
""focus"",""1"",""6528""
","""event"",""trial"",""time""
""fullscreenenter"",""1"",""7887""
","
","","","","","","955","images/dog2.png","","","learning","images/pets_choice1.png","images/pets_choice2.png","images/pets_choice3.png","[0,1,2]","2","2","3","images/pets_choice3.png","1","pets","","dog","2","0"
"html-keyboard-response","148","589715","0.0-9.0-2.0-0.31","1711","2","2","""event"",""trial"",""time""
""blur"",""1"",""4762""
""focus"",""1"",""6528""
""fullscreenenter"",""1"",""7887""
","""event"",""trial"",""time""
""blur"",""1"",""4762""
","""event"",""trial"",""time""
""focus"",""1"",""6528""
","""event"",""trial"",""time""
""fullscreenenter"",""1"",""7887""
","
","","","","","","null","<div style=""font-size:60px;"">+</div>","null","","fixation","","","","","","","","","","","","","",""
"learning-trial","149","593717","0.0-9.0-2.0-1.31","1711","2","2","""event"",""trial"",""time""
""blur"",""1"",""4762""
""focus"",""1"",""6528""
""fullscreenenter"",""1"",""7887""
","""event"",""trial"",""time""
""blur"",""1"",""4762""
","""event"",""trial"",""time""
""focus"",""1"",""6528""
","""event"",""trial"",""time""
""fullscreenenter"",""1"",""7887""
","
","","","","","","1416.800000011921","images/rodent4.png","","","learning","images/pets_choice1.png","images/pets_choice2.png","images/pets_choice3.png","[0,1,2]","0","0","2","images/pets_choice2.png","1","pets","","rodent","2","0"
"html-keyboard-response","150","594218","0.0-9.0-2.0-0.32","1711","2","2","""event"",""trial"",""time""
""blur"",""1"",""4762""
""focus"",""1"",""6528""
""fullscreenenter"",""1"",""7887""
","""event"",""trial"",""time""
""blur"",""1"",""4762""
","""event"",""trial"",""time""
""focus"",""1"",""6528""
","""event"",""trial"",""time""
""fullscreenenter"",""1"",""7887""
","
","","","","","","null","<div style=""font-size:60px;"">+</div>","null","","fixation","","","","","","","","","","","","","",""
"learning-trial","151","598220","0.0-9.0-2.0-1.32","1711","2","2","""event"",""trial"",""time""
""blur"",""1"",""4762""
""focus"",""1"",""6528""
""fullscreenenter"",""1"",""7887""
","""event"",""trial"",""time""
""blur"",""1"",""4762""
","""event"",""trial"",""time""
""focus"",""1"",""6528""
","""event"",""trial"",""time""
""fullscreenenter"",""1"",""7887""
","
","","","","","","1049.699999988079","images/rodent3.png","","","learning","images/pets_choice3.png","images/pets_choice1.png","images/pets_choice2.png","[2,0,1]","1","2","3","images/pets_choice2.png","1","pets","","rodent","2","0"
"html-keyboard-response","152","598735","0.0-9.0-2.0-0.33","1711","2","2","""event"",""trial"",""time""
""blur"",""1"",""4762""
""focus"",""1"",""6528""
""fullscreenenter"",""1"",""7887""
","""event"",""trial"",""time""
""blur"",""1"",""4762""
","""event"",""trial"",""time""
""focus"",""1"",""6528""
","""event"",""trial"",""time""
""fullscreenenter"",""1"",""7887""
","
","","","","","","null","<div style=""font-size:60px;"">+</div>","null","","fixation","","","","","","","","","","","","","",""
"learning-trial","153","602737","0.0-9.0-2.0-1.33","1711","2","2","""event"",""trial"",""time""
""blur"",""1"",""4762""
""focus"",""1"",""6528""
""fullscreenenter"",""1"",""7887""
","""event"",""trial"",""time""
""blur"",""1"",""4762""
","""event"",""trial"",""time""
""focus"",""1"",""6528""
","""event"",""trial"",""time""
""fullscreenenter"",""1"",""7887""
","
","","","","","","2453.300000011921","images/rodent4.png","","","learning","images/pets_choice3.png","images/pets_choice2.png","images/pets_choice1.png","[2,1,0]","0","2","2","images/pets_choice2.png","1","pets","","rodent","2","0"
"html-keyboard-response","154","603240","0.0-9.0-2.0-0.34","1711","2","2","""event"",""trial"",""time""
""blur"",""1"",""4762""
""focus"",""1"",""6528""
""fullscreenenter"",""1"",""7887""
","""event"",""trial"",""time""
""blur"",""1"",""4762""
","""event"",""trial"",""time""
""focus"",""1"",""6528""
","""event"",""trial"",""time""
""fullscreenenter"",""1"",""7887""
","
","","","","","","null","<div style=""font-size:60px;"">+</div>","null","","fixation","","","","","","","","","","","","","",""
"learning-trial","155","607243","0.0-9.0-2.0-1.34","1711","2","2","""event"",""trial"",""time""
""blur"",""1"",""4762""
""focus"",""1"",""6528""
""fullscreenenter"",""1"",""7887""
","""event"",""trial"",""time""
""blur"",""1"",""4762""
","""event"",""trial"",""time""
""focus"",""1"",""6528""
","""event"",""trial"",""time""
""fullscreenenter"",""1"",""7887""
","
","","","","","","1339.7000000178814","images/rabbit5.png","","","learning","images/pets_choice1.png","images/pets_choice3.png","images/pets_choice2.png","[0,2,1]","1","2","1","images/pets_choice1.png","-1","pets","","rabbit","2","0"
"html-keyboard-response","156","607745","0.0-9.0-2.0-0.35","1711","2","2","""event"",""trial"",""time""
""blur"",""1"",""4762""
""focus"",""1"",""6528""
""fullscreenenter"",""1"",""7887""
","""event"",""trial"",""time""
""blur"",""1"",""4762""
","""event"",""trial"",""time""
""focus"",""1"",""6528""
","""event"",""trial"",""time""
""fullscreenenter"",""1"",""7887""
","
","","","","","","null","<div style=""font-size:60px;"">+</div>","null","","fixation","","","","","","","","","","","","","",""
"learning-trial","157","611748","0.0-9.0-2.0-1.35","1711","2","2","""event"",""trial"",""time""
""blur"",""1"",""4762""
""focus"",""1"",""6528""
""fullscreenenter"",""1"",""7887""
","""event"",""trial"",""time""
""blur"",""1"",""4762""
","""event"",""trial"",""time""
""focus"",""1"",""6528""
","""event"",""trial"",""time""
""fullscreenenter"",""1"",""7887""
","
","","","","","","1161.9000000059605","images/rabbit2.png","","","learning","images/pets_choice2.png","images/pets_choice3.png","images/pets_choice1.png","[1,2,0]","0","2","3","images/pets_choice1.png","1","pets","","rabbit","2","0"
"html-keyboard-response","158","612249","0.0-9.0-2.0-0.36","1711","2","2","""event"",""trial"",""time""
""blur"",""1"",""4762""
""focus"",""1"",""6528""
""fullscreenenter"",""1"",""7887""
","""event"",""trial"",""time""
""blur"",""1"",""4762""
","""event"",""trial"",""time""
""focus"",""1"",""6528""
","""event"",""trial"",""time""
""fullscreenenter"",""1"",""7887""
","
","","","","","","null","<div style=""font-size:60px;"">+</div>","null","","fixation","","","","","","","","","","","","","",""
"learning-trial","159","616251","0.0-9.0-2.0-1.36","1711","2","2","""event"",""trial"",""time""
""blur"",""1"",""4762""
""focus"",""1"",""6528""
""fullscreenenter"",""1"",""7887""
","""event"",""trial"",""time""
""blur"",""1"",""4762""
","""event"",""trial"",""time""
""focus"",""1"",""6528""
","""event"",""trial"",""time""
""fullscreenenter"",""1"",""7887""
","
","","","","","","746.6999999880791","images/rabbit4.png","","","learning","images/pets_choice1.png","images/pets_choice3.png","images/pets_choice2.png","[0,2,1]","2","1","1","images/pets_choice1.png","-1","pets","","rabbit","2","0"
"html-keyboard-response","160","616752","0.0-9.0-2.0-0.37","1711","2","2","""event"",""trial"",""time""
""blur"",""1"",""4762""
""focus"",""1"",""6528""
""fullscreenenter"",""1"",""7887""
","""event"",""trial"",""time""
""blur"",""1"",""4762""
","""event"",""trial"",""time""
""focus"",""1"",""6528""
","""event"",""trial"",""time""
""fullscreenenter"",""1"",""7887""
","
","","","","","","null","<div style=""font-size:60px;"">+</div>","null","","fixation","","","","","","","","","","","","","",""
"learning-trial","161","620754","0.0-9.0-2.0-1.37","1711","2","2","""event"",""trial"",""time""
""blur"",""1"",""4762""
""focus"",""1"",""6528""
""fullscreenenter"",""1"",""7887""
","""event"",""trial"",""time""
""blur"",""1"",""4762""
","""event"",""trial"",""time""
""focus"",""1"",""6528""
","""event"",""trial"",""time""
""fullscreenenter"",""1"",""7887""
","
","","","","","","2435.199999988079","images/rodent1.png","","","learning","images/pets_choice3.png","images/pets_choice2.png","images/pets_choice1.png","[2,1,0]","2","0","1","images/pets_choice3.png","-1","pets","","rodent","2","0"
"html-keyboard-response","162","621256","0.0-9.0-2.0-0.38","1711","2","2","""event"",""trial"",""time""
""blur"",""1"",""4762""
""focus"",""1"",""6528""
""fullscreenenter"",""1"",""7887""
","""event"",""trial"",""time""
""blur"",""1"",""4762""
","""event"",""trial"",""time""
""focus"",""1"",""6528""
","""event"",""trial"",""time""
""fullscreenenter"",""1"",""7887""
","
","","","","","","null","<div style=""font-size:60px;"">+</div>","null","","fixation","","","","","","","","","","","","","",""
"learning-trial","163","625258","0.0-9.0-2.0-1.38","1711","2","2","""event"",""trial"",""time""
""blur"",""1"",""4762""
""focus"",""1"",""6528""
""fullscreenenter"",""1"",""7887""
","""event"",""trial"",""time""
""blur"",""1"",""4762""
","""event"",""trial"",""time""
""focus"",""1"",""6528""
","""event"",""trial"",""time""
""fullscreenenter"",""1"",""7887""
","
","","","","","","3012.100000023842","images/rodent4.png","","","learning","images/pets_choice1.png","images/pets_choice3.png","images/pets_choice2.png","[0,2,1]","0","0","3","images/pets_choice2.png","-1","pets","","rodent","2","0"
"html-keyboard-response","164","625760","0.0-9.0-2.0-0.39","1711","2","2","""event"",""trial"",""time""
""blur"",""1"",""4762""
""focus"",""1"",""6528""
""fullscreenenter"",""1"",""7887""
","""event"",""trial"",""time""
""blur"",""1"",""4762""
","""event"",""trial"",""time""
""focus"",""1"",""6528""
","""event"",""trial"",""time""
""fullscreenenter"",""1"",""7887""
","
","","","","","","null","<div style=""font-size:60px;"">+</div>","null","","fixation","","","","","","","","","","","","","",""
"learning-trial","165","629765","0.0-9.0-2.0-1.39","1711","2","2","""event"",""trial"",""time""
""blur"",""1"",""4762""
""focus"",""1"",""6528""
""fullscreenenter"",""1"",""7887""
","""event"",""trial"",""time""
""blur"",""1"",""4762""
","""event"",""trial"",""time""
""focus"",""1"",""6528""
","""event"",""trial"",""time""
""fullscreenenter"",""1"",""7887""
","
","","","","","","569.4000000059605","images/rodent1.png","","","learning","images/pets_choice3.png","images/pets_choice1.png","images/pets_choice2.png","[2,0,1]","2","0","3","images/pets_choice2.png","-1","pets","","rodent","2","0"
"html-keyboard-response","166","630267","0.0-9.0-2.0-0.40","1711","2","2","""event"",""trial"",""time""
""blur"",""1"",""4762""
""focus"",""1"",""6528""
""fullscreenenter"",""1"",""7887""
","""event"",""trial"",""time""
""blur"",""1"",""4762""
","""event"",""trial"",""time""
""focus"",""1"",""6528""
","""event"",""trial"",""time""
""fullscreenenter"",""1"",""7887""
","
","","","","","","null","<div style=""font-size:60px;"">+</div>","null","","fixation","","","","","","","","","","","","","",""
"learning-trial","167","634270","0.0-9.0-2.0-1.40","1711","2","2","""event"",""trial"",""time""
""blur"",""1"",""4762""
""focus"",""1"",""6528""
""fullscreenenter"",""1"",""7887""
","""event"",""trial"",""time""
""blur"",""1"",""4762""
","""event"",""trial"",""time""
""focus"",""1"",""6528""
","""event"",""trial"",""time""
""fullscreenenter"",""1"",""7887""
","
","","","","","","1376.2999999821186","images/rabbit4.png","","","learning","images/pets_choice3.png","images/pets_choice2.png","images/pets_choice1.png","[2,1,0]","2","0","1","images/pets_choice3.png","1","pets","","rabbit","2","0"
"html-keyboard-response","168","634771","0.0-9.0-2.0-0.41","1711","2","2","""event"",""trial"",""time""
""blur"",""1"",""4762""
""focus"",""1"",""6528""
""fullscreenenter"",""1"",""7887""
","""event"",""trial"",""time""
""blur"",""1"",""4762""
","""event"",""trial"",""time""
""focus"",""1"",""6528""
","""event"",""trial"",""time""
""fullscreenenter"",""1"",""7887""
","
","","","","","","null","<div style=""font-size:60px;"">+</div>","null","","fixation","","","","","","","","","","","","","",""
"learning-trial","169","638776","0.0-9.0-2.0-1.41","1711","2","2","""event"",""trial"",""time""
""blur"",""1"",""4762""
""focus"",""1"",""6528""
""fullscreenenter"",""1"",""7887""
","""event"",""trial"",""time""
""blur"",""1"",""4762""
","""event"",""trial"",""time""
""focus"",""1"",""6528""
","""event"",""trial"",""time""
""fullscreenenter"",""1"",""7887""
","
","","","","","","1119.9000000059605","images/rabbit4.png","","","learning","images/pets_choice3.png","images/pets_choice1.png","images/pets_choice2.png","[2,0,1]","2","0","1","images/pets_choice3.png","1","pets","","rabbit","2","0"
"html-keyboard-response","170","639278","0.0-9.0-2.0-0.42","1711","2","2","""event"",""trial"",""time""
""blur"",""1"",""4762""
""focus"",""1"",""6528""
""fullscreenenter"",""1"",""7887""
","""event"",""trial"",""time""
""blur"",""1"",""4762""
","""event"",""trial"",""time""
""focus"",""1"",""6528""
","""event"",""trial"",""time""
""fullscreenenter"",""1"",""7887""
","
","","","","","","null","<div style=""font-size:60px;"">+</div>","null","","fixation","","","","","","","","","","","","","",""
"learning-trial","171","643280","0.0-9.0-2.0-1.42","1711","2","2","""event"",""trial"",""time""
""blur"",""1"",""4762""
""focus"",""1"",""6528""
""fullscreenenter"",""1"",""7887""
","""event"",""trial"",""time""
""blur"",""1"",""4762""
","""event"",""trial"",""time""
""focus"",""1"",""6528""
","""event"",""trial"",""time""
""fullscreenenter"",""1"",""7887""
","
","","","","","","1741.9000000059605","images/dog1.png","","","learning","images/pets_choice3.png","images/pets_choice2.png","images/pets_choice1.png","[2,1,0]","0","2","3","images/pets_choice1.png","1","pets","","dog","2","0"
"html-keyboard-response","172","643781","0.0-9.0-2.0-0.43","1711","2","2","""event"",""trial"",""time""
