"trial_type","trial_index","time_elapsed","internal_node_id","subject_id","condition","task_version","interactions","blur_events","focus_events","fullscreenenter_events","fullscreenexit_events","success","timeout","failed_images","failed_audio","failed_video","rt","stimulus","response","button_pressed","task_part","left_choice","middle_choice","right_choice","choice_positions","correct_response","correct_position","key_press","option_selected","points","task_block","correct","stim_cat","block_condition","block_number"
"pavlovia","0","8","0.0-0.0","1608","1","2","""event"",""trial"",""time""
""fullscreenenter"",""1"",""3381""
","
","
","""event"",""trial"",""time""
""fullscreenenter"",""1"",""3381""
","
","","","","","","","","","","","","","","","","","","","","","","","",""
"fullscreen","1","4308","0.0-1.0","1608","1","2","""event"",""trial"",""time""
""fullscreenenter"",""1"",""3381""
","
","
","""event"",""trial"",""time""
""fullscreenenter"",""1"",""3381""
","
","true","","","","","","","","","","","","","","","","","","","","","","",""
"preload","2","8503","0.0-2.0","1608","1","2","""event"",""trial"",""time""
""fullscreenenter"",""1"",""3381""
","
","
","""event"",""trial"",""time""
""fullscreenenter"",""1"",""3381""
","
","true","false","[]","[]","[]","","","","","","","","","","","","","","","","","","",""
"audio-keyboard-response","3","11040","0.0-3.0","1608","1","2","""event"",""trial"",""time""
""fullscreenenter"",""1"",""3381""
","
","
","""event"",""trial"",""time""
""fullscreenenter"",""1"",""3381""
","
","","","","","","2533.3333333333326","audio/beep_loop.wav"," ","","","","","","","","","","","","","","","",""
"audio-button-response","4","12888","0.0-4.0","1608","1","2","""event"",""trial"",""time""
""fullscreenenter"",""1"",""3381""
","
","
","""event"",""trial"",""time""
""fullscreenenter"",""1"",""3381""
","
","","","","","","1845","audio/shark.wav","4","","","","","","","","","","","","","","","",""
"audio-button-response","5","15445","0.0-5.0","1608","1","2","""event"",""trial"",""time""
""fullscreenenter"",""1"",""3381""
","
","
","""event"",""trial"",""time""
""fullscreenenter"",""1"",""3381""
","
","","","","","","1552","audio/turtle.wav","1","","","","","","","","","","","","","","","",""
"preload","6","23201","0.0-6.0","1608","1","2","""event"",""trial"",""time""
""fullscreenenter"",""1"",""3381""
","
","
","""event"",""trial"",""time""
""fullscreenenter"",""1"",""3381""
","
","true","false","[]","[]","[]","","","","","","","","","","","","","","","","","","",""
"html-keyboard-response","7","26481","0.0-7.0","1608","1","2","""event"",""trial"",""time""
""fullscreenenter"",""1"",""3381""
","
","
","""event"",""trial"",""time""
""fullscreenenter"",""1"",""3381""
","
","","","","","","3278.7999999821186","Welcome to the experiment. Press any key to begin and to advance the instructions."," ","","","","","","","","","","","","","","","",""
"learning-instructions","8","39186","0.0-8.0-0.0-0.0","1608","1","2","""event"",""trial"",""time""
""fullscreenenter"",""1"",""3381""
","
","
","""event"",""trial"",""time""
""fullscreenenter"",""1"",""3381""
","
","","","","","","4949.9000000059605","<p> Welcome! Today you are going to play 6 different rounds of a decision-making game. </p><p> Use the mouse to click next to continue. </p>","","0","instructions","","","","","","","","","","","","","",""
"learning-instructions","9","42981","0.0-8.0-0.0-0.1","1608","1","2","""event"",""trial"",""time""
""fullscreenenter"",""1"",""3381""
","
","
","""event"",""trial"",""time""
""fullscreenenter"",""1"",""3381""
","
","","","","","","793.2999999821186","<p> You will start with a practice round to learn the rules. </p>","","0","instructions","","","","","","","","","","","","","",""
"learning-instructions","10","51425","0.0-8.0-0.0-0.2","1608","1","2","""event"",""trial"",""time""
""fullscreenenter"",""1"",""3381""
","
","
","""event"",""trial"",""time""
""fullscreenenter"",""1"",""3381""
","
","","","","","","704.0999999940395","<p> Your goal in this round is to deliver sports equipment to three different parks. </p><p> You will need to deliver many types of equipment. </p></div>","","0","instructions","","","","","","","","","","","","","",""
"learning-instructions","11","61046","0.0-8.0-0.0-0.3","1608","1","2","""event"",""trial"",""time""
""fullscreenenter"",""1"",""3381""
","
","
","""event"",""trial"",""time""
""fullscreenenter"",""1"",""3381""
","
","","","","","","1140","<p> On each turn, you will see one piece of sports equipment and three different parks.  </p><p> You need to select which park to deliver the equipment to.  </p>","","0","instructions","","","","","","","","","","","","","",""
"learning-instructions","12","77345","0.0-8.0-0.0-0.4","1608","1","2","""event"",""trial"",""time""
""fullscreenenter"",""1"",""3381""
","
","
","""event"",""trial"",""time""
""fullscreenenter"",""1"",""3381""
","
","","","","","","3017.199999988079","<p> You can select the park on the left by pressing the '1' key on your keyboard. <br>You can select the park in the middle by pressing the '2' key on your keyboard. <br>You can select the park on the right by pressing the '3' key on your keyboard.  </p><br><div class=""choice-instructions-grid""> <div class=""choice-option""><img src=""images/park1.png"" class=""choice-option-img"" stage=""instructions"" position=""0"" ><div class=""choice-option-text""> Press ""1."" </div></div><div class=""choice-option""><img src=""images/park2.png"" class=""choice-option-img"" stage=""instructions"" position=""1"" ><div class=""choice-option-text""> Press ""2."" </div></div><div class=""choice-option""><img src=""images/park3.png"" class=""choice-option-img"" stage=""instructions"" position=""2"" ><div class=""choice-option-text""> Press ""3."" </div></div></div>","","0","instructions","","","","","","","","","","","","","",""
"learning-instructions","13","88685","0.0-8.0-0.0-0.5","1608","1","2","""event"",""trial"",""time""
""fullscreenenter"",""1"",""3381""
","
","
","""event"",""trial"",""time""
""fullscreenenter"",""1"",""3381""
","
","","","","","","5956.800000011921","<p> If the kids in the park you chose like the equipment, they will be very happy! </p><div style='float: center;'><img src='images/check.png' width = '200' height = '200'></img>","","0","instructions","","","","","","","","","","","","","",""
"learning-instructions","14","95764","0.0-8.0-0.0-0.6","1608","1","2","""event"",""trial"",""time""
""fullscreenenter"",""1"",""3381""
","
","
","""event"",""trial"",""time""
""fullscreenenter"",""1"",""3381""
","
","","","","","","1493.699999988079","<p> But, if the kids in the park you chose do not like the equipment, they will be sad. </p><div style='float: center;'><img src='images/x.png' width = '200' height = '200'></img>","","0","instructions","","","","","","","","","","","","","",""
"learning-instructions","15","105639","0.0-8.0-0.0-0.7","1608","1","2","""event"",""trial"",""time""
""fullscreenenter"",""1"",""3381""
","
","
","""event"",""trial"",""time""
""fullscreenenter"",""1"",""3381""
","
","","","","","","3444","<p> Importantly, the kids in each park like some pieces of sports equipment more than others. </p>","","0","instructions","","","","","","","","","","","","","",""
"learning-instructions","16","112365","0.0-8.0-0.0-0.8","1608","1","2","""event"",""trial"",""time""
""fullscreenenter"",""1"",""3381""
","
","
","""event"",""trial"",""time""
""fullscreenenter"",""1"",""3381""
","
","","","","","","676.8000000119209","<p> If you choose the best park for each piece of equipment, the kids there will usually be happy. </p>","","0","instructions","","","","","","","","","","","","","",""
"learning-instructions","17","119544","0.0-8.0-0.0-0.9","1608","1","2","""event"",""trial"",""time""
""fullscreenenter"",""1"",""3381""
","
","
","""event"",""trial"",""time""
""fullscreenenter"",""1"",""3381""
","
","","","","","","537.5","<p> However, even if you choose the best park for the equipment, the kids may sometimes be sad. </p>","","0","instructions","","","","","","","","","","","","","",""
"learning-instructions","18","127478","0.0-8.0-0.0-0.10","1608","1","2","""event"",""trial"",""time""
""fullscreenenter"",""1"",""3381""
","
","
","""event"",""trial"",""time""
""fullscreenenter"",""1"",""3381""
","
","","","","","","706.6000000238419","<p> Similarly, even if you choose the <i>wrong</i> park for the equipment, the kids may still be happy sometimes.","","0","instructions","","","","","","","","","","","","","",""
"learning-instructions","19","133084","0.0-8.0-0.0-0.11","1608","1","2","""event"",""trial"",""time""
""fullscreenenter"",""1"",""3381""
","
","
","""event"",""trial"",""time""
""fullscreenenter"",""1"",""3381""
","
","","","","","","552.5","<p> For example, the best park for this soccer ball is this one.<div style='float: center;'><img src='images/i1.png' width = '500' height = '268'></img>","","0","instructions","","","","","","","","","","","","","",""
"learning-instructions","20","139183","0.0-8.0-0.0-0.12","1608","1","2","""event"",""trial"",""time""
""fullscreenenter"",""1"",""3381""
","
","
","""event"",""trial"",""time""
""fullscreenenter"",""1"",""3381""
","
","","","","","","812.4000000059605","<p> Let's see what happens if you choose this park for the soccer ball five times.","","0","instructions","","","","","","","","","","","","","",""
"learning-instructions","21","146375","0.0-8.0-0.0-0.13","1608","1","2","""event"",""trial"",""time""
""fullscreenenter"",""1"",""3381""
","
","
","""event"",""trial"",""time""
""fullscreenenter"",""1"",""3381""
","
","","","","","","5026.800000011921","<p> The kids are happy.<div style='float: left;'><img src='images/i2.png' width = '640' height = '360'></img>","","0","instructions","","","","","","","","","","","","","",""
"learning-instructions","22","149135","0.0-8.0-0.0-0.14","1608","1","2","""event"",""trial"",""time""
""fullscreenenter"",""1"",""3381""
","
","
","""event"",""trial"",""time""
""fullscreenenter"",""1"",""3381""
","
","","","","","","591.7999999821186","<p> The kids are happy.<div style='float: left;'><img src='images/i3.png' width = '640' height = '360'></img>","","0","instructions","","","","","","","","","","","","","",""
"learning-instructions","23","151799","0.0-8.0-0.0-0.15","1608","1","2","""event"",""trial"",""time""
""fullscreenenter"",""1"",""3381""
","
","
","""event"",""trial"",""time""
""fullscreenenter"",""1"",""3381""
","
","","","","","","498.69999998807907","<p> The kids are happy.<div style='float: left;'><img src='images/i4.png' width = '640' height = '360'></img>","","0","instructions","","","","","","","","","","","","","",""
"learning-instructions","24","154561","0.0-8.0-0.0-0.16","1608","1","2","""event"",""trial"",""time""
""fullscreenenter"",""1"",""3381""
","
","
","""event"",""trial"",""time""
""fullscreenenter"",""1"",""3381""
","
","","","","","","561.8000000119209","<p> The kids are sad.<div style='float: left;'><img src='images/i5.png' width = '640' height = '360'></img>","","0","instructions","","","","","","","","","","","","","",""
"learning-instructions","25","157393","0.0-8.0-0.0-0.17","1608","1","2","""event"",""trial"",""time""
""fullscreenenter"",""1"",""3381""
","
","
","""event"",""trial"",""time""
""fullscreenenter"",""1"",""3381""
","
","","","","","","668.7000000178814","<p> The kids are happy.<div style='float: left;'><img src='images/i6.png' width = '640' height = '360'></img>","","0","instructions","","","","","","","","","","","","","",""
"learning-instructions","26","165396","0.0-8.0-0.0-0.18","1608","1","2","""event"",""trial"",""time""
""fullscreenenter"",""1"",""3381""
","
","
","""event"",""trial"",""time""
""fullscreenenter"",""1"",""3381""
","
","","","","","","736.0999999940395","<p> As you can see, selecting that park for the soccer ball made the kids happy most of the time, but not all the time.","","0","instructions","","","","","","","","","","","","","",""
"learning-instructions","27","171914","0.0-8.0-0.0-0.19","1608","1","2","""event"",""trial"",""time""
""fullscreenenter"",""1"",""3381""
","
","
","""event"",""trial"",""time""
""fullscreenenter"",""1"",""3381""
","
","","","","","","512.3000000119209","<p> Now let's see what happens if you choose a DIFFERENT park for the soccer ball 5 times.","","0","instructions","","","","","","","","","","","","","",""
"learning-instructions","28","174945","0.0-8.0-0.0-0.20","1608","1","2","""event"",""trial"",""time""
""fullscreenenter"",""1"",""3381""
","
","
","""event"",""trial"",""time""
""fullscreenenter"",""1"",""3381""
","
","","","","","","827.9000000059605","<p> The kids are sad.<div style='float: left;'><img src='images/i7.png' width = '640' height = '360'></img>","","0","instructions","","","","","","","","","","","","","",""
"learning-instructions","29","177598","0.0-8.0-0.0-0.21","1608","1","2","""event"",""trial"",""time""
""fullscreenenter"",""1"",""3381""
","
","
","""event"",""trial"",""time""
""fullscreenenter"",""1"",""3381""
","
","","","","","","450.40000000596046","<p> The kids are sad.<div style='float: left;'><img src='images/i8.png' width = '640' height = '360'></img>","","0","instructions","","","","","","","","","","","","","",""
"learning-instructions","30","180276","0.0-8.0-0.0-0.22","1608","1","2","""event"",""trial"",""time""
""fullscreenenter"",""1"",""3381""
","
","
","""event"",""trial"",""time""
""fullscreenenter"",""1"",""3381""
","
","","","","","","511.89999997615814","<p> The kids are happy.<div style='float: left;'><img src='images/i9.png' width = '640' height = '360'></img>","","0","instructions","","","","","","","","","","","","","",""
"learning-instructions","31","182974","0.0-8.0-0.0-0.23","1608","1","2","""event"",""trial"",""time""
""fullscreenenter"",""1"",""3381""
","
","
","""event"",""trial"",""time""
""fullscreenenter"",""1"",""3381""
","
","","","","","","492.89999997615814","<p> The kids are sad.<div style='float: left;'><img src='images/i10.png' width = '640' height = '360'></img>","","0","instructions","","","","","","","","","","","","","",""
"learning-instructions","32","187392","0.0-8.0-0.0-0.24","1608","1","2","""event"",""trial"",""time""
""fullscreenenter"",""1"",""3381""
","
","
","""event"",""trial"",""time""
""fullscreenenter"",""1"",""3381""
","
","","","","","","2213.899999976158","<p> The kids are sad.<div style='float: left;'><img src='images/i11.png' width = '640' height = '360'></img>","","0","instructions","","","","","","","","","","","","","",""
"learning-instructions","33","196911","0.0-8.0-0.0-0.25","1608","1","2","""event"",""trial"",""time""
""fullscreenenter"",""1"",""3381""
","
","
","""event"",""trial"",""time""
""fullscreenenter"",""1"",""3381""
","
","","","","","","1396.5","<p> As you can see, selecting the wrong park for the soccer ball made the kids sad most of the time, but not all the time.","","0","instructions","","","","","","","","","","","","","",""
"learning-instructions","34","207215","0.0-8.0-0.0-0.26","1608","1","2","""event"",""trial"",""time""
""fullscreenenter"",""1"",""3381""
","
","
","""event"",""trial"",""time""
""fullscreenenter"",""1"",""3381""
","
","","","","","","1178.7999999821186","<p> The different pieces of equipment belong in different parks. You need to try to learn which is the best park for each piece of equipment.","","0","instructions","","","","","","","","","","","","","",""
"learning-instructions","35","224484","0.0-8.0-0.0-0.27","1608","1","2","""event"",""trial"",""time""
""fullscreenenter"",""1"",""3381""
","
","
","""event"",""trial"",""time""
""fullscreenenter"",""1"",""3381""
","
","","","","","","878.9000000059605","<p> Try to choose the best park for each piece of equipment, because you will <b> WIN </b> 1 point for each time you make the kids happy and <b>LOSE</b> 1 point for each time you make them sad. </p><p> Remember, if you make the best choice, you will win 1 point most of the time, but not all the time. </p>","","0","instructions","","","","","","","","","","","","","",""
"learning-instructions","36","231091","0.0-8.0-0.0-0.28","1608","1","2","""event"",""trial"",""time""
""fullscreenenter"",""1"",""3381""
","
","
","""event"",""trial"",""time""
""fullscreenenter"",""1"",""3381""
","
","","","","","","1128.8999999761581","<p> This is just a practice round, but in the real game, your bonus payment will depend on your total number of points.","","0","instructions","","","","","","","","","","","","","",""
"learning-instructions","37","242235","0.0-8.0-0.0-0.29","1608","1","2","""event"",""trial"",""time""
""fullscreenenter"",""1"",""3381""
","
","
","""event"",""trial"",""time""
""fullscreenenter"",""1"",""3381""
","
","","","","","","822.4000000059605","<p> The position where each park appears will change throughout the game. </p><p> The position where the park appears <i> does not </i> influence how likely the kids are to be happy or sad. </p>","","0","instructions","","","","","","","","","","","","","",""
"learning-instructions","38","252527","0.0-8.0-0.0-0.30","1608","1","2","""event"",""trial"",""time""
""fullscreenenter"",""1"",""3381""
","
","
","""event"",""trial"",""time""
""fullscreenenter"",""1"",""3381""
","
","","","","","","510.7999999821186","<p> You will have 4 seconds to make each choice. Try to respond before time runs out! </p><p> You will lose 1 point each time you do not make a response. </p>","","0","instructions","","","","","","","","","","","","","",""
"learning-instructions","39","260096","0.0-8.0-0.0-0.31","1608","1","2","""event"",""trial"",""time""
""fullscreenenter"",""1"",""3381""
","
","
","""event"",""trial"",""time""
""fullscreenenter"",""1"",""3381""
","
","","","","","","782","<p> Remember, you should use the 1, 2, and 3 keys to select the park for each piece of equipment. </p><br><div class=""choice-instructions-grid""> <div class=""choice-option""><img src=""images/park1.png"" class=""choice-option-img"" stage=""instructions"" position=""0"" ><div class=""choice-option-text""> Press ""1."" </div></div><div class=""choice-option""><img src=""images/park2.png"" class=""choice-option-img"" stage=""instructions"" position=""1"" ><div class=""choice-option-text""> Press ""2."" </div></div><div class=""choice-option""><img src=""images/park3.png"" class=""choice-option-img"" stage=""instructions"" position=""2"" ><div class=""choice-option-text""> Press ""3."" </div></div></div>","","0","instructions","","","","","","","","","","","","","",""
"html-button-response","40","261849","0.0-8.0-1.0","1608","1","2","""event"",""trial"",""time""
""fullscreenenter"",""1"",""3381""
","
","
","""event"",""trial"",""time""
""fullscreenenter"",""1"",""3381""
","
","","","","","","1646.9000000059605","<p> Ready to practice? </p>","0","","","","","","","","","","","","","","","",""
"html-keyboard-response","41","262458","0.0-8.0-2.0-0.0","1608","1","2","""event"",""trial"",""time""
""fullscreenenter"",""1"",""3381""
","
","
","""event"",""trial"",""time""
""fullscreenenter"",""1"",""3381""
","
","","","","","","null","<div style=""font-size:60px;"">+</div>","null","","fixation","","","","","","","","","","","","","",""
"learning-trial","42","266468","0.0-8.0-2.0-1.0","1608","1","2","""event"",""trial"",""time""
""fullscreenenter"",""1"",""3381""
","
","
","""event"",""trial"",""time""
""fullscreenenter"",""1"",""3381""
","
","","","","","","1479.5999999940395","images/ball2.png","","","practice","images/park3.png","images/park1.png","images/park2.png","[2,0,1]","1","2","2","images/park1.png","-1","practice","","","",""
"html-keyboard-response","43","266969","0.0-8.0-2.0-0.1","1608","1","2","""event"",""trial"",""time""
""fullscreenenter"",""1"",""3381""
","
","
","""event"",""trial"",""time""
""fullscreenenter"",""1"",""3381""
","
","","","","","","null","<div style=""font-size:60px;"">+</div>","null","","fixation","","","","","","","","","","","","","",""
"learning-trial","44","270974","0.0-8.0-2.0-1.1","1608","1","2","""event"",""trial"",""time""
""fullscreenenter"",""1"",""3381""
","
","
","""event"",""trial"",""time""
""fullscreenenter"",""1"",""3381""
","
","","","","","","2258.600000023842","images/racket4.png","","","practice","images/park2.png","images/park3.png","images/park1.png","[1,2,0]","0","2","3","images/park1.png","1","practice","","","",""
"html-keyboard-response","45","271479","0.0-8.0-2.0-0.2","1608","1","2","""event"",""trial"",""time""
""fullscreenenter"",""1"",""3381""
","
","
","""event"",""trial"",""time""
""fullscreenenter"",""1"",""3381""
","
","","","","","","null","<div style=""font-size:60px;"">+</div>","null","","fixation","","","","","","","","","","","","","",""
"learning-trial","46","275485","0.0-8.0-2.0-1.2","1608","1","2","""event"",""trial"",""time""
""fullscreenenter"",""1"",""3381""
","
","
","""event"",""trial"",""time""
""fullscreenenter"",""1"",""3381""
","
","","","","","","1389.0999999940395","images/racket2.png","","","practice","images/park3.png","images/park2.png","images/park1.png","[2,1,0]","0","2","3","images/park1.png","1","practice","","","",""
"html-keyboard-response","47","275988","0.0-8.0-2.0-0.3","1608","1","2","""event"",""trial"",""time""
""fullscreenenter"",""1"",""3381""
","
","
","""event"",""trial"",""time""
""fullscreenenter"",""1"",""3381""
","
","","","","","","null","<div style=""font-size:60px;"">+</div>","null","","fixation","","","","","","","","","","","","","",""
"learning-trial","48","279995","0.0-8.0-2.0-1.3","1608","1","2","""event"",""trial"",""time""
""fullscreenenter"",""1"",""3381""
","
","
","""event"",""trial"",""time""
""fullscreenenter"",""1"",""3381""
","
","","","","","","1995.9000000059605","images/ball4.png","","","practice","images/park2.png","images/park3.png","images/park1.png","[1,2,0]","2","1","3","images/park1.png","-1","practice","","","",""
"html-keyboard-response","49","280500","0.0-8.0-2.0-0.4","1608","1","2","""event"",""trial"",""time""
""fullscreenenter"",""1"",""3381""
","
","
","""event"",""trial"",""time""
""fullscreenenter"",""1"",""3381""
","
","","","","","","null","<div style=""font-size:60px;"">+</div>","null","","fixation","","","","","","","","","","","","","",""
"learning-trial","50","284506","0.0-8.0-2.0-1.4","1608","1","2","""event"",""trial"",""time""
""fullscreenenter"",""1"",""3381""
","
","
","""event"",""trial"",""time""
""fullscreenenter"",""1"",""3381""
","
","","","","","","1734.800000011921","images/racket1.png","","","practice","images/park1.png","images/park2.png","images/park3.png","[0,1,2]","2","2","2","images/park2.png","-1","practice","","","",""
"html-keyboard-response","51","285010","0.0-8.0-2.0-0.5","1608","1","2","""event"",""trial"",""time""
""fullscreenenter"",""1"",""3381""
","
","
","""event"",""trial"",""time""
""fullscreenenter"",""1"",""3381""
","
","","","","","","null","<div style=""font-size:60px;"">+</div>","null","","fixation","","","","","","","","","","","","","",""
"learning-trial","52","289017","0.0-8.0-2.0-1.5","1608","1","2","""event"",""trial"",""time""
""fullscreenenter"",""1"",""3381""
","
","
","""event"",""trial"",""time""
""fullscreenenter"",""1"",""3381""
","
","","","","","","1284.9000000059605","images/ball2.png","","","practice","images/park3.png","images/park2.png","images/park1.png","[2,1,0]","1","1","3","images/park1.png","-1","practice","","","",""
"html-keyboard-response","53","289522","0.0-8.0-2.0-0.6","1608","1","2","""event"",""trial"",""time""
""fullscreenenter"",""1"",""3381""
","
","
","""event"",""trial"",""time""
""fullscreenenter"",""1"",""3381""
","
","","","","","","null","<div style=""font-size:60px;"">+</div>","null","","fixation","","","","","","","","","","","","","",""
"learning-trial","54","293527","0.0-8.0-2.0-1.6","1608","1","2","""event"",""trial"",""time""
""fullscreenenter"",""1"",""3381""
","
","
","""event"",""trial"",""time""
""fullscreenenter"",""1"",""3381""
","
","","","","","","1800.300000011921","images/racket3.png","","","practice","images/park2.png","images/park3.png","images/park1.png","[1,2,0]","1","0","1","images/park2.png","1","practice","","","",""
"html-keyboard-response","55","294032","0.0-8.0-2.0-0.7","1608","1","2","""event"",""trial"",""time""
""fullscreenenter"",""1"",""3381""
","
","
","""event"",""trial"",""time""
""fullscreenenter"",""1"",""3381""
","
","","","","","","null","<div style=""font-size:60px;"">+</div>","null","","fixation","","","","","","","","","","","","","",""
"learning-trial","56","298040","0.0-8.0-2.0-1.7","1608","1","2","""event"",""trial"",""time""
""fullscreenenter"",""1"",""3381""
","
","
","""event"",""trial"",""time""
""fullscreenenter"",""1"",""3381""
","
","","","","","","1080.5","images/racket3.png","","","practice","images/park1.png","images/park2.png","images/park3.png","[0,1,2]","1","1","1","images/park1.png","-1","practice","","","",""
"html-keyboard-response","57","298546","0.0-8.0-2.0-0.8","1608","1","2","""event"",""trial"",""time""
""fullscreenenter"",""1"",""3381""
","
","
","""event"",""trial"",""time""
""fullscreenenter"",""1"",""3381""
","
","","","","","","null","<div style=""font-size:60px;"">+</div>","null","","fixation","","","","","","","","","","","","","",""
"learning-trial","58","302554","0.0-8.0-2.0-1.8","1608","1","2","""event"",""trial"",""time""
""fullscreenenter"",""1"",""3381""
","
","
","""event"",""trial"",""time""
""fullscreenenter"",""1"",""3381""
","
","","","","","","1152.300000011921","images/racket4.png","","","practice","images/park3.png","images/park1.png","images/park2.png","[2,0,1]","0","1","3","images/park2.png","1","practice","","","",""
"html-keyboard-response","59","303059","0.0-8.0-2.0-0.9","1608","1","2","""event"",""trial"",""time""
""fullscreenenter"",""1"",""3381""
","
","
","""event"",""trial"",""time""
""fullscreenenter"",""1"",""3381""
","
","","","","","","null","<div style=""font-size:60px;"">+</div>","null","","fixation","","","","","","","","","","","","","",""
"learning-trial","60","307066","0.0-8.0-2.0-1.9","1608","1","2","""event"",""trial"",""time""
""fullscreenenter"",""1"",""3381""
","
","
","""event"",""trial"",""time""
""fullscreenenter"",""1"",""3381""
","
","","","","","","1767","images/ball4.png","","","practice","images/park3.png","images/park2.png","images/park1.png","[2,1,0]","2","0","2","images/park2.png","-1","practice","","","",""
"html-keyboard-response","61","307570","0.0-8.0-2.0-0.10","1608","1","2","""event"",""trial"",""time""
""fullscreenenter"",""1"",""3381""
","
","
","""event"",""trial"",""time""
""fullscreenenter"",""1"",""3381""
","
","","","","","","null","<div style=""font-size:60px;"">+</div>","null","","fixation","","","","","","","","","","","","","",""
"learning-trial","62","311575","0.0-8.0-2.0-1.10","1608","1","2","""event"",""trial"",""time""
""fullscreenenter"",""1"",""3381""
","
","
","""event"",""trial"",""time""
""fullscreenenter"",""1"",""3381""
","
","","","","","","1799","images/racket1.png","","","practice","images/park3.png","images/park1.png","images/park2.png","[2,0,1]","2","0","3","images/park2.png","-1","practice","","","",""
"html-keyboard-response","63","312078","0.0-8.0-2.0-0.11","1608","1","2","""event"",""trial"",""time""
""fullscreenenter"",""1"",""3381""
","
","
","""event"",""trial"",""time""
""fullscreenenter"",""1"",""3381""
","
","","","","","","null","<div style=""font-size:60px;"">+</div>","null","","fixation","","","","","","","","","","","","","",""
"learning-trial","64","316082","0.0-8.0-2.0-1.11","1608","1","2","""event"",""trial"",""time""
""fullscreenenter"",""1"",""3381""
","
","
","""event"",""trial"",""time""
""fullscreenenter"",""1"",""3381""
","
","","","","","","1743.5999999940395","images/racket2.png","","","practice","images/park3.png","images/park2.png","images/park1.png","[2,1,0]","0","2","1","images/park3.png","-1","practice","","","",""
"html-button-response","65","318330","0.0-8.0-3.0","1608","1","2","""event"",""trial"",""time""
""fullscreenenter"",""1"",""3381""
","
","
","""event"",""trial"",""time""
""fullscreenenter"",""1"",""3381""
","
","","","","","","2242","<p> You earned -4 points in the practice round! </p>","0","","break","","","","","","","","","","","","","",""
"learning-instructions","66","331080","0.0-8.0-4.0-0.0","1608","1","2","""event"",""trial"",""time""
""fullscreenenter"",""1"",""3381""
","
","
","""event"",""trial"",""time""
""fullscreenenter"",""1"",""3381""
","
","","","","","","4440.199999988079","<p> It's almost time to start the real game. </p><p> Before you start, we're going to ask you a few questions about how the game works. </p>","","0","instructions","","","","","","","","","","","","","",""
"preload","67","332905","0.0-8.0-5.0","1608","1","2","""event"",""trial"",""time""
""fullscreenenter"",""1"",""3381""
","
","
","""event"",""trial"",""time""
""fullscreenenter"",""1"",""3381""
","
","true","false","[]","[]","[]","","","","","","","","","","","","","","","","","","",""
"comp-q","68","339468","0.0-8.0-6.0-0.0","1608","1","2","""event"",""trial"",""time""
""fullscreenenter"",""1"",""3381""
","
","
","""event"",""trial"",""time""
""fullscreenenter"",""1"",""3381""
","
","","","","","","1107.7999999821186","<p> <b> True or False? </b> </p><p> If you choose the best option, you will always earn 1 point. </p>","","1","comp_question","","","","","","","","","","","true","","",""
"comp-q","69","346309","0.0-8.0-6.0-1.0","1608","1","2","""event"",""trial"",""time""
""fullscreenenter"",""1"",""3381""
","
","
","""event"",""trial"",""time""
""fullscreenenter"",""1"",""3381""
","
","","","","","","1183.5999999940395","<p><b> That's right! </b> Sometimes you will lose 1 point, even if you choose the best option. </p>","","0","comp_answer","","","","","","","","","","","","","",""
"comp-q","70","352238","0.0-8.0-6.0-0.1","1608","1","2","""event"",""trial"",""time""
""fullscreenenter"",""1"",""3381""
","
","
","""event"",""trial"",""time""
""fullscreenenter"",""1"",""3381""
","
","","","","","","1298.699999988079","<p> <b> True or False? </b> </p><p> You will have as much time as you want to make each choice. </p>","","1","comp_question","","","","","","","","","","","true","","",""
"comp-q","71","358315","0.0-8.0-6.0-1.1","1608","1","2","""event"",""trial"",""time""
""fullscreenenter"",""1"",""3381""
","
","
","""event"",""trial"",""time""
""fullscreenenter"",""1"",""3381""
","
","","","","","","1258.300000011921","<p> <b> That's right! </b> You will only have 4 seconds to make each choice. </p>","","0","comp_answer","","","","","","","","","","","","","",""
"comp-q","72","366480","0.0-8.0-6.0-0.2","1608","1","2","""event"",""trial"",""time""
""fullscreenenter"",""1"",""3381""
","
","
","""event"",""trial"",""time""
""fullscreenenter"",""1"",""3381""
","
","","","","","","2015.300000011921","<p> <b> True or False? </b> </p><p> You should use the '1', '2', and '3' keys to make your choices. </p>","","0","comp_question","","","","","","","","","","","true","","",""
"comp-q","73","372226","0.0-8.0-6.0-1.2","1608","1","2","""event"",""trial"",""time""
""fullscreenenter"",""1"",""3381""
","
","
","""event"",""trial"",""time""
""fullscreenenter"",""1"",""3381""
","
","","","","","","897.1999999880791","<p> <b> That's right! </b> You should use the '1', '2', and '3' keys to make each choice. </p>","","0","comp_answer","","","","","","","","","","","","","",""
"learning-instructions","74","382026","0.0-8.0-7.0-0.0","1608","1","2","""event"",""trial"",""time""
""fullscreenenter"",""1"",""3381""
","
","
","""event"",""trial"",""time""
""fullscreenenter"",""1"",""3381""
","
","","","","","","1314.9000000059605","<p> It's now time to start the real game. </p>Do your best, because the points you earn in the next rounds will influence your bonus payment. </p>","","0","instructions","","","","","","","","","","","","","",""
"preload","75","384306","0.0-9.0-0.0","1608","1","2","""event"",""trial"",""time""
""fullscreenenter"",""1"",""3381""
","
","
","""event"",""trial"",""time""
""fullscreenenter"",""1"",""3381""
","
","true","false","[]","[]","[]","","","","","","","","","","","","","","","","","","",""
"learning-instructions","76","393464","0.0-9.0-1.0-0.0","1608","1","2","""event"",""trial"",""time""
""fullscreenenter"",""1"",""3381""
","
","
","""event"",""trial"",""time""
""fullscreenenter"",""1"",""3381""
","
","","","","","","1499.199999988079","<p> Your goal in this round is to return farm animals to the barns where they live. </p><p>  Different animals wandered away from different barns! </p></div>","","0","instructions","","","","","","","","","","","","","",""
"learning-instructions","77","404188","0.0-9.0-1.0-0.1","1608","1","2","""event"",""trial"",""time""
""fullscreenenter"",""1"",""3381""
","
","
","""event"",""trial"",""time""
""fullscreenenter"",""1"",""3381""
","
","","","","","","2094.9000000059605","<p> On each turn, you will see a picture of a farm animal and three different barns.  </p><p> You need to select the barn where each animal lives.  </p>","","0","instructions","","","","","","","","","","","","","",""
"learning-instructions","78","412183","0.0-9.0-1.0-0.2","1608","1","2","""event"",""trial"",""time""
""fullscreenenter"",""1"",""3381""
","
","
","""event"",""trial"",""time""
""fullscreenenter"",""1"",""3381""
","
","","","","","","813","<p> You can select the barn on the left by pressing 1, the barn in the middle by pressing 2, and the barn on the right by pressing 3. </p><br><div class=""choice-instructions-grid""> <div class=""choice-option""><img src=""images/animals_choice1.png"" class=""choice-option-img"" stage=""instructions"" position=""0"" ><div class=""choice-option-text""> Press ""1."" </div></div><div class=""choice-option""><img src=""images/animals_choice2.png"" class=""choice-option-img"" stage=""instructions"" position=""1"" ><div class=""choice-option-text""> Press ""2."" </div></div><div class=""choice-option""><img src=""images/animals_choice3.png"" class=""choice-option-img"" stage=""instructions"" position=""2"" ><div class=""choice-option-text""> Press ""3."" </div></div></div>","","0","instructions","","","","","","","","","","","","","",""
"learning-instructions","79","425029","0.0-9.0-1.0-0.3","1608","1","2","""event"",""trial"",""time""
""fullscreenenter"",""1"",""3381""
","
","
","""event"",""trial"",""time""
""fullscreenenter"",""1"",""3381""
","
","","","","","","7709.0999999940395","<p> If you return the farm animal to the correct barn, it will usually be happy! </p><div style='float: center;'><img src='images/check.png' width = '200' height = '200'></img>","","0","instructions","","","","","","","","","","","","","",""
"learning-instructions","80","431880","0.0-9.0-1.0-0.4","1608","1","2","""event"",""trial"",""time""
""fullscreenenter"",""1"",""3381""
","
","
","""event"",""trial"",""time""
""fullscreenenter"",""1"",""3381""
","
","","","","","","1556.9000000059605","<p> But, if you return the farm animal to the wrong barn, it will usually be sad. </p><div style='float: center;'><img src='images/x.png' width = '200' height = '200'></img>","","0","instructions","","","","","","","","","","","","","",""
"learning-instructions","81","443004","0.0-9.0-1.0-0.5","1608","1","2","""event"",""trial"",""time""
""fullscreenenter"",""1"",""3381""
","
","
","""event"",""trial"",""time""
""fullscreenenter"",""1"",""3381""
","
","","","","","","568.7000000178814","<p> Importantly, each farm animal belongs in one of the barns. </p><p> If you choose the correct barn, the farm animal will return home safely and will be more likely to be happy! </p>","","0","instructions","","","","","","","","","","","","","",""
"learning-instructions","82","454509","0.0-9.0-1.0-0.6","1608","1","2","""event"",""trial"",""time""
""fullscreenenter"",""1"",""3381""
","
","
","""event"",""trial"",""time""
""fullscreenenter"",""1"",""3381""
","
","","","","","","984.5999999940395","<p> However, even if you choose the correct barn for the farm animal, it might still feel sad. </p><p> Similarly, even if you choose the <i>wrong</i> barn, it might still feel happy.","","0","instructions","","","","","","","","","","","","","",""
"learning-instructions","83","468860","0.0-9.0-1.0-0.7","1608","1","2","""event"",""trial"",""time""
""fullscreenenter"",""1"",""3381""
","
","
","""event"",""trial"",""time""
""fullscreenenter"",""1"",""3381""
","
","","","","","","653.1000000238419","<p> Try to choose the correct barn for each farm animal, because you will <b> WIN </b> 1 point for each farm animal you make happy and <b>LOSE</b> 1 point for each farm animal you make sad. </p><p> Your bonus payment will depend on your total number of points.","","0","instructions","","","","","","","","","","","","","",""
"learning-instructions","84","477442","0.0-9.0-1.0-0.8","1608","1","2","""event"",""trial"",""time""
""fullscreenenter"",""1"",""3381""
","
","
","""event"",""trial"",""time""
""fullscreenenter"",""1"",""3381""
","
","","","","","","472.19999998807907","<p> The position of each barn will change throughout the round. </p><p> The barn's position <i> does not </i> influence how likely it is to be the correct one. </p>","","0","instructions","","","","","","","","","","","","","",""
"learning-instructions","85","487394","0.0-9.0-1.0-0.9","1608","1","2","""event"",""trial"",""time""
""fullscreenenter"",""1"",""3381""
","
","
","""event"",""trial"",""time""
""fullscreenenter"",""1"",""3381""
","
","","","","","","658.9000000059605","<p> You will have 4 seconds to make each choice. Try to respond before time runs out! </p><p> You will lose 1 point each time you do not make a response. </p>","","0","instructions","","","","","","","","","","","","","",""
"html-keyboard-response","86","487999","0.0-9.0-2.0-0.0","1608","1","2","""event"",""trial"",""time""
""fullscreenenter"",""1"",""3381""
","
","
","""event"",""trial"",""time""
""fullscreenenter"",""1"",""3381""
","
","","","","","","null","<div style=""font-size:60px;"">+</div>","null","","fixation","","","","","","","","","","","","","",""
"learning-trial","87","492006","0.0-9.0-2.0-1.0","1608","1","2","""event"",""trial"",""time""
""fullscreenenter"",""1"",""3381""
","
","
","""event"",""trial"",""time""
""fullscreenenter"",""1"",""3381""
","
","","","","","","1341","images/goat1.png","","","learning","images/animals_choice2.png","images/animals_choice1.png","images/animals_choice3.png","[1,0,2]","0","1","3","images/animals_choice3.png","-1","animals","","goat","1","0"
"html-keyboard-response","88","492511","0.0-9.0-2.0-0.1","1608","1","2","""event"",""trial"",""time""
""fullscreenenter"",""1"",""3381""
","
","
","""event"",""trial"",""time""
""fullscreenenter"",""1"",""3381""
","
","","","","","","null","<div style=""font-size:60px;"">+</div>","null","","fixation","","","","","","","","","","","","","",""
"learning-trial","89","496516","0.0-9.0-2.0-1.1","1608","1","2","""event"",""trial"",""time""
""fullscreenenter"",""1"",""3381""
","
","
","""event"",""trial"",""time""
""fullscreenenter"",""1"",""3381""
","
","","","","","","1437.300000011921","images/goat4.png","","","learning","images/animals_choice2.png","images/animals_choice3.png","images/animals_choice1.png","[1,2,0]","0","2","1","images/animals_choice2.png","-1","animals","","goat","1","0"
"html-keyboard-response","90","497021","0.0-9.0-2.0-0.2","1608","1","2","""event"",""trial"",""time""
""fullscreenenter"",""1"",""3381""
","
","
","""event"",""trial"",""time""
""fullscreenenter"",""1"",""3381""
","
","","","","","","null","<div style=""font-size:60px;"">+</div>","null","","fixation","","","","","","","","","","","","","",""
"learning-trial","91","501027","0.0-9.0-2.0-1.2","1608","1","2","""event"",""trial"",""time""
""fullscreenenter"",""1"",""3381""
","
","
","""event"",""trial"",""time""
""fullscreenenter"",""1"",""3381""
","
","","","","","","1110.9000000059605","images/cow1.png","","","learning","images/animals_choice3.png","images/animals_choice1.png","images/animals_choice2.png","[2,0,1]","1","2","2","images/animals_choice1.png","-1","animals","","cow","1","0"
"html-keyboard-response","92","501531","0.0-9.0-2.0-0.3","1608","1","2","""event"",""trial"",""time""
""fullscreenenter"",""1"",""3381""
","
","
","""event"",""trial"",""time""
""fullscreenenter"",""1"",""3381""
","
","","","","","","null","<div style=""font-size:60px;"">+</div>","null","","fixation","","","","","","","","","","","","","",""
"learning-trial","93","505538","0.0-9.0-2.0-1.3","1608","1","2","""event"",""trial"",""time""
""fullscreenenter"",""1"",""3381""
","
","
","""event"",""trial"",""time""
""fullscreenenter"",""1"",""3381""
","
","","","","","","1172.5","images/horse2.png","","","learning","images/animals_choice1.png","images/animals_choice3.png","images/animals_choice2.png","[0,2,1]","2","1","1","images/animals_choice1.png","-1","animals","","horse","1","0"
"html-keyboard-response","94","506040","0.0-9.0-2.0-0.4","1608","1","2","""event"",""trial"",""time""
""fullscreenenter"",""1"",""3381""
","
","
","""event"",""trial"",""time""
""fullscreenenter"",""1"",""3381""
","
","","","","","","null","<div style=""font-size:60px;"">+</div>","null","","fixation","","","","","","","","","","","","","",""
"learning-trial","95","510044","0.0-9.0-2.0-1.4","1608","1","2","""event"",""trial"",""time""
""fullscreenenter"",""1"",""3381""
","
","
","""event"",""trial"",""time""
""fullscreenenter"",""1"",""3381""
","
","","","","","","1377.5","images/horse4.png","","","learning","images/animals_choice1.png","images/animals_choice2.png","images/animals_choice3.png","[0,1,2]","2","2","1","images/animals_choice1.png","-1","animals","","horse","1","0"
"html-keyboard-response","96","510549","0.0-9.0-2.0-0.5","1608","1","2","""event"",""trial"",""time""
""fullscreenenter"",""1"",""3381""
","
","
","""event"",""trial"",""time""
""fullscreenenter"",""1"",""3381""
","
","","","","","","null","<div style=""font-size:60px;"">+</div>","null","","fixation","","","","","","","","","","","","","",""
"learning-trial","97","514553","0.0-9.0-2.0-1.5","1608","1","2","""event"",""trial"",""time""
""fullscreenenter"",""1"",""3381""
","
","
","""event"",""trial"",""time""
""fullscreenenter"",""1"",""3381""
","
","","","","","","1198.5999999940395","images/cow2.png","","","learning","images/animals_choice1.png","images/animals_choice3.png","images/animals_choice2.png","[0,2,1]","1","2","3","images/animals_choice2.png","1","animals","","cow","1","0"
"html-keyboard-response","98","515058","0.0-9.0-2.0-0.6","1608","1","2","""event"",""trial"",""time""
""fullscreenenter"",""1"",""3381""
","
","
","""event"",""trial"",""time""
""fullscreenenter"",""1"",""3381""
","
","","","","","","null","<div style=""font-size:60px;"">+</div>","null","","fixation","","","","","","","","","","","","","",""
"learning-trial","99","519064","0.0-9.0-2.0-1.6","1608","1","2","""event"",""trial"",""time""
""fullscreenenter"",""1"",""3381""
","
","
","""event"",""trial"",""time""
""fullscreenenter"",""1"",""3381""
","
","","","","","","1336.300000011921","images/goat1.png","","","learning","images/animals_choice3.png","images/animals_choice2.png","images/animals_choice1.png","[2,1,0]","0","2","3","images/animals_choice1.png","1","animals","","goat","1","0"
"html-keyboard-response","100","519569","0.0-9.0-2.0-0.7","1608","1","2","""event"",""trial"",""time""
""fullscreenenter"",""1"",""3381""
","
","
","""event"",""trial"",""time""
""fullscreenenter"",""1"",""3381""
","
","","","","","","null","<div style=""font-size:60px;"">+</div>","null","","fixation","","","","","","","","","","","","","",""
"learning-trial","101","523574","0.0-9.0-2.0-1.7","1608","1","2","""event"",""trial"",""time""
""fullscreenenter"",""1"",""3381""
","
","
","""event"",""trial"",""time""
""fullscreenenter"",""1"",""3381""
","
","","","","","","1393","images/goat4.png","","","learning","images/animals_choice1.png","images/animals_choice2.png","images/animals_choice3.png","[0,1,2]","0","0","2","images/animals_choice2.png","-1","animals","","goat","1","0"
"html-keyboard-response","102","524077","0.0-9.0-2.0-0.8","1608","1","2","""event"",""trial"",""time""
""fullscreenenter"",""1"",""3381""
","
","
","""event"",""trial"",""time""
""fullscreenenter"",""1"",""3381""
","
","","","","","","null","<div style=""font-size:60px;"">+</div>","null","","fixation","","","","","","","","","","","","","",""
"learning-trial","103","528081","0.0-9.0-2.0-1.8","1608","1","2","""event"",""trial"",""time""
""fullscreenenter"",""1"",""3381""
","
","
","""event"",""trial"",""time""
""fullscreenenter"",""1"",""3381""
","
","","","","","","1118.199999988079","images/horse3.png","","","learning","images/animals_choice2.png","images/animals_choice3.png","images/animals_choice1.png","[1,2,0]","2","1","1","images/animals_choice2.png","-1","animals","","horse","1","0"
"html-keyboard-response","104","528584","0.0-9.0-2.0-0.9","1608","1","2","""event"",""trial"",""time""
""fullscreenenter"",""1"",""3381""
","
","
","""event"",""trial"",""time""
""fullscreenenter"",""1"",""3381""
","
","","","","","","null","<div style=""font-size:60px;"">+</div>","null","","fixation","","","","","","","","","","","","","",""
"learning-trial","105","532590","0.0-9.0-2.0-1.9","1608","1","2","""event"",""trial"",""time""
""fullscreenenter"",""1"",""3381""
","
","
","""event"",""trial"",""time""
""fullscreenenter"",""1"",""3381""
","
","","","","","","1174.5999999940395","images/cow1.png","","","learning","images/animals_choice3.png","images/animals_choice1.png","images/animals_choice2.png","[2,0,1]","1","2","2","images/animals_choice1.png","-1","animals","","cow","1","0"
"html-keyboard-response","106","533094","0.0-9.0-2.0-0.10","1608","1","2","""event"",""trial"",""time""
""fullscreenenter"",""1"",""3381""
","
","
","""event"",""trial"",""time""
""fullscreenenter"",""1"",""3381""
","
","","","","","","null","<div style=""font-size:60px;"">+</div>","null","","fixation","","","","","","","","","","","","","",""
"learning-trial","107","537100","0.0-9.0-2.0-1.10","1608","1","2","""event"",""trial"",""time""
""fullscreenenter"",""1"",""3381""
","
","
","""event"",""trial"",""time""
""fullscreenenter"",""1"",""3381""
","
","","","","","","538.5","images/goat1.png","","","learning","images/animals_choice2.png","images/animals_choice1.png","images/animals_choice3.png","[1,0,2]","0","1","3","images/animals_choice3.png","-1","animals","","goat","1","0"
"html-keyboard-response","108","537606","0.0-9.0-2.0-0.11","1608","1","2","""event"",""trial"",""time""
""fullscreenenter"",""1"",""3381""
","
","
","""event"",""trial"",""time""
""fullscreenenter"",""1"",""3381""
","
","","","","","","null","<div style=""font-size:60px;"">+</div>","null","","fixation","","","","","","","","","","","","","",""
"learning-trial","109","541612","0.0-9.0-2.0-1.11","1608","1","2","""event"",""trial"",""time""
""fullscreenenter"",""1"",""3381""
","
","
","""event"",""trial"",""time""
""fullscreenenter"",""1"",""3381""
","
","","","","","","831.3000000119209","images/horse2.png","","","learning","images/animals_choice2.png","images/animals_choice3.png","images/animals_choice1.png","[1,2,0]","2","1","1","images/animals_choice2.png","-1","animals","","horse","1","0"
"html-keyboard-response","110","542116","0.0-9.0-2.0-0.12","1608","1","2","""event"",""trial"",""time""
""fullscreenenter"",""1"",""3381""
","
","
","""event"",""trial"",""time""
""fullscreenenter"",""1"",""3381""
","
","","","","","","null","<div style=""font-size:60px;"">+</div>","null","","fixation","","","","","","","","","","","","","",""
"learning-trial","111","546124","0.0-9.0-2.0-1.12","1608","1","2","""event"",""trial"",""time""
""fullscreenenter"",""1"",""3381""
","
","
","""event"",""trial"",""time""
""fullscreenenter"",""1"",""3381""
","
","","","","","","1345.4000000059605","images/horse3.png","","","learning","images/animals_choice3.png","images/animals_choice1.png","images/animals_choice2.png","[2,0,1]","2","0","1","images/animals_choice3.png","1","animals","","horse","1","0"
"html-keyboard-response","112","546627","0.0-9.0-2.0-0.13","1608","1","2","""event"",""trial"",""time""
""fullscreenenter"",""1"",""3381""
","
","
","""event"",""trial"",""time""
""fullscreenenter"",""1"",""3381""
","
","","","","","","null","<div style=""font-size:60px;"">+</div>","null","","fixation","","","","","","","","","","","","","",""
"learning-trial","113","550631","0.0-9.0-2.0-1.13","1608","1","2","""event"",""trial"",""time""
""fullscreenenter"",""1"",""3381""
","
","
","""event"",""trial"",""time""
""fullscreenenter"",""1"",""3381""
","
","","","","","","1549.7000000178814","images/horse2.png","","","learning","images/animals_choice3.png","images/animals_choice1.png","images/animals_choice2.png","[2,0,1]","2","0","1","images/animals_choice3.png","-1","animals","","horse","1","0"
"html-keyboard-response","114","551137","0.0-9.0-2.0-0.14","1608","1","2","""event"",""trial"",""time""
""fullscreenenter"",""1"",""3381""
","
","
","""event"",""trial"",""time""
""fullscreenenter"",""1"",""3381""
","
","","","","","","null","<div style=""font-size:60px;"">+</div>","null","","fixation","","","","","","","","","","","","","",""
"learning-trial","115","555143","0.0-9.0-2.0-1.14","1608","1","2","""event"",""trial"",""time""
""fullscreenenter"",""1"",""3381""
","
","
","""event"",""trial"",""time""
""fullscreenenter"",""1"",""3381""
","
","","","","","","2046.0999999940395","images/goat4.png","","","learning","images/animals_choice3.png","images/animals_choice2.png","images/animals_choice1.png","[2,1,0]","0","2","2","images/animals_choice2.png","1","animals","","goat","1","0"
"html-keyboard-response","116","555648","0.0-9.0-2.0-0.15","1608","1","2","""event"",""trial"",""time""
""fullscreenenter"",""1"",""3381""
","
","
","""event"",""trial"",""time""
""fullscreenenter"",""1"",""3381""
","
","","","","","","null","<div style=""font-size:60px;"">+</div>","null","","fixation","","","","","","","","","","","","","",""
"learning-trial","117","559655","0.0-9.0-2.0-1.15","1608","1","2","""event"",""trial"",""time""
""fullscreenenter"",""1"",""3381""
","
","
","""event"",""trial"",""time""
""fullscreenenter"",""1"",""3381""
","
","","","","","","1342.0999999940395","images/goat5.png","","","learning","images/animals_choice1.png","images/animals_choice3.png","images/animals_choice2.png","[0,2,1]","0","0","3","images/animals_choice2.png","-1","animals","","goat","1","0"
"html-keyboard-response","118","560158","0.0-9.0-2.0-0.16","1608","1","2","""event"",""trial"",""time""
""fullscreenenter"",""1"",""3381""
","
","
","""event"",""trial"",""time""
""fullscreenenter"",""1"",""3381""
","
","","","","","","null","<div style=""font-size:60px;"">+</div>","null","","fixation","","","","","","","","","","","","","",""
"learning-trial","119","564164","0.0-9.0-2.0-1.16","1608","1","2","""event"",""trial"",""time""
""fullscreenenter"",""1"",""3381""
","
","
","""event"",""trial"",""time""
""fullscreenenter"",""1"",""3381""
","
","","","","","","1829.9000000059605","images/cow5.png","","","learning","images/animals_choice2.png","images/animals_choice3.png","images/animals_choice1.png","[1,2,0]","1","0","2","images/animals_choice3.png","-1","animals","","cow","1","0"
"html-keyboard-response","120","564668","0.0-9.0-2.0-0.17","1608","1","2","""event"",""trial"",""time""
""fullscreenenter"",""1"",""3381""
","
","
","""event"",""trial"",""time""
""fullscreenenter"",""1"",""3381""
","
","","","","","","null","<div style=""font-size:60px;"">+</div>","null","","fixation","","","","","","","","","","","","","",""
"learning-trial","121","568674","0.0-9.0-2.0-1.17","1608","1","2","""event"",""trial"",""time""
""fullscreenenter"",""1"",""3381""
","
","
","""event"",""trial"",""time""
""fullscreenenter"",""1"",""3381""
","
","","","","","","2028.6000000238419","images/goat5.png","","","learning","images/animals_choice2.png","images/animals_choice3.png","images/animals_choice1.png","[1,2,0]","0","2","1","images/animals_choice2.png","-1","animals","","goat","1","0"
"html-keyboard-response","122","569181","0.0-9.0-2.0-0.18","1608","1","2","""event"",""trial"",""time""
""fullscreenenter"",""1"",""3381""
","
","
","""event"",""trial"",""time""
""fullscreenenter"",""1"",""3381""
","
","","","","","","null","<div style=""font-size:60px;"">+</div>","null","","fixation","","","","","","","","","","","","","",""
"learning-trial","123","573185","0.0-9.0-2.0-1.18","1608","1","2","""event"",""trial"",""time""
""fullscreenenter"",""1"",""3381""
","
","
","""event"",""trial"",""time""
""fullscreenenter"",""1"",""3381""
","
","","","","","","1586.4000000059605","images/cow5.png","","","learning","images/animals_choice1.png","images/animals_choice2.png","images/animals_choice3.png","[0,1,2]","1","1","1","images/animals_choice1.png","-1","animals","","cow","1","0"
"html-keyboard-response","124","573690","0.0-9.0-2.0-0.19","1608","1","2","""event"",""trial"",""time""
""fullscreenenter"",""1"",""3381""
","
","
","""event"",""trial"",""time""
""fullscreenenter"",""1"",""3381""
","
","","","","","","null","<div style=""font-size:60px;"">+</div>","null","","fixation","","","","","","","","","","","","","",""
"learning-trial","125","577696","0.0-9.0-2.0-1.19","1608","1","2","""event"",""trial"",""time""
""fullscreenenter"",""1"",""3381""
","
","
","""event"",""trial"",""time""
""fullscreenenter"",""1"",""3381""
","
","","","","","","1691.9000000059605","images/goat1.png","","","learning","images/animals_choice1.png","images/animals_choice2.png","images/animals_choice3.png","[0,1,2]","0","0","3","images/animals_choice3.png","-1","animals","","goat","1","0"
"html-keyboard-response","126","578201","0.0-9.0-2.0-0.20","1608","1","2","""event"",""trial"",""time""
""fullscreenenter"",""1"",""3381""
","
","
","""event"",""trial"",""time""
""fullscreenenter"",""1"",""3381""
","
","","","","","","null","<div style=""font-size:60px;"">+</div>","null","","fixation","","","","","","","","","","","","","",""
"learning-trial","127","582207","0.0-9.0-2.0-1.20","1608","1","2","""event"",""trial"",""time""
""fullscreenenter"",""1"",""3381""
","
","
","""event"",""trial"",""time""
""fullscreenenter"",""1"",""3381""
","
","","","","","","1781.5999999940395","images/horse2.png","","","learning","images/animals_choice1.png","images/animals_choice3.png","images/animals_choice2.png","[0,2,1]","2","1","1","images/animals_choice1.png","1","animals","","horse","1","0"
"html-keyboard-response","128","582712","0.0-9.0-2.0-0.21","1608","1","2","""event"",""trial"",""time""
""fullscreenenter"",""1"",""3381""
","
","
","""event"",""trial"",""time""
""fullscreenenter"",""1"",""3381""
","
","","","","","","null","<div style=""font-size:60px;"">+</div>","null","","fixation","","","","","","","","","","","","","",""
"learning-trial","129","586717","0.0-9.0-2.0-1.21","1608","1","2","""event"",""trial"",""time""
""fullscreenenter"",""1"",""3381""
","
","
","""event"",""trial"",""time""
""fullscreenenter"",""1"",""3381""
","
","","","","","","1542.699999988079","images/cow2.png","","","learning","images/animals_choice1.png","images/animals_choice3.png","images/animals_choice2.png","[0,2,1]","1","2","2","images/animals_choice3.png","-1","animals","","cow","1","0"
"html-keyboard-response","130","587222","0.0-9.0-2.0-0.22","1608","1","2","""event"",""trial"",""time""
""fullscreenenter"",""1"",""3381""
","
","
","""event"",""trial"",""time""
""fullscreenenter"",""1"",""3381""
","
","","","","","","null","<div style=""font-size:60px;"">+</div>","null","","fixation","","","","","","","","","","","","","",""
"learning-trial","131","591229","0.0-9.0-2.0-1.22","1608","1","2","""event"",""trial"",""time""
""fullscreenenter"",""1"",""3381""
","
","
","""event"",""trial"",""time""
""fullscreenenter"",""1"",""3381""
","
","","","","","","1909.5","images/goat5.png","","","learning","images/animals_choice2.png","images/animals_choice1.png","images/animals_choice3.png","[1,0,2]","0","1","3","images/animals_choice3.png","-1","animals","","goat","1","0"
"html-keyboard-response","132","591733","0.0-9.0-2.0-0.23","1608","1","2","""event"",""trial"",""time""
""fullscreenenter"",""1"",""3381""
","
","
","""event"",""trial"",""time""
""fullscreenenter"",""1"",""3381""
","
","","","","","","null","<div style=""font-size:60px;"">+</div>","null","","fixation","","","","","","","","","","","","","",""
"learning-trial","133","595738","0.0-9.0-2.0-1.23","1608","1","2","""event"",""trial"",""time""
""fullscreenenter"",""1"",""3381""
","
","
","""event"",""trial"",""time""
""fullscreenenter"",""1"",""3381""
","
","","","","","","1586.800000011921","images/horse4.png","","","learning","images/animals_choice1.png","images/animals_choice2.png","images/animals_choice3.png","[0,1,2]","2","2","1","images/animals_choice1.png","-1","animals","","horse","1","0"
"html-keyboard-response","134","596243","0.0-9.0-2.0-0.24","1608","1","2","""event"",""trial"",""time""
""fullscreenenter"",""1"",""3381""
","
","
","""event"",""trial"",""time""
""fullscreenenter"",""1"",""3381""
","
","","","","","","null","<div style=""font-size:60px;"">+</div>","null","","fixation","","","","","","","","","","","","","",""
"learning-trial","135","600249","0.0-9.0-2.0-1.24","1608","1","2","""event"",""trial"",""time""
""fullscreenenter"",""1"",""3381""
","
","
","""event"",""trial"",""time""
""fullscreenenter"",""1"",""3381""
","
","","","","","","1478.9000000059605","images/horse2.png","","","learning","images/animals_choice3.png","images/animals_choice1.png","images/animals_choice2.png","[2,0,1]","2","0","2","images/animals_choice1.png","-1","animals","","horse","1","0"
"html-keyboard-response","136","600754","0.0-9.0-2.0-0.25","1608","1","2","""event"",""trial"",""time""
""fullscreenenter"",""1"",""3381""
","
","
","""event"",""trial"",""time""
""fullscreenenter"",""1"",""3381""
","
","","","","","","null","<div style=""font-size:60px;"">+</div>","null","","fixation","","","","","","","","","","","","","",""
"learning-trial","137","604761","0.0-9.0-2.0-1.25","1608","1","2","""event"",""trial"",""time""
""fullscreenenter"",""1"",""3381""
","
","
","""event"",""trial"",""time""
""fullscreenenter"",""1"",""3381""
","
","","","","","","1521","images/cow5.png","","","learning","images/animals_choice1.png","images/animals_choice2.png","images/animals_choice3.png","[0,1,2]","1","1","1","images/animals_choice1.png","-1","animals","","cow","1","0"
"html-keyboard-response","138","605264","0.0-9.0-2.0-0.26","1608","1","2","""event"",""trial"",""time""
""fullscreenenter"",""1"",""3381""
","
","
","""event"",""trial"",""time""
""fullscreenenter"",""1"",""3381""
","
","","","","","","null","<div style=""font-size:60px;"">+</div>","null","","fixation","","","","","","","","","","","","","",""
"learning-trial","139","609273","0.0-9.0-2.0-1.26","1608","1","2","""event"",""trial"",""time""
""fullscreenenter"",""1"",""3381""
","
","
","""event"",""trial"",""time""
""fullscreenenter"",""1"",""3381""
","
","","","","","","1044.699999988079","images/goat4.png","","","learning","images/animals_choice3.png","images/animals_choice1.png","images/animals_choice2.png","[2,0,1]","0","1","1","images/animals_choice3.png","-1","animals","","goat","1","0"
"html-keyboard-response","140","609775","0.0-9.0-2.0-0.27","1608","1","2","""event"",""trial"",""time""
""fullscreenenter"",""1"",""3381""
","
","
","""event"",""trial"",""time""
""fullscreenenter"",""1"",""3381""
","
","","","","","","null","<div style=""font-size:60px;"">+</div>","null","","fixation","","","","","","","","","","","","","",""
"learning-trial","141","613781","0.0-9.0-2.0-1.27","1608","1","2","""event"",""trial"",""time""
""fullscreenenter"",""1"",""3381""
","
","
","""event"",""trial"",""time""
""fullscreenenter"",""1"",""3381""
","
","","","","","","2227.0999999940395","images/cow5.png","","","learning","images/animals_choice3.png","images/animals_choice2.png","images/animals_choice1.png","[2,1,0]","1","1","2","images/animals_choice2.png","1","animals","","cow","1","0"
"html-keyboard-response","142","614286","0.0-9.0-2.0-0.28","1608","1","2","""event"",""trial"",""time""
""fullscreenenter"",""1"",""3381""
","
","
","""event"",""trial"",""time""
""fullscreenenter"",""1"",""3381""
","
","","","","","","null","<div style=""font-size:60px;"">+</div>","null","","fixation","","","","","","","","","","","","","",""
"learning-trial","143","618291","0.0-9.0-2.0-1.28","1608","1","2","""event"",""trial"",""time""
""fullscreenenter"",""1"",""3381""
","
","
","""event"",""trial"",""time""
""fullscreenenter"",""1"",""3381""
","
","","","","","","1089.1000000238419","images/cow5.png","","","learning","images/animals_choice1.png","images/animals_choice2.png","images/animals_choice3.png","[0,1,2]","1","1","2","images/animals_choice2.png","-1","animals","","cow","1","0"
"html-keyboard-response","144","618796","0.0-9.0-2.0-0.29","1608","1","2","""event"",""trial"",""time""
""fullscreenenter"",""1"",""3381""
","
","
","""event"",""trial"",""time""
""fullscreenenter"",""1"",""3381""
","
","","","","","","null","<div style=""font-size:60px;"">+</div>","null","","fixation","","","","","","","","","","","","","",""
"learning-trial","145","622804","0.0-9.0-2.0-1.29","1608","1","2","""event"",""trial"",""time""
""fullscreenenter"",""1"",""3381""
","
","
","""event"",""trial"",""time""
""fullscreenenter"",""1"",""3381""
","
","","","","","","521.8999999761581","images/goat1.png","","","learning","images/animals_choice1.png","images/animals_choice2.png","images/animals_choice3.png","[0,1,2]","0","0","1","images/animals_choice1.png","1","animals","","goat","1","0"
"html-keyboard-response","146","623307","0.0-9.0-2.0-0.30","1608","1","2","""event"",""trial"",""time""
""fullscreenenter"",""1"",""3381""
","
","
","""event"",""trial"",""time""
""fullscreenenter"",""1"",""3381""
","
","","","","","","null","<div style=""font-size:60px;"">+</div>","null","","fixation","","","","","","","","","","","","","",""
"learning-trial","147","627314","0.0-9.0-2.0-1.30","1608","1","2","""event"",""trial"",""time""
""fullscreenenter"",""1"",""3381""
","
","
","""event"",""trial"",""time""
""fullscreenenter"",""1"",""3381""
","
","","","","","","1173.9000000059605","images/goat1.png","","","learning","images/animals_choice1.png","images/animals_choice2.png","images/animals_choice3.png","[0,1,2]","0","0","1","images/animals_choice1.png","1","animals","","goat","1","0"
"html-keyboard-response","148","627817","0.0-9.0-2.0-0.31","1608","1","2","""event"",""trial"",""time""
""fullscreenenter"",""1"",""3381""
","
","
","""event"",""trial"",""time""
""fullscreenenter"",""1"",""3381""
","
","","","","","","null","<div style=""font-size:60px;"">+</div>","null","","fixation","","","","","","","","","","","","","",""
"learning-trial","149","631823","0.0-9.0-2.0-1.31","1608","1","2","""event"",""trial"",""time""
""fullscreenenter"",""1"",""3381""
","
","
","""event"",""trial"",""time""
""fullscreenenter"",""1"",""3381""
","
","","","","","","2145.7999999821186","images/horse3.png","","","learning","images/animals_choice3.png","images/animals_choice1.png","images/animals_choice2.png","[2,0,1]","2","0","1","images/animals_choice3.png","1","animals","","horse","1","0"
"html-keyboard-response","150","632329","0.0-9.0-2.0-0.32","1608","1","2","""event"",""trial"",""time""
""fullscreenenter"",""1"",""3381""
","
","
","""event"",""trial"",""time""
""fullscreenenter"",""1"",""3381""
","
","","","","","","null","<div style=""font-size:60px;"">+</div>","null","","fixation","","","","","","","","","","","","","",""
"learning-trial","151","636335","0.0-9.0-2.0-1.32","1608","1","2","""event"",""trial"",""time""
""fullscreenenter"",""1"",""3381""
","
","
","""event"",""trial"",""time""
""fullscreenenter"",""1"",""3381""
","
","","","","","","2991.4000000059605","images/horse3.png","","","learning","images/animals_choice2.png","images/animals_choice3.png","images/animals_choice1.png","[1,2,0]","2","1","2","images/animals_choice3.png","1","animals","","horse","1","0"
"html-keyboard-response","152","636839","0.0-9.0-2.0-0.33","1608","1","2","""event"",""trial"",""time""
""fullscreenenter"",""1"",""3381""
","
","
","""event"",""trial"",""time""
""fullscreenenter"",""1"",""3381""
","
","","","","","","null","<div style=""font-size:60px;"">+</div>","null","","fixation","","","","","","","","","","","","","",""
"learning-trial","153","640844","0.0-9.0-2.0-1.33","1608","1","2","""event"",""trial"",""time""
""fullscreenenter"",""1"",""3381""
","
","
","""event"",""trial"",""time""
""fullscreenenter"",""1"",""3381""
","
","","","","","","2578.5999999940395","images/cow1.png","","","learning","images/animals_choice1.png","images/animals_choice2.png","images/animals_choice3.png","[0,1,2]","1","1","2","images/animals_choice2.png","-1","animals","","cow","1","0"
"html-keyboard-response","154","641350","0.0-9.0-2.0-0.34","1608","1","2","""event"",""trial"",""time""
""fullscreenenter"",""1"",""3381""
","
","
","""event"",""trial"",""time""
""fullscreenenter"",""1"",""3381""
","
","","","","","","null","<div style=""font-size:60px;"">+</div>","null","","fixation","","","","","","","","","","","","","",""
"learning-trial","155","645355","0.0-9.0-2.0-1.34","1608","1","2","""event"",""trial"",""time""
""fullscreenenter"",""1"",""3381""
","
","
","""event"",""trial"",""time""
""fullscreenenter"",""1"",""3381""
","
","","","","","","1663.7000000178814","images/goat5.png","","","learning","images/animals_choice1.png","images/animals_choice3.png","images/animals_choice2.png","[0,2,1]","0","0","1","images/animals_choice1.png","1","animals","","goat","1","0"
"html-keyboard-response","156","645860","0.0-9.0-2.0-0.35","1608","1","2","""event"",""trial"",""time""
""fullscreenenter"",""1"",""3381""
","
","
","""event"",""trial"",""time""
""fullscreenenter"",""1"",""3381""
","
","","","","","","null","<div style=""font-size:60px;"">+</div>","null","","fixation","","","","","","","","","","","","","",""
"learning-trial","157","649866","0.0-9.0-2.0-1.35","1608","1","2","""event"",""trial"",""time""
""fullscreenenter"",""1"",""3381""
","
","
","""event"",""trial"",""time""
""fullscreenenter"",""1"",""3381""
","
","","","","","","2428.2000000178814","images/horse3.png","","","learning","images/animals_choice2.png","images/animals_choice1.png","images/animals_choice3.png","[1,0,2]","2","2","3","images/animals_choice3.png","1","animals","","horse","1","0"
"html-keyboard-response","158","650370","0.0-9.0-2.0-0.36","1608","1","2","""event"",""trial"",""time""
""fullscreenenter"",""1"",""3381""
","
","
","""event"",""trial"",""time""
""fullscreenenter"",""1"",""3381""
","
","","","","","","null","<div style=""font-size:60px;"">+</div>","null","","fixation","","","","","","","","","","","","","",""
"learning-trial","159","654378","0.0-9.0-2.0-1.36","1608","1","2","""event"",""trial"",""time""
""fullscreenenter"",""1"",""3381""
","
","
","""event"",""trial"",""time""
""fullscreenenter"",""1"",""3381""
","
","","","","","","1793.5","images/cow5.png","","","learning","images/animals_choice1.png","images/animals_choice2.png","images/animals_choice3.png","[0,1,2]","1","1","2","images/animals_choice2.png","1","animals","","cow","1","0"
"html-keyboard-response","160","654881","0.0-9.0-2.0-0.37","1608","1","2","""event"",""trial"",""time""
""fullscreenenter"",""1"",""3381""
","
","
","""event"",""trial"",""time""
""fullscreenenter"",""1"",""3381""
","
","","","","","","null","<div style=""font-size:60px;"">+</div>","null","","fixation","","","","","","","","","","","","","",""
"learning-trial","161","658888","0.0-9.0-2.0-1.37","1608","1","2","""event"",""trial"",""time""
""fullscreenenter"",""1"",""3381""
","
","
","""event"",""trial"",""time""
""fullscreenenter"",""1"",""3381""
","
","","","","","","1308.5999999940395","images/goat5.png","","","learning","images/animals_choice2.png","images/animals_choice3.png","images/animals_choice1.png","[1,2,0]","0","2","3","images/animals_choice1.png","1","animals","","goat","1","0"
"html-keyboard-response","162","659391","0.0-9.0-2.0-0.38","1608","1","2","""event"",""trial"",""time""
""fullscreenenter"",""1"",""3381""
","
","
","""event"",""trial"",""time""
""fullscreenenter"",""1"",""3381""
","
","","","","","","null","<div style=""font-size:60px;"">+</div>","null","","fixation","","","","","","","","","","","","","",""
"learning-trial","163","663397","0.0-9.0-2.0-1.38","1608","1","2","""event"",""trial"",""time""
""fullscreenenter"",""1"",""3381""
","
","
","""event"",""trial"",""time""
""fullscreenenter"",""1"",""3381""
","
","","","","","","2125","images/goat4.png","","","learning","images/animals_choice3.png","images/animals_choice1.png","images/animals_choice2.png","[2,0,1]","0","1","2","images/animals_choice1.png","1","animals","","goat","1","0"
"html-keyboard-response","164","663903","0.0-9.0-2.0-0.39","1608","1","2","""event"",""trial"",""time""
""fullscreenenter"",""1"",""3381""
","
","
","""event"",""trial"",""time""
""fullscreenenter"",""1"",""3381""
","
","","","","","","null","<div style=""font-size:60px;"">+</div>","null","","fixation","","","","","","","","","","","","","",""
"learning-trial","165","667909","0.0-9.0-2.0-1.39","1608","1","2","""event"",""trial"",""time""
""fullscreenenter"",""1"",""3381""
","
","
","""event"",""trial"",""time""
""fullscreenenter"",""1"",""3381""
","
","","","","","","1150.0999999940395","images/goat5.png","","","learning","images/animals_choice2.png","images/animals_choice1.png","images/animals_choice3.png","[1,0,2]","0","1","2","images/animals_choice1.png","1","animals","","goat","1","0"
"html-keyboard-response","166","668413","0.0-9.0-2.0-0.40","1608","1","2","""event"",""trial"",""time""
""fullscreenenter"",""1"",""3381""
","
","
","""event"",""trial"",""time""
""fullscreenenter"",""1"",""3381""
","
","","","","","","null","<div style=""font-size:60px;"">+</div>","null","","fixation","","","","","","","","","","","","","",""
"learning-trial","167","672419","0.0-9.0-2.0-1.40","1608","1","2","""event"",""trial"",""time""
""fullscreenenter"",""1"",""3381""
","
","
","""event"",""trial"",""time""
""fullscreenenter"",""1"",""3381""
","
","","","","","","1022.8999999761581","images/cow2.png","","","learning","images/animals_choice2.png","images/animals_choice1.png","images/animals_choice3.png","[1,0,2]","1","0","1","images/animals_choice2.png","1","animals","","cow","1","0"
"html-keyboard-response","168","672924","0.0-9.0-2.0-0.41","1608","1","2","""event"",""trial"",""time""
""fullscreenenter"",""1"",""3381""
","
","
","""event"",""trial"",""time""
""fullscreenenter"",""1"",""3381""
","
","","","","","","null","<div style=""font-size:60px;"">+</div>","null","","fixation","","","","","","","","","","","","","",""
"learning-trial","169","676929","0.0-9.0-2.0-1.41","1608","1","2","""event"",""trial"",""time""
""fullscreenenter"",""1"",""3381""
","
","
","""event"",""trial"",""time""
""fullscreenenter"",""1"",""3381""
","
","","","","","","835.7000000178814","images/cow2.png","","","learning","images/animals_choice2.png","images/animals_choice1.png","images/animals_choice3.png","[1,0,2]","1","0","1","images/animals_choice2.png","1","animals","","cow","1","0"
"html-keyboard-response","170","677435","0.0-9.0-2.0-0.42","1608","1","2","""event"",""trial"",""time""
""fullscreenenter"",""1"",""3381""
","
","
","""event"",""trial"",""time""
""fullscreenenter"",""1"",""3381""
","
","","","","","","null","<div style=""font-size:60px;"">+</div>","null","","fixation","","","","","","","","","","","","","",""
"learning-trial","171","681440","0.0-9.0-2.0-1.42","1608","1","2","""event"",""trial"",""time""
""fullscreenenter"",""1"",""3381""
","
","
","""event"",""trial"",""time""
""fullscreenenter"",""1"",""3381""
","
","","","","","","1669.5","images/goat5.png","","","learning","images/animals_choice1.png","images/animals_choice2.png","images/animals_choice3.png","[0,1,2]","0","0","1","images/animals_choice1.png","1","animals","","goat","1","0"
"html-keyboard-response","172","681945","0.0-9.0-2.0-0.43","1608","1","2","""event"",""trial"",""time""
""fullscreenenter"",""1"",""3381""
","
","
","""event"",""trial"",""time""
""fullscreenenter"",""1"",""3381""
","
","","","","","","null","<div style=""font-size:60px;"">+</div>","null","","fixation","","","","","","","","","","","","","",""
"learning-trial","173","685952","0.0-9.0-2.0-1.43","1608","1","2","""event"",""trial"",""time""
""fullscreenenter"",""1"",""3381""
","
","
","""event"",""trial"",""time""
""fullscreenenter"",""1"",""3381""
","
","","","","","","963.7999999821186","images/cow5.png","","","learning","images/animals_choice2.png","images/animals_choice3.png","images/animals_choice1.png","[1,2,0]","1","0","1","images/animals_choice2.png","1","animals","","cow","1","0"
"html-keyboard-response","174","686459","0.0-9.0-2.0-0.44","1608","1","2","""event"",""trial"",""time""
""fullscreenenter"",""1"",""3381""
","
","
","""event"",""trial"",""time""
""fullscreenenter"",""1"",""3381""
","
","","","","","","null","<div style=""font-size:60px;"">+</div>","null","","fixation","","","","","","","","","","","","","",""
"learning-trial","175","690467","0.0-9.0-2.0-1.44","1608","1","2","""event"",""trial"",""time""
""fullscreenenter"",""1"",""3381""
","
","
","""event"",""trial"",""time""
""fullscreenenter"",""1"",""3381""
","
","","","","","","1342.4000000059605","images/goat1.png","","","learning","images/animals_choice1.png","images/animals_choice3.png","images/animals_choice2.png","[0,2,1]","0","0","1","images/animals_choice1.png","-1","animals","","goat","1","0"
"html-keyboard-response","176","690971","0.0-9.0-2.0-0.45","1608","1","2","""event"",""trial"",""time""
""fullscreenenter"",""1"",""3381""
","
","
","""event"",""trial"",""time""
""fullscreenenter"",""1"",""3381""
","
","","","","","","null","<div style=""font-size:60px;"">+</div>","null","","fixation","","","","","","","","","","","","","",""
"learning-trial","177","694978","0.0-9.0-2.0-1.45","1608","1","2","""event"",""trial"",""time""
""fullscreenenter"",""1"",""3381""
","
","
","""event"",""trial"",""time""
""fullscreenenter"",""1"",""3381""
","
","","","","","","1575.4000000059605","images/horse4.png","","","learning","images/animals_choice1.png","images/animals_choice3.png","images/animals_choice2.png","[0,2,1]","2","1","2","images/animals_choice3.png","1","animals","","horse","1","0"
"html-keyboard-response","178","695483","0.0-9.0-2.0-0.46","1608","1","2","""event"",""trial"",""time""
""fullscreenenter"",""1"",""3381""
","
","
","""event"",""trial"",""time""
""fullscreenenter"",""1"",""3381""
","
","","","","","","null","<div style=""font-size:60px;"">+</div>","null","","fixation","","","","","","","","","","","","","",""
"learning-trial","179","699488","0.0-9.0-2.0-1.46","1608","1","2","""event"",""trial"",""time""
""fullscreenenter"",""1"",""3381""
","
","
","""event"",""trial"",""time""
""fullscreenenter"",""1"",""3381""
","
","","","","","","1523.300000011921","images/cow2.png","","","learning","images/animals_choice2.png","images/animals_choice3.png","images/animals_choice1.png","[1,2,0]","1","0","1","images/animals_choice2.png","1","animals","","cow","1","0"
"html-keyboard-response","180","699993","0.0-9.0-2.0-0.47","1608","1","2","""event"",""trial"",""time""
""fullscreenenter"",""1"",""3381""
","
","
","""event"",""trial"",""time""
""fullscreenenter"",""1"",""3381""
","
","","","","","","null","<div style=""font-size:60px;"">+</div>","null","","fixation","","","","","","","","","","","","","",""
"learning-trial","181","703997","0.0-9.0-2.0-1.47","1608","1","2","""event"",""trial"",""time""
""fullscreenenter"",""1"",""3381""
","
","
","""event"",""trial"",""time""
""fullscreenenter"",""1"",""3381""
","
","","","","","","2147.0999999940395","images/horse4.png","","","learning","images/animals_choice2.png","images/animals_choice1.png","images/animals_choice3.png","[1,0,2]","2","2","3","images/animals_choice3.png","1","animals","","horse","1","0"
"html-keyboard-response","182","704502","0.0-9.0-2.0-0.48","1608","1","2","""event"",""trial"",""time""
""fullscreenenter"",""1"",""3381""
","
","
","""event"",""trial"",""time""
""fullscreenenter"",""1"",""3381""
","
","","","","","","null","<div style=""font-size:60px;"">+</div>","null","","fixation","","","","","","","","","","","","","",""
"learning-trial","183","708509","0.0-9.0-2.0-1.48","1608","1","2","""event"",""trial"",""time""
""fullscreenenter"",""1"",""3381""
","
","
","""event"",""trial"",""time""
""fullscreenenter"",""1"",""3381""
","
","","","","","","1304.5","images/cow2.png","","","learning","images/animals_choice1.png","images/animals_choice2.png","images/animals_choice3.png","[0,1,2]","1","1","2","images/animals_choice2.png","-1","animals","","cow","1","0"
"html-keyboard-response","184","709014","0.0-9.0-2.0-0.49","1608","1","2","""event"",""trial"",""time""
""fullscreenenter"",""1"",""3381""
","
","
","""event"",""trial"",""time""
""fullscreenenter"",""1"",""3381""
","
","","","","","","null","<div style=""font-size:60px;"">+</div>","null","","fixation","","","","","","","","","","","","","",""
"learning-trial","185","713020","0.0-9.0-2.0-1.49","1608","1","2","""event"",""trial"",""time""
""fullscreenenter"",""1"",""3381""
","
","
","""event"",""trial"",""time""
""fullscreenenter"",""1"",""3381""
","
","","","","","","1151.699999988079","images/horse3.png","","","learning","images/animals_choice1.png","images/animals_choice2.png","images/animals_choice3.png","[0,1,2]","2","2","1","images/animals_choice1.png","-1","animals","","horse","1","0"
"html-keyboard-response","186","713525","0.0-9.0-2.0-0.50","1608","1","2","""event"",""trial"",""time""
""fullscreenenter"",""1"",""3381""
","
","
","""event"",""trial"",""time""
""fullscreenenter"",""1"",""3381""
","
","","","","","","null","<div style=""font-size:60px;"">+</div>","null","","fixation","","","","","","","","","","","","","",""
"learning-trial","187","717532","0.0-9.0-2.0-1.50","1608","1","2","""event"",""trial"",""time""
""fullscreenenter"",""1"",""3381""
","
","
","""event"",""trial"",""time""
""fullscreenenter"",""1"",""3381""
","
","","","","","","1078.199999988079","images/goat4.png","","","learning","images/animals_choice3.png","images/animals_choice1.png","images/animals_choice2.png","[2,0,1]","0","1","2","images/animals_choice1.png","1","animals","","goat","1","0"
"html-keyboard-response","188","718036","0.0-9.0-2.0-0.51","1608","1","2","""event"",""trial"",""time""
""fullscreenenter"",""1"",""3381""
","
","
","""event"",""trial"",""time""
""fullscreenenter"",""1"",""3381""
","
","","","","","","null","<div style=""font-size:60px;"">+</div>","null","","fixation","","","","","","","","","","","","","",""
"learning-trial","189","722041","0.0-9.0-2.0-1.51","1608","1","2","""event"",""trial"",""time""
""fullscreenenter"",""1"",""3381""
","
","
","""event"",""trial"",""time""
""fullscreenenter"",""1"",""3381""
","
","","","","","","1482.800000011921","images/goat4.png","","","learning","images/animals_choice3.png","images/animals_choice2.png","images/animals_choice1.png","[2,1,0]","0","2","3","images/animals_choice1.png","1","animals","","goat","1","0"
"html-keyboard-response","190","722545","0.0-9.0-2.0-0.52","1608","1","2","""event"",""trial"",""time""
""fullscreenenter"",""1"",""3381""
","
","
","""event"",""trial"",""time""
""fullscreenenter"",""1"",""3381""
","
","","","","","","null","<div style=""font-size:60px;"">+</div>","null","","fixation","","","","","","","","","","","","","",""
"learning-trial","191","726552","0.0-9.0-2.0-1.52","1608","1","2","""event"",""trial"",""time""
""fullscreenenter"",""1"",""3381""
","
","
","""event"",""trial"",""time""
""fullscreenenter"",""1"",""3381""
","
","","","","","","2317.0999999940395","images/horse3.png","","","learning","images/animals_choice1.png","images/animals_choice3.png","images/animals_choice2.png","[0,2,1]","2","1","3","images/animals_choice2.png","-1","animals","","horse","1","0"
"html-keyboard-response","192","727057","0.0-9.0-2.0-0.53","1608","1","2","""event"",""trial"",""time""
""fullscreenenter"",""1"",""3381""
","
","
","""event"",""trial"",""time""
""fullscreenenter"",""1"",""3381""
","
","","","","","","null","<div style=""font-size:60px;"">+</div>","null","","fixation","","","","","","","","","","","","","",""
"learning-trial","193","731063","0.0-9.0-2.0-1.53","1608","1","2","""event"",""trial"",""time""
""fullscreenenter"",""1"",""3381""
","
","
","""event"",""trial"",""time""
""fullscreenenter"",""1"",""3381""
","
","","","","","","2257.300000011921","images/cow1.png","","","learning","images/animals_choice1.png","images/animals_choice3.png","images/animals_choice2.png","[0,2,1]","1","2","3","images/animals_choice2.png","1","animals","","cow","1","0"
"html-keyboard-response","194","731568","0.0-9.0-2.0-0.54","1608","1","2","""event"",""trial"",""time""
""fullscreenenter"",""1"",""3381""
","
","
","""event"",""trial"",""time""
""fullscreenenter"",""1"",""3381""
","
","","","","","","null","<div style=""font-size:60px;"">+</div>","null","","fixation","","","","","","","","","","","","","",""
"learning-trial","195","735575","0.0-9.0-2.0-1.54","1608","1","2","""event"",""trial"",""time""
""fullscreenenter"",""1"",""3381""
","
","
","""event"",""trial"",""time""
""fullscreenenter"",""1"",""3381""
","
","","","","","","1065.4000000059605","images/cow5.png","","","learning","images/animals_choice1.png","images/animals_choice2.png","images/animals_choice3.png","[0,1,2]","1","1","2","images/animals_choice2.png","-1","animals","","cow","1","0"
"html-keyboard-response","196","736078","0.0-9.0-2.0-0.55","1608","1","2","""event"",""trial"",""time""
""fullscreenenter"",""1"",""3381""
","
","
","""event"",""trial"",""time""
""fullscreenenter"",""1"",""3381""
","
","","","","","","null","<div style=""font-size:60px;"">+</div>","null","","fixation","","","","","","","","","","","","","",""
"learning-trial","197","740082","0.0-9.0-2.0-1.55","1608","1","2","""event"",""trial"",""time""
""fullscreenenter"",""1"",""3381""
","
","
","""event"",""trial"",""time""
""fullscreenenter"",""1"",""3381""
","
","","","","","","1895.2999999821186","images/horse2.png","","","learning","images/animals_choice2.png","images/animals_choice1.png","images/animals_choice3.png","[1,0,2]","2","2","3","images/animals_choice3.png","1","animals","","horse","1","0"
"html-keyboard-response","198","740589","0.0-9.0-2.0-0.56","1608","1","2","""event"",""trial"",""time""
""fullscreenenter"",""1"",""3381""
","
","
","""event"",""trial"",""time""
""fullscreenenter"",""1"",""3381""
","
","","","","","","null","<div style=""font-size:60px;"">+</div>","null","","fixation","","","","","","","","","","","","","",""
"learning-trial","199","744594","0.0-9.0-2.0-1.56","1608","1","2","""event"",""trial"",""time""
""fullscreenenter"",""1"",""3381""
","
","
","""event"",""trial"",""time""
""fullscreenenter"",""1"",""3381""
","
","","","","","","1267.199999988079","images/horse3.png","","","learning","images/animals_choice2.png","images/animals_choice1.png","images/animals_choice3.png","[1,0,2]","2","2","3","images/animals_choice3.png","1","animals","","horse","1","0"
"html-keyboard-response","200","745096","0.0-9.0-2.0-0.57","1608","1","2","""event"",""trial"",""time""
""fullscreenenter"",""1"",""3381""
","
","
","""event"",""trial"",""time""
""fullscreenenter"",""1"",""3381""
","
","","","","","","null","<div style=""font-size:60px;"">+</div>","null","","fixation","","","","","","","","","","","","","",""
"learning-trial","201","749101","0.0-9.0-2.0-1.57","1608","1","2","""event"",""trial"",""time""
""fullscreenenter"",""1"",""3381""
","
","
","""event"",""trial"",""time""
""fullscreenenter"",""1"",""3381""
","
","","","","","","1181.2999999821186","images/cow1.png","","","learning","images/animals_choice3.png","images/animals_choice1.png","images/animals_choice2.png","[2,0,1]","1","2","3","images/animals_choice2.png","1","animals","","cow","1","0"
"html-keyboard-response","202","749604","0.0-9.0-2.0-0.58","1608","1","2","""event"",""trial"",""time""
""fullscreenenter"",""1"",""3381""
","
","
","""event"",""trial"",""time""
""fullscreenenter"",""1"",""3381""
","
","","","","","","null","<div style=""font-size:60px;"">+</div>","null","","fixation","","","","","","","","","","","","","",""
"learning-trial","203","753610","0.0-9.0-2.0-1.58","1608","1","2","""event"",""trial"",""time""
""fullscreenenter"",""1"",""3381""
","
","
","""event"",""trial"",""time""
""fullscreenenter"",""1"",""3381""
","
","","","","","","1473.7999999821186","images/horse4.png","","","learning","images/animals_choice2.png","images/animals_choice3.png","images/animals_choice1.png","[1,2,0]","2","1","2","images/animals_choice3.png","1","animals","","horse","1","0"
"html-keyboard-response","204","754114","0.0-9.0-2.0-0.59","1608","1","2","""event"",""trial"",""time""
""fullscreenenter"",""1"",""3381""
","
","
","""event"",""trial"",""time""
""fullscreenenter"",""1"",""3381""
","
","","","","","","null","<div style=""font-size:60px;"">+</div>","null","","fixation","","","","","","","","","","","","","",""
"learning-trial","205","758121","0.0-9.0-2.0-1.59","1608","1","2","""event"",""trial"",""time""
""fullscreenenter"",""1"",""3381""
","
","
","""event"",""trial"",""time""
""fullscreenenter"",""1"",""3381""
","
","","","","","","1249.9000000059605","images/cow2.png","","","learning","images/animals_choice2.png","images/animals_choice3.png","images/animals_choice1.png","[1,2,0]","1","0","1","images/animals_choice2.png","1","animals","","cow","1","0"
"html-keyboard-response","206","758626","0.0-9.0-2.0-0.60","1608","1","2","""event"",""trial"",""time""
""fullscreenenter"",""1"",""3381""
","
","
","""event"",""trial"",""time""
""fullscreenenter"",""1"",""3381""
","
","","","","","","null","<div style=""font-size:60px;"">+</div>","null","","fixation","","","","","","","","","","","","","",""
"learning-trial","207","762632","0.0-9.0-2.0-1.60","1608","1","2","""event"",""trial"",""time""
""fullscreenenter"",""1"",""3381""
","
","
","""event"",""trial"",""time""
""fullscreenenter"",""1"",""3381""
","
","","","","","","1132.4000000059605","images/goat4.png","","","learning","images/animals_choice1.png","images/animals_choice3.png","images/animals_choice2.png","[0,2,1]","0","0","1","images/animals_choice1.png","1","animals","","goat","1","0"
"html-keyboard-response","208","763135","0.0-9.0-2.0-0.61","1608","1","2","""event"",""trial"",""time""
""fullscreenenter"",""1"",""3381""
","
","
","""event"",""trial"",""time""
""fullscreenenter"",""1"",""3381""
","
","","","","","","null","<div style=""font-size:60px;"">+</div>","null","","fixation","","","","","","","","","","","","","",""
"learning-trial","209","767141","0.0-9.0-2.0-1.61","1608","1","2","""event"",""trial"",""time""
""fullscreenenter"",""1"",""3381""
","
","
","""event"",""trial"",""time""
""fullscreenenter"",""1"",""3381""
","
","","","","","","1780.699999988079","images/horse4.png","","","learning","images/animals_choice1.png","images/animals_choice2.png","images/animals_choice3.png","[0,1,2]","2","2","3","images/animals_choice3.png","1","animals","","horse","1","0"
"html-keyboard-response","210","767647","0.0-9.0-2.0-0.62","1608","1","2","""event"",""trial"",""time""
""fullscreenenter"",""1"",""3381""
","
","
","""event"",""trial"",""time""
""fullscreenenter"",""1"",""3381""
","
","","","","","","null","<div style=""font-size:60px;"">+</div>","null","","fixation","","","","","","","","","","","","","",""
"learning-trial","211","771652","0.0-9.0-2.0-1.62","1608","1","2","""event"",""trial"",""time""
""fullscreenenter"",""1"",""3381""
","
","
","""event"",""trial"",""time""
""fullscreenenter"",""1"",""3381""
","
","","","","","","914.2999999821186","images/cow1.png","","","learning","images/animals_choice3.png","images/animals_choice1.png","images/animals_choice2.png","[2,0,1]","1","2","3","images/animals_choice2.png","1","animals","","cow","1","0"
"html-keyboard-response","212","772157","0.0-9.0-2.0-0.63","1608","1","2","""event"",""trial"",""time""
""fullscreenenter"",""1"",""3381""
","
","
","""event"",""trial"",""time""
""fullscreenenter"",""1"",""3381""
","
","","","","","","null","<div style=""font-size:60px;"">+</div>","null","","fixation","","","","","","","","","","","","","",""
"learning-trial","213","776162","0.0-9.0-2.0-1.63","1608","1","2","""event"",""trial"",""time""
""fullscreenenter"",""1"",""3381""
","
","
","""event"",""trial"",""time""
""fullscreenenter"",""1"",""3381""
","
","","","","","","1043.2999999821186","images/goat5.png","","","learning","images/animals_choice2.png","images/animals_choice3.png","images/animals_choice1.png","[1,2,0]","0","2","3","images/animals_choice1.png","1","animals","","goat","1","0"
"html-keyboard-response","214","776668","0.0-9.0-2.0-0.64","1608","1","2","""event"",""trial"",""time""
""fullscreenenter"",""1"",""3381""
","
","
","""event"",""trial"",""time""
""fullscreenenter"",""1"",""3381""
","
","","","","","","null","<div style=""font-size:60px;"">+</div>","null","","fixation","","","","","","","","","","","","","",""
"learning-trial","215","780675","0.0-9.0-2.0-1.64","1608","1","2","""event"",""trial"",""time""
""fullscreenenter"",""1"",""3381""
","
","
","""event"",""trial"",""time""
""fullscreenenter"",""1"",""3381""
","
","","","","","","1255.7999999821186","images/cow1.png","","","learning","images/animals_choice1.png","images/animals_choice3.png","images/animals_choice2.png","[0,2,1]","1","2","3","images/animals_choice2.png","1","animals","","cow","1","0"
"html-keyboard-response","216","781182","0.0-9.0-2.0-0.65","1608","1","2","""event"",""trial"",""time""
""fullscreenenter"",""1"",""3381""
","
","
","""event"",""trial"",""time""
""fullscreenenter"",""1"",""3381""
","
","","","","","","null","<div style=""font-size:60px;"">+</div>","null","","fixation","","","","","","","","","","","","","",""
"learning-trial","217","785190","0.0-9.0-2.0-1.65","1608","1","2","""event"",""trial"",""time""
""fullscreenenter"",""1"",""3381""
","
","
","""event"",""trial"",""time""
""fullscreenenter"",""1"",""3381""
","
","","","","","","1508.0999999940395","images/horse4.png","","","learning","images/animals_choice1.png","images/animals_choice3.png","images/animals_choice2.png","[0,2,1]","2","1","2","images/animals_choice3.png","1","animals","","horse","1","0"
"html-keyboard-response","218","785694","0.0-9.0-2.0-0.66","1608","1","2","""event"",""trial"",""time""
""fullscreenenter"",""1"",""3381""
","
","
","""event"",""trial"",""time""
""fullscreenenter"",""1"",""3381""
","
","","","","","","null","<div style=""font-size:60px;"">+</div>","null","","fixation","","","","","","","","","","","","","",""
"learning-trial","219","789700","0.0-9.0-2.0-1.66","1608","1","2","""event"",""trial"",""time""
""fullscreenenter"",""1"",""3381""
","
","
","""event"",""trial"",""time""
""fullscreenenter"",""1"",""3381""
","
","","","","","","800.0999999940395","images/horse4.png","","","learning","images/animals_choice1.png","images/animals_choice3.png","images/animals_choice2.png","[0,2,1]","2","1","2","images/animals_choice3.png","1","animals","","horse","1","0"
"html-keyboard-response","220","790205","0.0-9.0-2.0-0.67","1608","1","2","""event"",""trial"",""time""
""fullscreenenter"",""1"",""3381""
","
","
","""event"",""trial"",""time""
""fullscreenenter"",""1"",""3381""
","
","","","","","","null","<div style=""font-size:60px;"">+</div>","null","","fixation","","","","","","","","","","","","","",""
"learning-trial","221","794211","0.0-9.0-2.0-1.67","1608","1","2","""event"",""trial"",""time""
""fullscreenenter"",""1"",""3381""
","
","
","""event"",""trial"",""time""
""fullscreenenter"",""1"",""3381""
","
","","","","","","1086","images/cow1.png","","","learning","images/animals_choice2.png","images/animals_choice3.png","images/animals_choice1.png","[1,2,0]","1","0","1","images/animals_choice2.png","1","animals","","cow","1","0"
"html-keyboard-response","222","794716","0.0-9.0-2.0-0.68","1608","1","2","""event"",""trial"",""time""
""fullscreenenter"",""1"",""3381""
","
","
","""event"",""trial"",""time""
""fullscreenenter"",""1"",""3381""
","
","","","","","","null","<div style=""font-size:60px;"">+</div>","null","","fixation","","","","","","","","","","","","","",""
"learning-trial","223","798724","0.0-9.0-2.0-1.68","1608","1","2","""event"",""trial"",""time""
""fullscreenenter"",""1"",""3381""
","
","
","""event"",""trial"",""time""
""fullscreenenter"",""1"",""3381""
","
","","","","","","1356.5999999940395","images/horse2.png","","","learning","images/animals_choice1.png","images/animals_choice2.png","images/animals_choice3.png","[0,1,2]","2","2","3","images/animals_choice3.png","-1","animals","","horse","1","0"
"html-keyboard-response","224","799227","0.0-9.0-2.0-0.69","1608","1","2","""event"",""trial"",""time""
""fullscreenenter"",""1"",""3381""
","
","
","""event"",""trial"",""time""
""fullscreenenter"",""1"",""3381""
","
","","","","","","null","<div style=""font-size:60px;"">+</div>","null","","fixation","","","","","","","","","","","","","",""
"learning-trial","225","803232","0.0-9.0-2.0-1.69","1608","1","2","""event"",""trial"",""time""
""fullscreenenter"",""1"",""3381""
","
","
","""event"",""trial"",""time""
""fullscreenenter"",""1"",""3381""
","
","","","","","","977.1000000238419","images/goat1.png","","","learning","images/animals_choice2.png","images/animals_choice1.png","images/animals_choice3.png","[1,0,2]","0","1","2","images/animals_choice1.png","1","animals","","goat","1","0"
"html-keyboard-response","226","803737","0.0-9.0-2.0-0.70","1608","1","2","""event"",""trial"",""time""
""fullscreenenter"",""1"",""3381""
","
","
","""event"",""trial"",""time""
""fullscreenenter"",""1"",""3381""
","
","","","","","","null","<div style=""font-size:60px;"">+</div>","null","","fixation","","","","","","","","","","","","","",""
"learning-trial","227","807742","0.0-9.0-2.0-1.70","1608","1","2","""event"",""trial"",""time""
""fullscreenenter"",""1"",""3381""
","
","
","""event"",""trial"",""time""
""fullscreenenter"",""1"",""3381""
","
","","","","","","1537.699999988079","images/horse2.png","","","learning","images/animals_choice3.png","images/animals_choice1.png","images/animals_choice2.png","[2,0,1]","2","0","1","images/animals_choice3.png","1","animals","","horse","1","0"
"html-keyboard-response","228","808248","0.0-9.0-2.0-0.71","1608","1","2","""event"",""trial"",""time""
""fullscreenenter"",""1"",""3381""
","
","
","""event"",""trial"",""time""
""fullscreenenter"",""1"",""3381""
","
","","","","","","null","<div style=""font-size:60px;"">+</div>","null","","fixation","","","","","","","","","","","","","",""
"learning-trial","229","812252","0.0-9.0-2.0-1.71","1608","1","2","""event"",""trial"",""time""
""fullscreenenter"",""1"",""3381""
","
","
","""event"",""trial"",""time""
""fullscreenenter"",""1"",""3381""
","
","","","","","","1978.3999999761581","images/cow2.png","","","learning","images/animals_choice1.png","images/animals_choice3.png","images/animals_choice2.png","[0,2,1]","1","2","1","images/animals_choice1.png","-1","animals","","cow","1","0"
"html-button-response","230","814667","0.0-9.0-3.0","1608","1","2","""event"",""trial"",""time""
""fullscreenenter"",""1"",""3381""
","
","
","""event"",""trial"",""time""
""fullscreenenter"",""1"",""3381""
","
","","","","","","2412.300000011921","<p> You have completed the round! <p> In this round, you earned 10 points! </p>","0","","break","","","","","","","","","","","","","",""
"html-button-response","231","815875","0.0-10.0","1608","1","2","""event"",""trial"",""time""
""fullscreenenter"",""1"",""3381""
","
","
","""event"",""trial"",""time""
""fullscreenenter"",""1"",""3381""
","
","","","","","","1205.9000000059605","<p> Now it's time to play another round. </p>","0","","transition_screen","","","","","","","","","","","","","",""
"preload","232","821397","0.0-11.0-0.0","1608","1","2","""event"",""trial"",""time""
""fullscreenenter"",""1"",""3381""
","
","
","""event"",""trial"",""time""
""fullscreenenter"",""1"",""3381""
","
","true","false","[]","[]","[]","","","","","","","","","","","","","","","","","","",""
"learning-instructions","233","832043","0.0-11.0-1.0-0.0","1608","1","2","""event"",""trial"",""time""
""fullscreenenter"",""1"",""3381""
","
","
","""event"",""trial"",""time""
""fullscreenenter"",""1"",""3381""
","
","","","","","","2309","<p> Your goal in this round is to deliver furniture to three different buildings. </p><p> You will need to deliver many pieces of furniture. </p></div>","","0","instructions","","","","","","","","","","","","","",""
"learning-instructions","234","841491","0.0-11.0-1.0-0.1","1608","1","2","""event"",""trial"",""time""
""fullscreenenter"",""1"",""3381""
","
","
","""event"",""trial"",""time""
""fullscreenenter"",""1"",""3381""
","
","","","","","","2014.0999999940395","<p> On each turn, you will see a picture of a furniture item and three different buildings.  </p><p> You need to select the building that you want to deliver the furniture to.  </p>","","0","instructions","","","","","","","","","","","","","",""
"learning-instructions","235","850708","0.0-11.0-1.0-0.2","1608","1","2","""event"",""trial"",""time""
""fullscreenenter"",""1"",""3381""
","
","
","""event"",""trial"",""time""
""fullscreenenter"",""1"",""3381""
","
