"trial_type","trial_index","time_elapsed","internal_node_id","subject_id","condition","task_version","interactions","blur_events","focus_events","fullscreenenter_events","fullscreenexit_events","success","timeout","failed_images","failed_audio","failed_video","rt","stimulus","response","button_pressed","task_part","left_choice","middle_choice","right_choice","choice_positions","correct_response","correct_position","key_press","option_selected","points","task_block","correct","stim_cat","block_condition","block_number"
"pavlovia","0","4","0.0-0.0","1706","1","2","""event"",""trial"",""time""
""fullscreenenter"",""1"",""3160""
","
","
","""event"",""trial"",""time""
""fullscreenenter"",""1"",""3160""
","
","","","","","","","","","","","","","","","","","","","","","","","",""
"fullscreen","1","4150","0.0-1.0","1706","1","2","""event"",""trial"",""time""
""fullscreenenter"",""1"",""3160""
","
","
","""event"",""trial"",""time""
""fullscreenenter"",""1"",""3160""
","
","true","","","","","","","","","","","","","","","","","","","","","","",""
"preload","2","8663","0.0-2.0","1706","1","2","""event"",""trial"",""time""
""fullscreenenter"",""1"",""3160""
","
","
","""event"",""trial"",""time""
""fullscreenenter"",""1"",""3160""
","
","true","false","[]","[]","[]","","","","","","","","","","","","","","","","","","",""
"audio-keyboard-response","3","12076","0.0-3.0","1706","1","2","""event"",""trial"",""time""
""fullscreenenter"",""1"",""3160""
","
","
","""event"",""trial"",""time""
""fullscreenenter"",""1"",""3160""
","
","","","","","","3413.333333333333","audio/beep_loop.wav"," ","","","","","","","","","","","","","","","",""
"audio-button-response","4","14076","0.0-4.0","1706","1","2","""event"",""trial"",""time""
""fullscreenenter"",""1"",""3160""
","
","
","""event"",""trial"",""time""
""fullscreenenter"",""1"",""3160""
","
","","","","","","1997","audio/shark.wav","4","","","","","","","","","","","","","","","",""
"audio-button-response","5","16481","0.0-5.0","1706","1","2","""event"",""trial"",""time""
""fullscreenenter"",""1"",""3160""
","
","
","""event"",""trial"",""time""
""fullscreenenter"",""1"",""3160""
","
","","","","","","1399","audio/turtle.wav","1","","","","","","","","","","","","","","","",""
"preload","6","21584","0.0-6.0","1706","1","2","""event"",""trial"",""time""
""fullscreenenter"",""1"",""3160""
","
","
","""event"",""trial"",""time""
""fullscreenenter"",""1"",""3160""
","
","true","false","[]","[]","[]","","","","","","","","","","","","","","","","","","",""
"html-keyboard-response","7","25158","0.0-7.0","1706","1","2","""event"",""trial"",""time""
""fullscreenenter"",""1"",""3160""
","
","
","""event"",""trial"",""time""
""fullscreenenter"",""1"",""3160""
","
","","","","","","3573.199999988079","Welcome to the experiment. Press any key to begin and to advance the instructions."," ","","","","","","","","","","","","","","","",""
"learning-instructions","8","36314","0.0-8.0-0.0-0.0","1706","1","2","""event"",""trial"",""time""
""fullscreenenter"",""1"",""3160""
","
","
","""event"",""trial"",""time""
""fullscreenenter"",""1"",""3160""
","
","","","","","","3408.900000035763","<p> Welcome! Today you are going to play 6 different rounds of a decision-making game. </p><p> Use the mouse to click next to continue. </p>","","0","instructions","","","","","","","","","","","","","",""
"learning-instructions","9","41374","0.0-8.0-0.0-0.1","1706","1","2","""event"",""trial"",""time""
""fullscreenenter"",""1"",""3160""
","
","
","""event"",""trial"",""time""
""fullscreenenter"",""1"",""3160""
","
","","","","","","2060.699999988079","<p> You will start with a practice round to learn the rules. </p>","","0","instructions","","","","","","","","","","","","","",""
"learning-instructions","10","50382","0.0-8.0-0.0-0.2","1706","1","2","""event"",""trial"",""time""
""fullscreenenter"",""1"",""3160""
","
","
","""event"",""trial"",""time""
""fullscreenenter"",""1"",""3160""
","
","","","","","","1263.800000011921","<p> Your goal in this round is to deliver sports equipment to three different parks. </p><p> You will need to deliver many types of equipment. </p></div>","","0","instructions","","","","","","","","","","","","","",""
"learning-instructions","11","59748","0.0-8.0-0.0-0.3","1706","1","2","""event"",""trial"",""time""
""fullscreenenter"",""1"",""3160""
","
","
","""event"",""trial"",""time""
""fullscreenenter"",""1"",""3160""
","
","","","","","","883.1999999880791","<p> On each turn, you will see one piece of sports equipment and three different parks.  </p><p> You need to select which park to deliver the equipment to.  </p>","","0","instructions","","","","","","","","","","","","","",""
"learning-instructions","12","73819","0.0-8.0-0.0-0.4","1706","1","2","""event"",""trial"",""time""
""fullscreenenter"",""1"",""3160""
","
","
","""event"",""trial"",""time""
""fullscreenenter"",""1"",""3160""
","
","","","","","","788.6999999880791","<p> You can select the park on the left by pressing the '1' key on your keyboard. <br>You can select the park in the middle by pressing the '2' key on your keyboard. <br>You can select the park on the right by pressing the '3' key on your keyboard.  </p><br><div class=""choice-instructions-grid""> <div class=""choice-option""><img src=""images/park1.png"" class=""choice-option-img"" stage=""instructions"" position=""0"" ><div class=""choice-option-text""> Press ""1."" </div></div><div class=""choice-option""><img src=""images/park2.png"" class=""choice-option-img"" stage=""instructions"" position=""1"" ><div class=""choice-option-text""> Press ""2."" </div></div><div class=""choice-option""><img src=""images/park3.png"" class=""choice-option-img"" stage=""instructions"" position=""2"" ><div class=""choice-option-text""> Press ""3."" </div></div></div>","","0","instructions","","","","","","","","","","","","","",""
"learning-instructions","13","80178","0.0-8.0-0.0-0.5","1706","1","2","""event"",""trial"",""time""
""fullscreenenter"",""1"",""3160""
","
","
","""event"",""trial"",""time""
""fullscreenenter"",""1"",""3160""
","
","","","","","","977.4000000357628","<p> If the kids in the park you chose like the equipment, they will be very happy! </p><div style='float: center;'><img src='images/check.png' width = '200' height = '200'></img>","","0","instructions","","","","","","","","","","","","","",""
"learning-instructions","14","86642","0.0-8.0-0.0-0.6","1706","1","2","""event"",""trial"",""time""
""fullscreenenter"",""1"",""3160""
","
","
","""event"",""trial"",""time""
""fullscreenenter"",""1"",""3160""
","
","","","","","","875.1999999880791","<p> But, if the kids in the park you chose do not like the equipment, they will be sad. </p><div style='float: center;'><img src='images/x.png' width = '200' height = '200'></img>","","0","instructions","","","","","","","","","","","","","",""
"learning-instructions","15","93562","0.0-8.0-0.0-0.7","1706","1","2","""event"",""trial"",""time""
""fullscreenenter"",""1"",""3160""
","
","
","""event"",""trial"",""time""
""fullscreenenter"",""1"",""3160""
","
","","","","","","487.80000001192093","<p> Importantly, the kids in each park like some pieces of sports equipment more than others. </p>","","0","instructions","","","","","","","","","","","","","",""
"learning-instructions","16","100822","0.0-8.0-0.0-0.8","1706","1","2","""event"",""trial"",""time""
""fullscreenenter"",""1"",""3160""
","
","
","""event"",""trial"",""time""
""fullscreenenter"",""1"",""3160""
","
","","","","","","1210.5","<p> If you choose the best park for each piece of equipment, the kids there will usually be happy. </p>","","0","instructions","","","","","","","","","","","","","",""
"learning-instructions","17","108408","0.0-8.0-0.0-0.9","1706","1","2","""event"",""trial"",""time""
""fullscreenenter"",""1"",""3160""
","
","
","""event"",""trial"",""time""
""fullscreenenter"",""1"",""3160""
","
","","","","","","942.1999999880791","<p> However, even if you choose the best park for the equipment, the kids may sometimes be sad. </p>","","0","instructions","","","","","","","","","","","","","",""
"learning-instructions","18","116435","0.0-8.0-0.0-0.10","1706","1","2","""event"",""trial"",""time""
""fullscreenenter"",""1"",""3160""
","
","
","""event"",""trial"",""time""
""fullscreenenter"",""1"",""3160""
","
","","","","","","801.3000000119209","<p> Similarly, even if you choose the <i>wrong</i> park for the equipment, the kids may still be happy sometimes.","","0","instructions","","","","","","","","","","","","","",""
"learning-instructions","19","122096","0.0-8.0-0.0-0.11","1706","1","2","""event"",""trial"",""time""
""fullscreenenter"",""1"",""3160""
","
","
","""event"",""trial"",""time""
""fullscreenenter"",""1"",""3160""
","
","","","","","","604.7999999523163","<p> For example, the best park for this soccer ball is this one.<div style='float: center;'><img src='images/i1.png' width = '500' height = '268'></img>","","0","instructions","","","","","","","","","","","","","",""
"learning-instructions","20","128069","0.0-8.0-0.0-0.12","1706","1","2","""event"",""trial"",""time""
""fullscreenenter"",""1"",""3160""
","
","
","""event"",""trial"",""time""
""fullscreenenter"",""1"",""3160""
","
","","","","","","686.1999999880791","<p> Let's see what happens if you choose this park for the soccer ball five times.","","0","instructions","","","","","","","","","","","","","",""
"learning-instructions","21","131517","0.0-8.0-0.0-0.13","1706","1","2","""event"",""trial"",""time""
""fullscreenenter"",""1"",""3160""
","
","
","""event"",""trial"",""time""
""fullscreenenter"",""1"",""3160""
","
","","","","","","1282.7000000476837","<p> The kids are happy.<div style='float: left;'><img src='images/i2.png' width = '640' height = '360'></img>","","0","instructions","","","","","","","","","","","","","",""
"learning-instructions","22","134576","0.0-8.0-0.0-0.14","1706","1","2","""event"",""trial"",""time""
""fullscreenenter"",""1"",""3160""
","
","
","""event"",""trial"",""time""
""fullscreenenter"",""1"",""3160""
","
","","","","","","893.5999999642372","<p> The kids are happy.<div style='float: left;'><img src='images/i3.png' width = '640' height = '360'></img>","","0","instructions","","","","","","","","","","","","","",""
"learning-instructions","23","137546","0.0-8.0-0.0-0.15","1706","1","2","""event"",""trial"",""time""
""fullscreenenter"",""1"",""3160""
","
","
","""event"",""trial"",""time""
""fullscreenenter"",""1"",""3160""
","
","","","","","","805","<p> The kids are happy.<div style='float: left;'><img src='images/i4.png' width = '640' height = '360'></img>","","0","instructions","","","","","","","","","","","","","",""
"learning-instructions","24","140267","0.0-8.0-0.0-0.16","1706","1","2","""event"",""trial"",""time""
""fullscreenenter"",""1"",""3160""
","
","
","""event"",""trial"",""time""
""fullscreenenter"",""1"",""3160""
","
","","","","","","518.7000000476837","<p> The kids are sad.<div style='float: left;'><img src='images/i5.png' width = '640' height = '360'></img>","","0","instructions","","","","","","","","","","","","","",""
"learning-instructions","25","143424","0.0-8.0-0.0-0.17","1706","1","2","""event"",""trial"",""time""
""fullscreenenter"",""1"",""3160""
","
","
","""event"",""trial"",""time""
""fullscreenenter"",""1"",""3160""
","
","","","","","","993.8999999761581","<p> The kids are happy.<div style='float: left;'><img src='images/i6.png' width = '640' height = '360'></img>","","0","instructions","","","","","","","","","","","","","",""
"learning-instructions","26","151646","0.0-8.0-0.0-0.18","1706","1","2","""event"",""trial"",""time""
""fullscreenenter"",""1"",""3160""
","
","
","""event"",""trial"",""time""
""fullscreenenter"",""1"",""3160""
","
","","","","","","955.3000000119209","<p> As you can see, selecting that park for the soccer ball made the kids happy most of the time, but not all the time.","","0","instructions","","","","","","","","","","","","","",""
"learning-instructions","27","158166","0.0-8.0-0.0-0.19","1706","1","2","""event"",""trial"",""time""
""fullscreenenter"",""1"",""3160""
","
","
","""event"",""trial"",""time""
""fullscreenenter"",""1"",""3160""
","
","","","","","","514.1999999880791","<p> Now let's see what happens if you choose a DIFFERENT park for the soccer ball 5 times.","","0","instructions","","","","","","","","","","","","","",""
"learning-instructions","28","160901","0.0-8.0-0.0-0.20","1706","1","2","""event"",""trial"",""time""
""fullscreenenter"",""1"",""3160""
","
","
","""event"",""trial"",""time""
""fullscreenenter"",""1"",""3160""
","
","","","","","","532.1999999880791","<p> The kids are sad.<div style='float: left;'><img src='images/i7.png' width = '640' height = '360'></img>","","0","instructions","","","","","","","","","","","","","",""
"learning-instructions","29","163868","0.0-8.0-0.0-0.21","1706","1","2","""event"",""trial"",""time""
""fullscreenenter"",""1"",""3160""
","
","
","""event"",""trial"",""time""
""fullscreenenter"",""1"",""3160""
","
","","","","","","765.3999999761581","<p> The kids are sad.<div style='float: left;'><img src='images/i8.png' width = '640' height = '360'></img>","","0","instructions","","","","","","","","","","","","","",""
"learning-instructions","30","166787","0.0-8.0-0.0-0.22","1706","1","2","""event"",""trial"",""time""
""fullscreenenter"",""1"",""3160""
","
","
","""event"",""trial"",""time""
""fullscreenenter"",""1"",""3160""
","
","","","","","","752.5","<p> The kids are happy.<div style='float: left;'><img src='images/i9.png' width = '640' height = '360'></img>","","0","instructions","","","","","","","","","","","","","",""
"learning-instructions","31","169514","0.0-8.0-0.0-0.23","1706","1","2","""event"",""trial"",""time""
""fullscreenenter"",""1"",""3160""
","
","
","""event"",""trial"",""time""
""fullscreenenter"",""1"",""3160""
","
","","","","","","524.6999999880791","<p> The kids are sad.<div style='float: left;'><img src='images/i10.png' width = '640' height = '360'></img>","","0","instructions","","","","","","","","","","","","","",""
"learning-instructions","32","172609","0.0-8.0-0.0-0.24","1706","1","2","""event"",""trial"",""time""
""fullscreenenter"",""1"",""3160""
","
","
","""event"",""trial"",""time""
""fullscreenenter"",""1"",""3160""
","
","","","","","","891.3000000119209","<p> The kids are sad.<div style='float: left;'><img src='images/i11.png' width = '640' height = '360'></img>","","0","instructions","","","","","","","","","","","","","",""
"learning-instructions","33","182218","0.0-8.0-0.0-0.25","1706","1","2","""event"",""trial"",""time""
""fullscreenenter"",""1"",""3160""
","
","
","""event"",""trial"",""time""
""fullscreenenter"",""1"",""3160""
","
","","","","","","1491.199999988079","<p> As you can see, selecting the wrong park for the soccer ball made the kids sad most of the time, but not all the time.","","0","instructions","","","","","","","","","","","","","",""
"learning-instructions","34","191977","0.0-8.0-0.0-0.26","1706","1","2","""event"",""trial"",""time""
""fullscreenenter"",""1"",""3160""
","
","
","""event"",""trial"",""time""
""fullscreenenter"",""1"",""3160""
","
","","","","","","643.9000000357628","<p> The different pieces of equipment belong in different parks. You need to try to learn which is the best park for each piece of equipment.","","0","instructions","","","","","","","","","","","","","",""
"learning-instructions","35","211794","0.0-8.0-0.0-0.27","1706","1","2","""event"",""trial"",""time""
""fullscreenenter"",""1"",""3160""
","
","
","""event"",""trial"",""time""
""fullscreenenter"",""1"",""3160""
","
","","","","","","3428.199999988079","<p> Try to choose the best park for each piece of equipment, because you will <b> WIN </b> 1 point for each time you make the kids happy and <b>LOSE</b> 1 point for each time you make them sad. </p><p> Remember, if you make the best choice, you will win 1 point most of the time, but not all the time. </p>","","0","instructions","","","","","","","","","","","","","",""
"learning-instructions","36","224174","0.0-8.0-0.0-0.28","1706","1","2","""event"",""trial"",""time""
""fullscreenenter"",""1"",""3160""
","
","
","""event"",""trial"",""time""
""fullscreenenter"",""1"",""3160""
","
","","","","","","6903.300000011921","<p> This is just a practice round, but in the real game, your bonus payment will depend on your total number of points.","","0","instructions","","","","","","","","","","","","","",""
"learning-instructions","37","237008","0.0-8.0-0.0-0.29","1706","1","2","""event"",""trial"",""time""
""fullscreenenter"",""1"",""3160""
","
","
","""event"",""trial"",""time""
""fullscreenenter"",""1"",""3160""
","
","","","","","","2507.600000023842","<p> The position where each park appears will change throughout the game. </p><p> The position where the park appears <i> does not </i> influence how likely the kids are to be happy or sad. </p>","","0","instructions","","","","","","","","","","","","","",""
"learning-instructions","38","248645","0.0-8.0-0.0-0.30","1706","1","2","""event"",""trial"",""time""
""fullscreenenter"",""1"",""3160""
","
","
","""event"",""trial"",""time""
""fullscreenenter"",""1"",""3160""
","
","","","","","","1267.199999988079","<p> You will have 4 seconds to make each choice. Try to respond before time runs out! </p><p> You will lose 1 point each time you do not make a response. </p>","","0","instructions","","","","","","","","","","","","","",""
"learning-instructions","39","256644","0.0-8.0-0.0-0.31","1706","1","2","""event"",""trial"",""time""
""fullscreenenter"",""1"",""3160""
","
","
","""event"",""trial"",""time""
""fullscreenenter"",""1"",""3160""
","
","","","","","","1215.5999999642372","<p> Remember, you should use the 1, 2, and 3 keys to select the park for each piece of equipment. </p><br><div class=""choice-instructions-grid""> <div class=""choice-option""><img src=""images/park1.png"" class=""choice-option-img"" stage=""instructions"" position=""0"" ><div class=""choice-option-text""> Press ""1."" </div></div><div class=""choice-option""><img src=""images/park2.png"" class=""choice-option-img"" stage=""instructions"" position=""1"" ><div class=""choice-option-text""> Press ""2."" </div></div><div class=""choice-option""><img src=""images/park3.png"" class=""choice-option-img"" stage=""instructions"" position=""2"" ><div class=""choice-option-text""> Press ""3."" </div></div></div>","","0","instructions","","","","","","","","","","","","","",""
"html-button-response","40","258307","0.0-8.0-1.0","1706","1","2","""event"",""trial"",""time""
""fullscreenenter"",""1"",""3160""
","
","
","""event"",""trial"",""time""
""fullscreenenter"",""1"",""3160""
","
","","","","","","1561","<p> Ready to practice? </p>","0","","","","","","","","","","","","","","","",""
"html-keyboard-response","41","258914","0.0-8.0-2.0-0.0","1706","1","2","""event"",""trial"",""time""
""fullscreenenter"",""1"",""3160""
","
","
","""event"",""trial"",""time""
""fullscreenenter"",""1"",""3160""
","
","","","","","","null","<div style=""font-size:60px;"">+</div>","null","","fixation","","","","","","","","","","","","","",""
"learning-trial","42","262921","0.0-8.0-2.0-1.0","1706","1","2","""event"",""trial"",""time""
""fullscreenenter"",""1"",""3160""
","
","
","""event"",""trial"",""time""
""fullscreenenter"",""1"",""3160""
","
","","","","","","2339.400000035763","images/ball1.png","","","practice","images/park2.png","images/park1.png","images/park3.png","[1,0,2]","1","0","3","images/park3.png","-1","practice","","","",""
"html-keyboard-response","43","263426","0.0-8.0-2.0-0.1","1706","1","2","""event"",""trial"",""time""
""fullscreenenter"",""1"",""3160""
","
","
","""event"",""trial"",""time""
""fullscreenenter"",""1"",""3160""
","
","","","","","","null","<div style=""font-size:60px;"">+</div>","null","","fixation","","","","","","","","","","","","","",""
"learning-trial","44","267433","0.0-8.0-2.0-1.1","1706","1","2","""event"",""trial"",""time""
""fullscreenenter"",""1"",""3160""
","
","
","""event"",""trial"",""time""
""fullscreenenter"",""1"",""3160""
","
","","","","","","2978.600000023842","images/racket4.png","","","practice","images/park2.png","images/park3.png","images/park1.png","[1,2,0]","1","0","3","images/park1.png","-1","practice","","","",""
"html-keyboard-response","45","267937","0.0-8.0-2.0-0.2","1706","1","2","""event"",""trial"",""time""
""fullscreenenter"",""1"",""3160""
","
","
","""event"",""trial"",""time""
""fullscreenenter"",""1"",""3160""
","
","","","","","","null","<div style=""font-size:60px;"">+</div>","null","","fixation","","","","","","","","","","","","","",""
"learning-trial","46","271943","0.0-8.0-2.0-1.2","1706","1","2","""event"",""trial"",""time""
""fullscreenenter"",""1"",""3160""
","
","
","""event"",""trial"",""time""
""fullscreenenter"",""1"",""3160""
","
","","","","","","2822.599999964237","images/racket4.png","","","practice","images/park3.png","images/park1.png","images/park2.png","[2,0,1]","1","2","1","images/park3.png","-1","practice","","","",""
"html-keyboard-response","47","272448","0.0-8.0-2.0-0.3","1706","1","2","""event"",""trial"",""time""
""fullscreenenter"",""1"",""3160""
","
","
","""event"",""trial"",""time""
""fullscreenenter"",""1"",""3160""
","
","","","","","","null","<div style=""font-size:60px;"">+</div>","null","","fixation","","","","","","","","","","","","","",""
"learning-trial","48","276454","0.0-8.0-2.0-1.3","1706","1","2","""event"",""trial"",""time""
""fullscreenenter"",""1"",""3160""
","
","
","""event"",""trial"",""time""
""fullscreenenter"",""1"",""3160""
","
","","","","","","2171.800000011921","images/ball3.png","","","practice","images/park3.png","images/park1.png","images/park2.png","[2,0,1]","0","1","3","images/park2.png","-1","practice","","","",""
"html-keyboard-response","49","276958","0.0-8.0-2.0-0.4","1706","1","2","""event"",""trial"",""time""
""fullscreenenter"",""1"",""3160""
","
","
","""event"",""trial"",""time""
""fullscreenenter"",""1"",""3160""
","
","","","","","","null","<div style=""font-size:60px;"">+</div>","null","","fixation","","","","","","","","","","","","","",""
"learning-trial","50","280962","0.0-8.0-2.0-1.4","1706","1","2","""event"",""trial"",""time""
""fullscreenenter"",""1"",""3160""
","
","
","""event"",""trial"",""time""
""fullscreenenter"",""1"",""3160""
","
","","","","","","3475.300000011921","images/racket2.png","","","practice","images/park2.png","images/park1.png","images/park3.png","[1,0,2]","0","1","1","images/park2.png","-1","practice","","","",""
"html-keyboard-response","51","281463","0.0-8.0-2.0-0.5","1706","1","2","""event"",""trial"",""time""
""fullscreenenter"",""1"",""3160""
","
","
","""event"",""trial"",""time""
""fullscreenenter"",""1"",""3160""
","
","","","","","","null","<div style=""font-size:60px;"">+</div>","null","","fixation","","","","","","","","","","","","","",""
"learning-trial","52","285470","0.0-8.0-2.0-1.5","1706","1","2","""event"",""trial"",""time""
""fullscreenenter"",""1"",""3160""
","
","
","""event"",""trial"",""time""
""fullscreenenter"",""1"",""3160""
","
","","","","","","3164.5","images/racket3.png","","","practice","images/park3.png","images/park2.png","images/park1.png","[2,1,0]","2","0","2","images/park2.png","-1","practice","","","",""
"html-keyboard-response","53","285975","0.0-8.0-2.0-0.6","1706","1","2","""event"",""trial"",""time""
""fullscreenenter"",""1"",""3160""
","
","
","""event"",""trial"",""time""
""fullscreenenter"",""1"",""3160""
","
","","","","","","null","<div style=""font-size:60px;"">+</div>","null","","fixation","","","","","","","","","","","","","",""
"learning-trial","54","289977","0.0-8.0-2.0-1.6","1706","1","2","""event"",""trial"",""time""
""fullscreenenter"",""1"",""3160""
","
","
","""event"",""trial"",""time""
""fullscreenenter"",""1"",""3160""
","
","","","","","","3518.5","images/ball2.png","","","practice","images/park3.png","images/park1.png","images/park2.png","[2,0,1]","2","0","1","images/park3.png","1","practice","","","",""
"html-keyboard-response","55","290480","0.0-8.0-2.0-0.7","1706","1","2","""event"",""trial"",""time""
""fullscreenenter"",""1"",""3160""
","
","
","""event"",""trial"",""time""
""fullscreenenter"",""1"",""3160""
","
","","","","","","null","<div style=""font-size:60px;"">+</div>","null","","fixation","","","","","","","","","","","","","",""
"learning-trial","56","294484","0.0-8.0-2.0-1.7","1706","1","2","""event"",""trial"",""time""
""fullscreenenter"",""1"",""3160""
","
","
","""event"",""trial"",""time""
""fullscreenenter"",""1"",""3160""
","
","","","","","","3465.600000023842","images/racket2.png","","","practice","images/park2.png","images/park3.png","images/park1.png","[1,2,0]","0","2","3","images/park1.png","1","practice","","","",""
"html-keyboard-response","57","294985","0.0-8.0-2.0-0.8","1706","1","2","""event"",""trial"",""time""
""fullscreenenter"",""1"",""3160""
","
","
","""event"",""trial"",""time""
""fullscreenenter"",""1"",""3160""
","
","","","","","","null","<div style=""font-size:60px;"">+</div>","null","","fixation","","","","","","","","","","","","","",""
"learning-trial","58","298991","0.0-8.0-2.0-1.8","1706","1","2","""event"",""trial"",""time""
""fullscreenenter"",""1"",""3160""
","
","
","""event"",""trial"",""time""
""fullscreenenter"",""1"",""3160""
","
","","","","","","null","images/ball2.png","","","practice","images/park2.png","images/park1.png","images/park3.png","[1,0,2]","2","2","null","null","-1","practice","","","",""
"html-keyboard-response","59","299495","0.0-8.0-2.0-0.9","1706","1","2","""event"",""trial"",""time""
""fullscreenenter"",""1"",""3160""
","
","
","""event"",""trial"",""time""
""fullscreenenter"",""1"",""3160""
","
","","","","","","null","<div style=""font-size:60px;"">+</div>","null","","fixation","","","","","","","","","","","","","",""
"learning-trial","60","303501","0.0-8.0-2.0-1.9","1706","1","2","""event"",""trial"",""time""
""fullscreenenter"",""1"",""3160""
","
","
","""event"",""trial"",""time""
""fullscreenenter"",""1"",""3160""
","
","","","","","","1351.8999999761581","images/racket3.png","","","practice","images/park1.png","images/park3.png","images/park2.png","[0,2,1]","2","1","2","images/park3.png","1","practice","","","",""
"html-keyboard-response","61","304006","0.0-8.0-2.0-0.10","1706","1","2","""event"",""trial"",""time""
""fullscreenenter"",""1"",""3160""
","
","
","""event"",""trial"",""time""
""fullscreenenter"",""1"",""3160""
","
","","","","","","null","<div style=""font-size:60px;"">+</div>","null","","fixation","","","","","","","","","","","","","",""
"learning-trial","62","308011","0.0-8.0-2.0-1.10","1706","1","2","""event"",""trial"",""time""
""fullscreenenter"",""1"",""3160""
","
","
","""event"",""trial"",""time""
""fullscreenenter"",""1"",""3160""
","
","","","","","","1696.1000000238419","images/ball3.png","","","practice","images/park2.png","images/park3.png","images/park1.png","[1,2,0]","0","2","3","images/park1.png","1","practice","","","",""
"html-keyboard-response","63","308517","0.0-8.0-2.0-0.11","1706","1","2","""event"",""trial"",""time""
""fullscreenenter"",""1"",""3160""
","
","
","""event"",""trial"",""time""
""fullscreenenter"",""1"",""3160""
","
","","","","","","null","<div style=""font-size:60px;"">+</div>","null","","fixation","","","","","","","","","","","","","",""
"learning-trial","64","312522","0.0-8.0-2.0-1.11","1706","1","2","""event"",""trial"",""time""
""fullscreenenter"",""1"",""3160""
","
","
","""event"",""trial"",""time""
""fullscreenenter"",""1"",""3160""
","
","","","","","","1594.2999999523163","images/ball1.png","","","practice","images/park1.png","images/park2.png","images/park3.png","[0,1,2]","1","1","1","images/park1.png","-1","practice","","","",""
"html-button-response","65","314466","0.0-8.0-3.0","1706","1","2","""event"",""trial"",""time""
""fullscreenenter"",""1"",""3160""
","
","
","""event"",""trial"",""time""
""fullscreenenter"",""1"",""3160""
","
","","","","","","1941.199999988079","<p> You earned -4 points in the practice round! </p>","0","","break","","","","","","","","","","","","","",""
"learning-instructions","66","323084","0.0-8.0-4.0-0.0","1706","1","2","""event"",""trial"",""time""
""fullscreenenter"",""1"",""3160""
","
","
","""event"",""trial"",""time""
""fullscreenenter"",""1"",""3160""
","
","","","","","","797.5999999642372","<p> It's almost time to start the real game. </p><p> Before you start, we're going to ask you a few questions about how the game works. </p>","","0","instructions","","","","","","","","","","","","","",""
"preload","67","324552","0.0-8.0-5.0","1706","1","2","""event"",""trial"",""time""
""fullscreenenter"",""1"",""3160""
","
","
","""event"",""trial"",""time""
""fullscreenenter"",""1"",""3160""
","
","true","false","[]","[]","[]","","","","","","","","","","","","","","","","","","",""
"comp-q","68","331431","0.0-8.0-6.0-0.0","1706","1","2","""event"",""trial"",""time""
""fullscreenenter"",""1"",""3160""
","
","
","""event"",""trial"",""time""
""fullscreenenter"",""1"",""3160""
","
","","","","","","1429.1000000238419","<p> <b> True or False? </b> </p><p> If you choose the best option, you will always earn 1 point. </p>","","1","comp_question","","","","","","","","","","","true","","",""
"comp-q","69","338109","0.0-8.0-6.0-1.0","1706","1","2","""event"",""trial"",""time""
""fullscreenenter"",""1"",""3160""
","
","
","""event"",""trial"",""time""
""fullscreenenter"",""1"",""3160""
","
","","","","","","1019.3000000119209","<p><b> That's right! </b> Sometimes you will lose 1 point, even if you choose the best option. </p>","","0","comp_answer","","","","","","","","","","","","","",""
"comp-q","70","343575","0.0-8.0-6.0-0.1","1706","1","2","""event"",""trial"",""time""
""fullscreenenter"",""1"",""3160""
","
","
","""event"",""trial"",""time""
""fullscreenenter"",""1"",""3160""
","
","","","","","","836.1999999880791","<p> <b> True or False? </b> </p><p> You will have as much time as you want to make each choice. </p>","","1","comp_question","","","","","","","","","","","true","","",""
"comp-q","71","349442","0.0-8.0-6.0-1.1","1706","1","2","""event"",""trial"",""time""
""fullscreenenter"",""1"",""3160""
","
","
","""event"",""trial"",""time""
""fullscreenenter"",""1"",""3160""
","
","","","","","","1049.6000000238419","<p> <b> That's right! </b> You will only have 4 seconds to make each choice. </p>","","0","comp_answer","","","","","","","","","","","","","",""
"comp-q","72","356679","0.0-8.0-6.0-0.2","1706","1","2","""event"",""trial"",""time""
""fullscreenenter"",""1"",""3160""
","
","
","""event"",""trial"",""time""
""fullscreenenter"",""1"",""3160""
","
","","","","","","1088.0999999642372","<p> <b> True or False? </b> </p><p> You should use the '1', '2', and '3' keys to make your choices. </p>","","0","comp_question","","","","","","","","","","","true","","",""
"comp-q","73","362361","0.0-8.0-6.0-1.2","1706","1","2","""event"",""trial"",""time""
""fullscreenenter"",""1"",""3160""
","
","
","""event"",""trial"",""time""
""fullscreenenter"",""1"",""3160""
","
","","","","","","837.1999999880791","<p> <b> That's right! </b> You should use the '1', '2', and '3' keys to make each choice. </p>","","0","comp_answer","","","","","","","","","","","","","",""
"learning-instructions","74","372278","0.0-8.0-7.0-0.0","1706","1","2","""event"",""trial"",""time""
""fullscreenenter"",""1"",""3160""
","
","
","""event"",""trial"",""time""
""fullscreenenter"",""1"",""3160""
","
","","","","","","1437","<p> It's now time to start the real game. </p>Do your best, because the points you earn in the next rounds will influence your bonus payment. </p>","","0","instructions","","","","","","","","","","","","","",""
"preload","75","374383","0.0-9.0-0.0","1706","1","2","""event"",""trial"",""time""
""fullscreenenter"",""1"",""3160""
","
","
","""event"",""trial"",""time""
""fullscreenenter"",""1"",""3160""
","
","true","false","[]","[]","[]","","","","","","","","","","","","","","","","","","",""
"learning-instructions","76","383202","0.0-9.0-1.0-0.0","1706","1","2","""event"",""trial"",""time""
""fullscreenenter"",""1"",""3160""
","
","
","""event"",""trial"",""time""
""fullscreenenter"",""1"",""3160""
","
","","","","","","1034.5","<p> Your goal in this round is to deliver furniture to three different buildings. </p><p> You will need to deliver many pieces of furniture. </p></div>","","0","instructions","","","","","","","","","","","","","",""
"learning-instructions","77","391496","0.0-9.0-1.0-0.1","1706","1","2","""event"",""trial"",""time""
""fullscreenenter"",""1"",""3160""
","
","
","""event"",""trial"",""time""
""fullscreenenter"",""1"",""3160""
","
","","","","","","858.8999999761581","<p> On each turn, you will see a picture of a furniture item and three different buildings.  </p><p> You need to select the building that you want to deliver the furniture to.  </p>","","0","instructions","","","","","","","","","","","","","",""
"learning-instructions","78","400710","0.0-9.0-1.0-0.2","1706","1","2","""event"",""trial"",""time""
""fullscreenenter"",""1"",""3160""
","
","
","""event"",""trial"",""time""
""fullscreenenter"",""1"",""3160""
","
","","","","","","921.6000000238419","<p> You can select the building on the left by pressing 1, the building in the middle by pressing 2, and the building on the right by pressing 3.  </p><br><div class=""choice-instructions-grid""> <div class=""choice-option""><img src=""images/furniture_choice1.png"" class=""choice-option-img"" stage=""instructions"" position=""0"" ><div class=""choice-option-text""> Press ""1."" </div></div><div class=""choice-option""><img src=""images/furniture_choice2.png"" class=""choice-option-img"" stage=""instructions"" position=""1"" ><div class=""choice-option-text""> Press ""2."" </div></div><div class=""choice-option""><img src=""images/furniture_choice3.png"" class=""choice-option-img"" stage=""instructions"" position=""2"" ><div class=""choice-option-text""> Press ""3."" </div></div></div>","","0","instructions","","","","","","","","","","","","","",""
"learning-instructions","79","408326","0.0-9.0-1.0-0.3","1706","1","2","""event"",""trial"",""time""
""fullscreenenter"",""1"",""3160""
","
","
","""event"",""trial"",""time""
""fullscreenenter"",""1"",""3160""
","
","","","","","","1591.5","<p> If the furniture belongs in the building you chose, the building owner will likely be very happy! </p><div style='float: center;'><img src='images/check.png' width = '200' height = '200'></img>","","0","instructions","","","","","","","","","","","","","",""
"learning-instructions","80","415220","0.0-9.0-1.0-0.4","1706","1","2","""event"",""trial"",""time""
""fullscreenenter"",""1"",""3160""
","
","
","""event"",""trial"",""time""
""fullscreenenter"",""1"",""3160""
","
","","","","","","903.7999999523163","<p> But, if the furniture does not belong in the building you chose, the owner will likely be mad. </p><div style='float: center;'><img src='images/x.png' width = '200' height = '200'></img>","","0","instructions","","","","","","","","","","","","","",""
"learning-instructions","81","428113","0.0-9.0-1.0-0.5","1706","1","2","""event"",""trial"",""time""
""fullscreenenter"",""1"",""3160""
","
","
","""event"",""trial"",""time""
""fullscreenenter"",""1"",""3160""
","
","","","","","","1681.7999999523163","<p> Importantly, each piece of furniture belongs in one of the three buildings. </p><p> If you choose the correct building for the piece of furniture, you will be more likely to make the building owner happy! </p>","","0","instructions","","","","","","","","","","","","","",""
"learning-instructions","82","440131","0.0-9.0-1.0-0.6","1706","1","2","""event"",""trial"",""time""
""fullscreenenter"",""1"",""3160""
","
","
","""event"",""trial"",""time""
""fullscreenenter"",""1"",""3160""
","
","","","","","","509.7999999523163","<p> However, even if you choose the best building for the furniture, the owner may still be mad sometimes. </p><p> Similarly, even if you choose the <i>wrong</i> building, the owner may still be happy.","","0","instructions","","","","","","","","","","","","","",""
"learning-instructions","83","454477","0.0-9.0-1.0-0.7","1706","1","2","""event"",""trial"",""time""
""fullscreenenter"",""1"",""3160""
","
","
","""event"",""trial"",""time""
""fullscreenenter"",""1"",""3160""
","
","","","","","","1103.8999999761581","<p> Try to choose the best building for each piece of furniture, because you will <b> WIN </b> 1 point each time a building owner is happy and <b>LOSE</b>  1 point each time a building owner is mad. </p><p> Your bonus payment will depend on your total number of points.","","0","instructions","","","","","","","","","","","","","",""
"learning-instructions","84","464149","0.0-9.0-1.0-0.8","1706","1","2","""event"",""trial"",""time""
""fullscreenenter"",""1"",""3160""
","
","
","""event"",""trial"",""time""
""fullscreenenter"",""1"",""3160""
","
","","","","","","703.5","<p> The position of each building will change throughout the round. </p><p> The building's position <i> does not </i> influence how likely the owner is to be happy or mad. </p>","","0","instructions","","","","","","","","","","","","","",""
"learning-instructions","85","474424","0.0-9.0-1.0-0.9","1706","1","2","""event"",""trial"",""time""
""fullscreenenter"",""1"",""3160""
","
","
","""event"",""trial"",""time""
""fullscreenenter"",""1"",""3160""
","
","","","","","","982.1999999880791","<p> You will have 4 seconds to make each choice. Try to respond before time runs out! </p><p> You will lose 1 point each time you do not make a response. </p>","","0","instructions","","","","","","","","","","","","","",""
"html-keyboard-response","86","475028","0.0-9.0-2.0-0.0","1706","1","2","""event"",""trial"",""time""
""fullscreenenter"",""1"",""3160""
","
","
","""event"",""trial"",""time""
""fullscreenenter"",""1"",""3160""
","
","","","","","","null","<div style=""font-size:60px;"">+</div>","null","","fixation","","","","","","","","","","","","","",""
"learning-trial","87","479031","0.0-9.0-2.0-1.0","1706","1","2","""event"",""trial"",""time""
""fullscreenenter"",""1"",""3160""
","
","
","""event"",""trial"",""time""
""fullscreenenter"",""1"",""3160""
","
","","","","","","1326.1000000238419","images/table5.png","","","learning","images/furniture_choice2.png","images/furniture_choice3.png","images/furniture_choice1.png","[1,2,0]","2","1","2","images/furniture_choice3.png","1","furniture","","table","1","0"
"html-keyboard-response","88","479536","0.0-9.0-2.0-0.1","1706","1","2","""event"",""trial"",""time""
""fullscreenenter"",""1"",""3160""
","
","
","""event"",""trial"",""time""
""fullscreenenter"",""1"",""3160""
","
","","","","","","null","<div style=""font-size:60px;"">+</div>","null","","fixation","","","","","","","","","","","","","",""
"learning-trial","89","483540","0.0-9.0-2.0-1.1","1706","1","2","""event"",""trial"",""time""
""fullscreenenter"",""1"",""3160""
","
","
","""event"",""trial"",""time""
""fullscreenenter"",""1"",""3160""
","
","","","","","","975.1000000238419","images/sofa1.png","","","learning","images/furniture_choice2.png","images/furniture_choice3.png","images/furniture_choice1.png","[1,2,0]","1","0","3","images/furniture_choice1.png","-1","furniture","","sofa","1","0"
"html-keyboard-response","90","484043","0.0-9.0-2.0-0.2","1706","1","2","""event"",""trial"",""time""
""fullscreenenter"",""1"",""3160""
","
","
","""event"",""trial"",""time""
""fullscreenenter"",""1"",""3160""
","
","","","","","","null","<div style=""font-size:60px;"">+</div>","null","","fixation","","","","","","","","","","","","","",""
"learning-trial","91","488047","0.0-9.0-2.0-1.2","1706","1","2","""event"",""trial"",""time""
""fullscreenenter"",""1"",""3160""
","
","
","""event"",""trial"",""time""
""fullscreenenter"",""1"",""3160""
","
","","","","","","1497.5999999642372","images/table2.png","","","learning","images/furniture_choice2.png","images/furniture_choice1.png","images/furniture_choice3.png","[1,0,2]","2","2","3","images/furniture_choice3.png","1","furniture","","table","1","0"
"html-keyboard-response","92","488552","0.0-9.0-2.0-0.3","1706","1","2","""event"",""trial"",""time""
""fullscreenenter"",""1"",""3160""
","
","
","""event"",""trial"",""time""
""fullscreenenter"",""1"",""3160""
","
","","","","","","null","<div style=""font-size:60px;"">+</div>","null","","fixation","","","","","","","","","","","","","",""
"learning-trial","93","492558","0.0-9.0-2.0-1.3","1706","1","2","""event"",""trial"",""time""
""fullscreenenter"",""1"",""3160""
","
","
","""event"",""trial"",""time""
""fullscreenenter"",""1"",""3160""
","
","","","","","","1043.1000000238419","images/table2.png","","","learning","images/furniture_choice3.png","images/furniture_choice1.png","images/furniture_choice2.png","[2,0,1]","2","0","1","images/furniture_choice3.png","1","furniture","","table","1","0"
"html-keyboard-response","94","493061","0.0-9.0-2.0-0.4","1706","1","2","""event"",""trial"",""time""
""fullscreenenter"",""1"",""3160""
","
","
","""event"",""trial"",""time""
""fullscreenenter"",""1"",""3160""
","
","","","","","","null","<div style=""font-size:60px;"">+</div>","null","","fixation","","","","","","","","","","","","","",""
"learning-trial","95","497065","0.0-9.0-2.0-1.4","1706","1","2","""event"",""trial"",""time""
""fullscreenenter"",""1"",""3160""
","
","
","""event"",""trial"",""time""
""fullscreenenter"",""1"",""3160""
","
","","","","","","1733.300000011921","images/sofa1.png","","","learning","images/furniture_choice2.png","images/furniture_choice1.png","images/furniture_choice3.png","[1,0,2]","1","0","2","images/furniture_choice1.png","-1","furniture","","sofa","1","0"
"html-keyboard-response","96","497569","0.0-9.0-2.0-0.5","1706","1","2","""event"",""trial"",""time""
""fullscreenenter"",""1"",""3160""
","
","
","""event"",""trial"",""time""
""fullscreenenter"",""1"",""3160""
","
","","","","","","null","<div style=""font-size:60px;"">+</div>","null","","fixation","","","","","","","","","","","","","",""
"learning-trial","97","501573","0.0-9.0-2.0-1.5","1706","1","2","""event"",""trial"",""time""
""fullscreenenter"",""1"",""3160""
","
","
","""event"",""trial"",""time""
""fullscreenenter"",""1"",""3160""
","
","","","","","","1691.199999988079","images/sofa3.png","","","learning","images/furniture_choice2.png","images/furniture_choice3.png","images/furniture_choice1.png","[1,2,0]","1","0","3","images/furniture_choice1.png","-1","furniture","","sofa","1","0"
"html-keyboard-response","98","502078","0.0-9.0-2.0-0.6","1706","1","2","""event"",""trial"",""time""
""fullscreenenter"",""1"",""3160""
","
","
","""event"",""trial"",""time""
""fullscreenenter"",""1"",""3160""
","
","","","","","","null","<div style=""font-size:60px;"">+</div>","null","","fixation","","","","","","","","","","","","","",""
"learning-trial","99","506085","0.0-9.0-2.0-1.6","1706","1","2","""event"",""trial"",""time""
""fullscreenenter"",""1"",""3160""
","
","
","""event"",""trial"",""time""
""fullscreenenter"",""1"",""3160""
","
","","","","","","1520.8999999761581","images/chair4.png","","","learning","images/furniture_choice1.png","images/furniture_choice3.png","images/furniture_choice2.png","[0,2,1]","0","0","1","images/furniture_choice1.png","1","furniture","","chair","1","0"
"html-keyboard-response","100","506590","0.0-9.0-2.0-0.7","1706","1","2","""event"",""trial"",""time""
""fullscreenenter"",""1"",""3160""
","
","
","""event"",""trial"",""time""
""fullscreenenter"",""1"",""3160""
","
","","","","","","null","<div style=""font-size:60px;"">+</div>","null","","fixation","","","","","","","","","","","","","",""
"learning-trial","101","510596","0.0-9.0-2.0-1.7","1706","1","2","""event"",""trial"",""time""
""fullscreenenter"",""1"",""3160""
","
","
","""event"",""trial"",""time""
""fullscreenenter"",""1"",""3160""
","
","","","","","","1737.800000011921","images/chair1.png","","","learning","images/furniture_choice2.png","images/furniture_choice3.png","images/furniture_choice1.png","[1,2,0]","0","2","1","images/furniture_choice2.png","-1","furniture","","chair","1","0"
"html-keyboard-response","102","511100","0.0-9.0-2.0-0.8","1706","1","2","""event"",""trial"",""time""
""fullscreenenter"",""1"",""3160""
","
","
","""event"",""trial"",""time""
""fullscreenenter"",""1"",""3160""
","
","","","","","","null","<div style=""font-size:60px;"">+</div>","null","","fixation","","","","","","","","","","","","","",""
"learning-trial","103","515106","0.0-9.0-2.0-1.8","1706","1","2","""event"",""trial"",""time""
""fullscreenenter"",""1"",""3160""
","
","
","""event"",""trial"",""time""
""fullscreenenter"",""1"",""3160""
","
","","","","","","1792.2000000476837","images/table5.png","","","learning","images/furniture_choice3.png","images/furniture_choice2.png","images/furniture_choice1.png","[2,1,0]","2","0","1","images/furniture_choice3.png","1","furniture","","table","1","0"
"html-keyboard-response","104","515611","0.0-9.0-2.0-0.9","1706","1","2","""event"",""trial"",""time""
""fullscreenenter"",""1"",""3160""
","
","
","""event"",""trial"",""time""
""fullscreenenter"",""1"",""3160""
","
","","","","","","null","<div style=""font-size:60px;"">+</div>","null","","fixation","","","","","","","","","","","","","",""
"learning-trial","105","519617","0.0-9.0-2.0-1.9","1706","1","2","""event"",""trial"",""time""
""fullscreenenter"",""1"",""3160""
","
","
","""event"",""trial"",""time""
""fullscreenenter"",""1"",""3160""
","
","","","","","","1794.300000011921","images/sofa2.png","","","learning","images/furniture_choice3.png","images/furniture_choice2.png","images/furniture_choice1.png","[2,1,0]","1","1","2","images/furniture_choice2.png","1","furniture","","sofa","1","0"
"html-keyboard-response","106","520122","0.0-9.0-2.0-0.10","1706","1","2","""event"",""trial"",""time""
""fullscreenenter"",""1"",""3160""
","
","
","""event"",""trial"",""time""
""fullscreenenter"",""1"",""3160""
","
","","","","","","null","<div style=""font-size:60px;"">+</div>","null","","fixation","","","","","","","","","","","","","",""
"learning-trial","107","524128","0.0-9.0-2.0-1.10","1706","1","2","""event"",""trial"",""time""
""fullscreenenter"",""1"",""3160""
","
","
","""event"",""trial"",""time""
""fullscreenenter"",""1"",""3160""
","
","","","","","","2006.4000000357628","images/sofa1.png","","","learning","images/furniture_choice2.png","images/furniture_choice3.png","images/furniture_choice1.png","[1,2,0]","1","0","1","images/furniture_choice2.png","1","furniture","","sofa","1","0"
"html-keyboard-response","108","524632","0.0-9.0-2.0-0.11","1706","1","2","""event"",""trial"",""time""
""fullscreenenter"",""1"",""3160""
","
","
","""event"",""trial"",""time""
""fullscreenenter"",""1"",""3160""
","
","","","","","","null","<div style=""font-size:60px;"">+</div>","null","","fixation","","","","","","","","","","","","","",""
"learning-trial","109","528638","0.0-9.0-2.0-1.11","1706","1","2","""event"",""trial"",""time""
""fullscreenenter"",""1"",""3160""
","
","
","""event"",""trial"",""time""
""fullscreenenter"",""1"",""3160""
","
","","","","","","1771.300000011921","images/sofa2.png","","","learning","images/furniture_choice3.png","images/furniture_choice1.png","images/furniture_choice2.png","[2,0,1]","1","2","2","images/furniture_choice1.png","-1","furniture","","sofa","1","0"
"html-keyboard-response","110","529143","0.0-9.0-2.0-0.12","1706","1","2","""event"",""trial"",""time""
""fullscreenenter"",""1"",""3160""
","
","
","""event"",""trial"",""time""
""fullscreenenter"",""1"",""3160""
","
","","","","","","null","<div style=""font-size:60px;"">+</div>","null","","fixation","","","","","","","","","","","","","",""
"learning-trial","111","533149","0.0-9.0-2.0-1.12","1706","1","2","""event"",""trial"",""time""
""fullscreenenter"",""1"",""3160""
","
","
","""event"",""trial"",""time""
""fullscreenenter"",""1"",""3160""
","
","","","","","","1434.5","images/table1.png","","","learning","images/furniture_choice2.png","images/furniture_choice3.png","images/furniture_choice1.png","[1,2,0]","2","1","2","images/furniture_choice3.png","1","furniture","","table","1","0"
"html-keyboard-response","112","533654","0.0-9.0-2.0-0.13","1706","1","2","""event"",""trial"",""time""
""fullscreenenter"",""1"",""3160""
","
","
","""event"",""trial"",""time""
""fullscreenenter"",""1"",""3160""
","
","","","","","","null","<div style=""font-size:60px;"">+</div>","null","","fixation","","","","","","","","","","","","","",""
"learning-trial","113","537660","0.0-9.0-2.0-1.13","1706","1","2","""event"",""trial"",""time""
""fullscreenenter"",""1"",""3160""
","
","
","""event"",""trial"",""time""
""fullscreenenter"",""1"",""3160""
","
","","","","","","1210.4000000357628","images/table5.png","","","learning","images/furniture_choice2.png","images/furniture_choice3.png","images/furniture_choice1.png","[1,2,0]","2","1","2","images/furniture_choice3.png","1","furniture","","table","1","0"
"html-keyboard-response","114","538164","0.0-9.0-2.0-0.14","1706","1","2","""event"",""trial"",""time""
""fullscreenenter"",""1"",""3160""
","
","
","""event"",""trial"",""time""
""fullscreenenter"",""1"",""3160""
","
","","","","","","null","<div style=""font-size:60px;"">+</div>","null","","fixation","","","","","","","","","","","","","",""
"learning-trial","115","542170","0.0-9.0-2.0-1.14","1706","1","2","""event"",""trial"",""time""
""fullscreenenter"",""1"",""3160""
","
","
","""event"",""trial"",""time""
""fullscreenenter"",""1"",""3160""
","
","","","","","","1371.1000000238419","images/sofa1.png","","","learning","images/furniture_choice2.png","images/furniture_choice1.png","images/furniture_choice3.png","[1,0,2]","1","0","3","images/furniture_choice3.png","-1","furniture","","sofa","1","0"
"html-keyboard-response","116","542675","0.0-9.0-2.0-0.15","1706","1","2","""event"",""trial"",""time""
""fullscreenenter"",""1"",""3160""
","
","
","""event"",""trial"",""time""
""fullscreenenter"",""1"",""3160""
","
","","","","","","null","<div style=""font-size:60px;"">+</div>","null","","fixation","","","","","","","","","","","","","",""
"learning-trial","117","546680","0.0-9.0-2.0-1.15","1706","1","2","""event"",""trial"",""time""
""fullscreenenter"",""1"",""3160""
","
","
","""event"",""trial"",""time""
""fullscreenenter"",""1"",""3160""
","
","","","","","","1700.1000000238419","images/chair2.png","","","learning","images/furniture_choice1.png","images/furniture_choice2.png","images/furniture_choice3.png","[0,1,2]","0","0","3","images/furniture_choice3.png","-1","furniture","","chair","1","0"
"html-keyboard-response","118","547185","0.0-9.0-2.0-0.16","1706","1","2","""event"",""trial"",""time""
""fullscreenenter"",""1"",""3160""
","
","
","""event"",""trial"",""time""
""fullscreenenter"",""1"",""3160""
","
","","","","","","null","<div style=""font-size:60px;"">+</div>","null","","fixation","","","","","","","","","","","","","",""
"learning-trial","119","551191","0.0-9.0-2.0-1.16","1706","1","2","""event"",""trial"",""time""
""fullscreenenter"",""1"",""3160""
","
","
","""event"",""trial"",""time""
""fullscreenenter"",""1"",""3160""
","
","","","","","","1503.8999999761581","images/chair1.png","","","learning","images/furniture_choice3.png","images/furniture_choice1.png","images/furniture_choice2.png","[2,0,1]","0","1","1","images/furniture_choice3.png","-1","furniture","","chair","1","0"
"html-keyboard-response","120","551696","0.0-9.0-2.0-0.17","1706","1","2","""event"",""trial"",""time""
""fullscreenenter"",""1"",""3160""
","
","
","""event"",""trial"",""time""
""fullscreenenter"",""1"",""3160""
","
","","","","","","null","<div style=""font-size:60px;"">+</div>","null","","fixation","","","","","","","","","","","","","",""
"learning-trial","121","555702","0.0-9.0-2.0-1.17","1706","1","2","""event"",""trial"",""time""
""fullscreenenter"",""1"",""3160""
","
","
","""event"",""trial"",""time""
""fullscreenenter"",""1"",""3160""
","
","","","","","","2089","images/chair1.png","","","learning","images/furniture_choice2.png","images/furniture_choice3.png","images/furniture_choice1.png","[1,2,0]","0","2","1","images/furniture_choice2.png","-1","furniture","","chair","1","0"
"html-keyboard-response","122","556206","0.0-9.0-2.0-0.18","1706","1","2","""event"",""trial"",""time""
""fullscreenenter"",""1"",""3160""
","
","
","""event"",""trial"",""time""
""fullscreenenter"",""1"",""3160""
","
","","","","","","null","<div style=""font-size:60px;"">+</div>","null","","fixation","","","","","","","","","","","","","",""
"learning-trial","123","560212","0.0-9.0-2.0-1.18","1706","1","2","""event"",""trial"",""time""
""fullscreenenter"",""1"",""3160""
","
","
","""event"",""trial"",""time""
""fullscreenenter"",""1"",""3160""
","
","","","","","","1518.5","images/sofa2.png","","","learning","images/furniture_choice1.png","images/furniture_choice2.png","images/furniture_choice3.png","[0,1,2]","1","1","2","images/furniture_choice2.png","1","furniture","","sofa","1","0"
"html-keyboard-response","124","560717","0.0-9.0-2.0-0.19","1706","1","2","""event"",""trial"",""time""
""fullscreenenter"",""1"",""3160""
","
","
","""event"",""trial"",""time""
""fullscreenenter"",""1"",""3160""
","
","","","","","","null","<div style=""font-size:60px;"">+</div>","null","","fixation","","","","","","","","","","","","","",""
"learning-trial","125","564723","0.0-9.0-2.0-1.19","1706","1","2","""event"",""trial"",""time""
""fullscreenenter"",""1"",""3160""
","
","
","""event"",""trial"",""time""
""fullscreenenter"",""1"",""3160""
","
","","","","","","1746.699999988079","images/sofa1.png","","","learning","images/furniture_choice3.png","images/furniture_choice2.png","images/furniture_choice1.png","[2,1,0]","1","1","1","images/furniture_choice3.png","-1","furniture","","sofa","1","0"
"html-keyboard-response","126","565227","0.0-9.0-2.0-0.20","1706","1","2","""event"",""trial"",""time""
""fullscreenenter"",""1"",""3160""
","
","
","""event"",""trial"",""time""
""fullscreenenter"",""1"",""3160""
","
","","","","","","null","<div style=""font-size:60px;"">+</div>","null","","fixation","","","","","","","","","","","","","",""
"learning-trial","127","569233","0.0-9.0-2.0-1.20","1706","1","2","""event"",""trial"",""time""
""fullscreenenter"",""1"",""3160""
","
","
","""event"",""trial"",""time""
""fullscreenenter"",""1"",""3160""
","
","","","","","","1936.8999999761581","images/chair4.png","","","learning","images/furniture_choice1.png","images/furniture_choice3.png","images/furniture_choice2.png","[0,2,1]","0","0","1","images/furniture_choice1.png","1","furniture","","chair","1","0"
"html-keyboard-response","128","569738","0.0-9.0-2.0-0.21","1706","1","2","""event"",""trial"",""time""
""fullscreenenter"",""1"",""3160""
","
","
","""event"",""trial"",""time""
""fullscreenenter"",""1"",""3160""
","
","","","","","","null","<div style=""font-size:60px;"">+</div>","null","","fixation","","","","","","","","","","","","","",""
"learning-trial","129","573744","0.0-9.0-2.0-1.21","1706","1","2","""event"",""trial"",""time""
""fullscreenenter"",""1"",""3160""
","
","
","""event"",""trial"",""time""
""fullscreenenter"",""1"",""3160""
","
","","","","","","1109.199999988079","images/table5.png","","","learning","images/furniture_choice3.png","images/furniture_choice1.png","images/furniture_choice2.png","[2,0,1]","2","0","1","images/furniture_choice3.png","-1","furniture","","table","1","0"
"html-keyboard-response","130","574249","0.0-9.0-2.0-0.22","1706","1","2","""event"",""trial"",""time""
""fullscreenenter"",""1"",""3160""
","
","
","""event"",""trial"",""time""
""fullscreenenter"",""1"",""3160""
","
","","","","","","null","<div style=""font-size:60px;"">+</div>","null","","fixation","","","","","","","","","","","","","",""
"learning-trial","131","578255","0.0-9.0-2.0-1.22","1706","1","2","""event"",""trial"",""time""
""fullscreenenter"",""1"",""3160""
","
","
","""event"",""trial"",""time""
""fullscreenenter"",""1"",""3160""
","
","","","","","","1906.5999999642372","images/sofa3.png","","","learning","images/furniture_choice1.png","images/furniture_choice3.png","images/furniture_choice2.png","[0,2,1]","1","2","3","images/furniture_choice2.png","-1","furniture","","sofa","1","0"
"html-keyboard-response","132","578760","0.0-9.0-2.0-0.23","1706","1","2","""event"",""trial"",""time""
""fullscreenenter"",""1"",""3160""
","
","
","""event"",""trial"",""time""
""fullscreenenter"",""1"",""3160""
","
","","","","","","null","<div style=""font-size:60px;"">+</div>","null","","fixation","","","","","","","","","","","","","",""
"learning-trial","133","582765","0.0-9.0-2.0-1.23","1706","1","2","""event"",""trial"",""time""
""fullscreenenter"",""1"",""3160""
","
","
","""event"",""trial"",""time""
""fullscreenenter"",""1"",""3160""
","
","","","","","","1090.800000011921","images/table5.png","","","learning","images/furniture_choice2.png","images/furniture_choice3.png","images/furniture_choice1.png","[1,2,0]","2","1","2","images/furniture_choice3.png","1","furniture","","table","1","0"
"html-keyboard-response","134","583270","0.0-9.0-2.0-0.24","1706","1","2","""event"",""trial"",""time""
""fullscreenenter"",""1"",""3160""
","
","
","""event"",""trial"",""time""
""fullscreenenter"",""1"",""3160""
","
","","","","","","null","<div style=""font-size:60px;"">+</div>","null","","fixation","","","","","","","","","","","","","",""
"learning-trial","135","587276","0.0-9.0-2.0-1.24","1706","1","2","""event"",""trial"",""time""
""fullscreenenter"",""1"",""3160""
","
","
","""event"",""trial"",""time""
""fullscreenenter"",""1"",""3160""
","
","","","","","","906.1999999880791","images/table1.png","","","learning","images/furniture_choice3.png","images/furniture_choice1.png","images/furniture_choice2.png","[2,0,1]","2","0","1","images/furniture_choice3.png","1","furniture","","table","1","0"
"html-keyboard-response","136","587781","0.0-9.0-2.0-0.25","1706","1","2","""event"",""trial"",""time""
""fullscreenenter"",""1"",""3160""
","
","
","""event"",""trial"",""time""
""fullscreenenter"",""1"",""3160""
","
","","","","","","null","<div style=""font-size:60px;"">+</div>","null","","fixation","","","","","","","","","","","","","",""
"learning-trial","137","591786","0.0-9.0-2.0-1.25","1706","1","2","""event"",""trial"",""time""
""fullscreenenter"",""1"",""3160""
","
","
","""event"",""trial"",""time""
""fullscreenenter"",""1"",""3160""
","
","","","","","","1430.300000011921","images/sofa3.png","","","learning","images/furniture_choice3.png","images/furniture_choice2.png","images/furniture_choice1.png","[2,1,0]","1","1","2","images/furniture_choice2.png","1","furniture","","sofa","1","0"
"html-keyboard-response","138","592291","0.0-9.0-2.0-0.26","1706","1","2","""event"",""trial"",""time""
""fullscreenenter"",""1"",""3160""
","
","
","""event"",""trial"",""time""
""fullscreenenter"",""1"",""3160""
","
","","","","","","null","<div style=""font-size:60px;"">+</div>","null","","fixation","","","","","","","","","","","","","",""
"learning-trial","139","596297","0.0-9.0-2.0-1.26","1706","1","2","""event"",""trial"",""time""
""fullscreenenter"",""1"",""3160""
","
","
","""event"",""trial"",""time""
""fullscreenenter"",""1"",""3160""
","
","","","","","","1168.5","images/sofa3.png","","","learning","images/furniture_choice2.png","images/furniture_choice3.png","images/furniture_choice1.png","[1,2,0]","1","0","1","images/furniture_choice2.png","1","furniture","","sofa","1","0"
"html-keyboard-response","140","596802","0.0-9.0-2.0-0.27","1706","1","2","""event"",""trial"",""time""
""fullscreenenter"",""1"",""3160""
","
","
","""event"",""trial"",""time""
""fullscreenenter"",""1"",""3160""
","
","","","","","","null","<div style=""font-size:60px;"">+</div>","null","","fixation","","","","","","","","","","","","","",""
"learning-trial","141","600808","0.0-9.0-2.0-1.27","1706","1","2","""event"",""trial"",""time""
""fullscreenenter"",""1"",""3160""
","
","
","""event"",""trial"",""time""
""fullscreenenter"",""1"",""3160""
","
","","","","","","1098.699999988079","images/sofa2.png","","","learning","images/furniture_choice2.png","images/furniture_choice1.png","images/furniture_choice3.png","[1,0,2]","1","0","1","images/furniture_choice2.png","1","furniture","","sofa","1","0"
"html-keyboard-response","142","601313","0.0-9.0-2.0-0.28","1706","1","2","""event"",""trial"",""time""
""fullscreenenter"",""1"",""3160""
","
","
","""event"",""trial"",""time""
""fullscreenenter"",""1"",""3160""
","
","","","","","","null","<div style=""font-size:60px;"">+</div>","null","","fixation","","","","","","","","","","","","","",""
"learning-trial","143","605318","0.0-9.0-2.0-1.28","1706","1","2","""event"",""trial"",""time""
""fullscreenenter"",""1"",""3160""
","
","
","""event"",""trial"",""time""
""fullscreenenter"",""1"",""3160""
","
","","","","","","2203.699999988079","images/chair1.png","","","learning","images/furniture_choice2.png","images/furniture_choice1.png","images/furniture_choice3.png","[1,0,2]","0","1","2","images/furniture_choice1.png","1","furniture","","chair","1","0"
"html-keyboard-response","144","605823","0.0-9.0-2.0-0.29","1706","1","2","""event"",""trial"",""time""
""fullscreenenter"",""1"",""3160""
","
","
","""event"",""trial"",""time""
""fullscreenenter"",""1"",""3160""
","
","","","","","","null","<div style=""font-size:60px;"">+</div>","null","","fixation","","","","","","","","","","","","","",""
"learning-trial","145","609829","0.0-9.0-2.0-1.29","1706","1","2","""event"",""trial"",""time""
""fullscreenenter"",""1"",""3160""
","
","
","""event"",""trial"",""time""
""fullscreenenter"",""1"",""3160""
","
","","","","","","1052.699999988079","images/table5.png","","","learning","images/furniture_choice3.png","images/furniture_choice1.png","images/furniture_choice2.png","[2,0,1]","2","0","1","images/furniture_choice3.png","1","furniture","","table","1","0"
"html-keyboard-response","146","610334","0.0-9.0-2.0-0.30","1706","1","2","""event"",""trial"",""time""
""fullscreenenter"",""1"",""3160""
","
","
","""event"",""trial"",""time""
""fullscreenenter"",""1"",""3160""
","
","","","","","","null","<div style=""font-size:60px;"">+</div>","null","","fixation","","","","","","","","","","","","","",""
"learning-trial","147","614340","0.0-9.0-2.0-1.30","1706","1","2","""event"",""trial"",""time""
""fullscreenenter"",""1"",""3160""
","
","
","""event"",""trial"",""time""
""fullscreenenter"",""1"",""3160""
","
","","","","","","1910.3999999761581","images/sofa3.png","","","learning","images/furniture_choice1.png","images/furniture_choice2.png","images/furniture_choice3.png","[0,1,2]","1","1","2","images/furniture_choice2.png","1","furniture","","sofa","1","0"
"html-keyboard-response","148","614844","0.0-9.0-2.0-0.31","1706","1","2","""event"",""trial"",""time""
""fullscreenenter"",""1"",""3160""
","
","
","""event"",""trial"",""time""
""fullscreenenter"",""1"",""3160""
","
","","","","","","null","<div style=""font-size:60px;"">+</div>","null","","fixation","","","","","","","","","","","","","",""
"learning-trial","149","618849","0.0-9.0-2.0-1.31","1706","1","2","""event"",""trial"",""time""
""fullscreenenter"",""1"",""3160""
","
","
","""event"",""trial"",""time""
""fullscreenenter"",""1"",""3160""
","
","","","","","","1648.8999999761581","images/sofa1.png","","","learning","images/furniture_choice1.png","images/furniture_choice3.png","images/furniture_choice2.png","[0,2,1]","1","2","3","images/furniture_choice2.png","1","furniture","","sofa","1","0"
"html-keyboard-response","150","619355","0.0-9.0-2.0-0.32","1706","1","2","""event"",""trial"",""time""
""fullscreenenter"",""1"",""3160""
","
","
","""event"",""trial"",""time""
""fullscreenenter"",""1"",""3160""
","
","","","","","","null","<div style=""font-size:60px;"">+</div>","null","","fixation","","","","","","","","","","","","","",""
"learning-trial","151","623361","0.0-9.0-2.0-1.32","1706","1","2","""event"",""trial"",""time""
""fullscreenenter"",""1"",""3160""
","
","
","""event"",""trial"",""time""
""fullscreenenter"",""1"",""3160""
","
","","","","","","1720.8999999761581","images/table2.png","","","learning","images/furniture_choice2.png","images/furniture_choice3.png","images/furniture_choice1.png","[1,2,0]","2","1","2","images/furniture_choice3.png","1","furniture","","table","1","0"
"html-keyboard-response","152","623866","0.0-9.0-2.0-0.33","1706","1","2","""event"",""trial"",""time""
""fullscreenenter"",""1"",""3160""
","
","
","""event"",""trial"",""time""
""fullscreenenter"",""1"",""3160""
","
","","","","","","null","<div style=""font-size:60px;"">+</div>","null","","fixation","","","","","","","","","","","","","",""
"learning-trial","153","627872","0.0-9.0-2.0-1.33","1706","1","2","""event"",""trial"",""time""
""fullscreenenter"",""1"",""3160""
","
","
","""event"",""trial"",""time""
""fullscreenenter"",""1"",""3160""
","
","","","","","","1045.7999999523163","images/table5.png","","","learning","images/furniture_choice3.png","images/furniture_choice1.png","images/furniture_choice2.png","[2,0,1]","2","0","1","images/furniture_choice3.png","1","furniture","","table","1","0"
"html-keyboard-response","154","628376","0.0-9.0-2.0-0.34","1706","1","2","""event"",""trial"",""time""
""fullscreenenter"",""1"",""3160""
","
","
","""event"",""trial"",""time""
""fullscreenenter"",""1"",""3160""
","
","","","","","","null","<div style=""font-size:60px;"">+</div>","null","","fixation","","","","","","","","","","","","","",""
"learning-trial","155","632382","0.0-9.0-2.0-1.34","1706","1","2","""event"",""trial"",""time""
""fullscreenenter"",""1"",""3160""
","
","
","""event"",""trial"",""time""
""fullscreenenter"",""1"",""3160""
","
","","","","","","1565.7999999523163","images/sofa2.png","","","learning","images/furniture_choice3.png","images/furniture_choice1.png","images/furniture_choice2.png","[2,0,1]","1","2","3","images/furniture_choice2.png","1","furniture","","sofa","1","0"
"html-keyboard-response","156","632887","0.0-9.0-2.0-0.35","1706","1","2","""event"",""trial"",""time""
""fullscreenenter"",""1"",""3160""
","
","
","""event"",""trial"",""time""
""fullscreenenter"",""1"",""3160""
","
","","","","","","null","<div style=""font-size:60px;"">+</div>","null","","fixation","","","","","","","","","","","","","",""
"learning-trial","157","636892","0.0-9.0-2.0-1.35","1706","1","2","""event"",""trial"",""time""
""fullscreenenter"",""1"",""3160""
","
","
","""event"",""trial"",""time""
""fullscreenenter"",""1"",""3160""
","
","","","","","","1732.5","images/chair4.png","","","learning","images/furniture_choice1.png","images/furniture_choice3.png","images/furniture_choice2.png","[0,2,1]","0","0","1","images/furniture_choice1.png","1","furniture","","chair","1","0"
"html-keyboard-response","158","637398","0.0-9.0-2.0-0.36","1706","1","2","""event"",""trial"",""time""
""fullscreenenter"",""1"",""3160""
","
","
","""event"",""trial"",""time""
""fullscreenenter"",""1"",""3160""
","
","","","","","","null","<div style=""font-size:60px;"">+</div>","null","","fixation","","","","","","","","","","","","","",""
"learning-trial","159","641403","0.0-9.0-2.0-1.36","1706","1","2","""event"",""trial"",""time""
""fullscreenenter"",""1"",""3160""
","
","
","""event"",""trial"",""time""
""fullscreenenter"",""1"",""3160""
","
","","","","","","2621.5","images/chair2.png","","","learning","images/furniture_choice3.png","images/furniture_choice2.png","images/furniture_choice1.png","[2,1,0]","0","2","2","images/furniture_choice2.png","-1","furniture","","chair","1","0"
"html-keyboard-response","160","641908","0.0-9.0-2.0-0.37","1706","1","2","""event"",""trial"",""time""
""fullscreenenter"",""1"",""3160""
","
","
","""event"",""trial"",""time""
""fullscreenenter"",""1"",""3160""
","
","","","","","","null","<div style=""font-size:60px;"">+</div>","null","","fixation","","","","","","","","","","","","","",""
"learning-trial","161","645914","0.0-9.0-2.0-1.37","1706","1","2","""event"",""trial"",""time""
""fullscreenenter"",""1"",""3160""
","
","
","""event"",""trial"",""time""
""fullscreenenter"",""1"",""3160""
","
","","","","","","1304.8999999761581","images/chair4.png","","","learning","images/furniture_choice3.png","images/furniture_choice1.png","images/furniture_choice2.png","[2,0,1]","0","1","2","images/furniture_choice1.png","1","furniture","","chair","1","0"
"html-keyboard-response","162","646419","0.0-9.0-2.0-0.38","1706","1","2","""event"",""trial"",""time""
""fullscreenenter"",""1"",""3160""
","
","
","""event"",""trial"",""time""
""fullscreenenter"",""1"",""3160""
","
","","","","","","null","<div style=""font-size:60px;"">+</div>","null","","fixation","","","","","","","","","","","","","",""
"learning-trial","163","650425","0.0-9.0-2.0-1.38","1706","1","2","""event"",""trial"",""time""
""fullscreenenter"",""1"",""3160""
","
","
","""event"",""trial"",""time""
""fullscreenenter"",""1"",""3160""
","
","","","","","","1343.800000011921","images/sofa3.png","","","learning","images/furniture_choice2.png","images/furniture_choice1.png","images/furniture_choice3.png","[1,0,2]","1","0","1","images/furniture_choice2.png","1","furniture","","sofa","1","0"
"html-keyboard-response","164","650929","0.0-9.0-2.0-0.39","1706","1","2","""event"",""trial"",""time""
""fullscreenenter"",""1"",""3160""
","
","
","""event"",""trial"",""time""
""fullscreenenter"",""1"",""3160""
","
","","","","","","null","<div style=""font-size:60px;"">+</div>","null","","fixation","","","","","","","","","","","","","",""
"learning-trial","165","654935","0.0-9.0-2.0-1.39","1706","1","2","""event"",""trial"",""time""
""fullscreenenter"",""1"",""3160""
","
","
","""event"",""trial"",""time""
""fullscreenenter"",""1"",""3160""
","
","","","","","","1782.800000011921","images/sofa1.png","","","learning","images/furniture_choice3.png","images/furniture_choice2.png","images/furniture_choice1.png","[2,1,0]","1","1","2","images/furniture_choice2.png","1","furniture","","sofa","1","0"
"html-keyboard-response","166","655440","0.0-9.0-2.0-0.40","1706","1","2","""event"",""trial"",""time""
""fullscreenenter"",""1"",""3160""
","
","
","""event"",""trial"",""time""
""fullscreenenter"",""1"",""3160""
","
","","","","","","null","<div style=""font-size:60px;"">+</div>","null","","fixation","","","","","","","","","","","","","",""
"learning-trial","167","659446","0.0-9.0-2.0-1.40","1706","1","2","""event"",""trial"",""time""
""fullscreenenter"",""1"",""3160""
","
","
","""event"",""trial"",""time""
""fullscreenenter"",""1"",""3160""
","
","","","","","","1266.300000011921","images/sofa2.png","","","learning","images/furniture_choice2.png","images/furniture_choice1.png","images/furniture_choice3.png","[1,0,2]","1","0","1","images/furniture_choice2.png","1","furniture","","sofa","1","0"
"html-keyboard-response","168","659951","0.0-9.0-2.0-0.41","1706","1","2","""event"",""trial"",""time""
""fullscreenenter"",""1"",""3160""
","
","
","""event"",""trial"",""time""
""fullscreenenter"",""1"",""3160""
","
","","","","","","null","<div style=""font-size:60px;"">+</div>","null","","fixation","","","","","","","","","","","","","",""
"learning-trial","169","663956","0.0-9.0-2.0-1.41","1706","1","2","""event"",""trial"",""time""
""fullscreenenter"",""1"",""3160""
","
","
","""event"",""trial"",""time""
""fullscreenenter"",""1"",""3160""
","
","","","","","","1446","images/table2.png","","","learning","images/furniture_choice2.png","images/furniture_choice3.png","images/furniture_choice1.png","[1,2,0]","2","1","2","images/furniture_choice3.png","1","furniture","","table","1","0"
"html-keyboard-response","170","664461","0.0-9.0-2.0-0.42","1706","1","2","""event"",""trial"",""time""
""fullscreenenter"",""1"",""3160""
","
","
","""event"",""trial"",""time""
""fullscreenenter"",""1"",""3160""
","
","","","","","","null","<div style=""font-size:60px;"">+</div>","null","","fixation","","","","","","","","","","","","","",""
"learning-trial","171","668467","0.0-9.0-2.0-1.42","1706","1","2","""event"",""trial"",""time""
""fullscreenenter"",""1"",""3160""
","
","
","""event"",""trial"",""time""
""fullscreenenter"",""1"",""3160""
","
","","","","","","1239.800000011921","images/chair2.png","","","learning","images/furniture_choice1.png","images/furniture_choice2.png","images/furniture_choice3.png","[0,1,2]","0","0","1","images/furniture_choice1.png","1","furniture","","chair","1","0"
"html-keyboard-response","172","668972","0.0-9.0-2.0-0.43","1706","1","2","""event"",""trial"",""time""
""fullscreenenter"",""1"",""3160""
","
","
","""event"",""trial"",""time""
""fullscreenenter"",""1"",""3160""
","
","","","","","","null","<div style=""font-size:60px;"">+</div>","null","","fixation","","","","","","","","","","","","","",""
"learning-trial","173","672978","0.0-9.0-2.0-1.43","1706","1","2","""event"",""trial"",""time""
""fullscreenenter"",""1"",""3160""
","
","
","""event"",""trial"",""time""
""fullscreenenter"",""1"",""3160""
","
","","","","","","1448.300000011921","images/table2.png","","","learning","images/furniture_choice2.png","images/furniture_choice1.png","images/furniture_choice3.png","[1,0,2]","2","2","3","images/furniture_choice3.png","1","furniture","","table","1","0"
"html-keyboard-response","174","673482","0.0-9.0-2.0-0.44","1706","1","2","""event"",""trial"",""time""
""fullscreenenter"",""1"",""3160""
","
","
","""event"",""trial"",""time""
""fullscreenenter"",""1"",""3160""
","
","","","","","","null","<div style=""font-size:60px;"">+</div>","null","","fixation","","","","","","","","","","","","","",""
"learning-trial","175","677488","0.0-9.0-2.0-1.44","1706","1","2","""event"",""trial"",""time""
""fullscreenenter"",""1"",""3160""
","
","
","""event"",""trial"",""time""
""fullscreenenter"",""1"",""3160""
","
","","","","","","1192","images/table2.png","","","learning","images/furniture_choice3.png","images/furniture_choice2.png","images/furniture_choice1.png","[2,1,0]","2","0","1","images/furniture_choice3.png","1","furniture","","table","1","0"
"html-keyboard-response","176","677993","0.0-9.0-2.0-0.45","1706","1","2","""event"",""trial"",""time""
""fullscreenenter"",""1"",""3160""
","
","
","""event"",""trial"",""time""
""fullscreenenter"",""1"",""3160""
","
","","","","","","null","<div style=""font-size:60px;"">+</div>","null","","fixation","","","","","","","","","","","","","",""
"learning-trial","177","681999","0.0-9.0-2.0-1.45","1706","1","2","""event"",""trial"",""time""
""fullscreenenter"",""1"",""3160""
","
","
","""event"",""trial"",""time""
""fullscreenenter"",""1"",""3160""
","
","","","","","","997","images/table1.png","","","learning","images/furniture_choice3.png","images/furniture_choice1.png","images/furniture_choice2.png","[2,0,1]","2","0","1","images/furniture_choice3.png","1","furniture","","table","1","0"
"html-keyboard-response","178","682504","0.0-9.0-2.0-0.46","1706","1","2","""event"",""trial"",""time""
""fullscreenenter"",""1"",""3160""
","
","
","""event"",""trial"",""time""
""fullscreenenter"",""1"",""3160""
","
","","","","","","null","<div style=""font-size:60px;"">+</div>","null","","fixation","","","","","","","","","","","","","",""
"learning-trial","179","686509","0.0-9.0-2.0-1.46","1706","1","2","""event"",""trial"",""time""
""fullscreenenter"",""1"",""3160""
","
","
","""event"",""trial"",""time""
""fullscreenenter"",""1"",""3160""
","
","","","","","","2011.4000000357628","images/sofa3.png","","","learning","images/furniture_choice1.png","images/furniture_choice3.png","images/furniture_choice2.png","[0,2,1]","1","2","3","images/furniture_choice2.png","-1","furniture","","sofa","1","0"
"html-keyboard-response","180","687014","0.0-9.0-2.0-0.47","1706","1","2","""event"",""trial"",""time""
""fullscreenenter"",""1"",""3160""
","
","
","""event"",""trial"",""time""
""fullscreenenter"",""1"",""3160""
","
","","","","","","null","<div style=""font-size:60px;"">+</div>","null","","fixation","","","","","","","","","","","","","",""
"learning-trial","181","691020","0.0-9.0-2.0-1.47","1706","1","2","""event"",""trial"",""time""
""fullscreenenter"",""1"",""3160""
","
","
","""event"",""trial"",""time""
""fullscreenenter"",""1"",""3160""
","
","","","","","","2389.5","images/chair2.png","","","learning","images/furniture_choice2.png","images/furniture_choice3.png","images/furniture_choice1.png","[1,2,0]","0","2","3","images/furniture_choice1.png","1","furniture","","chair","1","0"
"html-keyboard-response","182","691525","0.0-9.0-2.0-0.48","1706","1","2","""event"",""trial"",""time""
""fullscreenenter"",""1"",""3160""
","
","
","""event"",""trial"",""time""
""fullscreenenter"",""1"",""3160""
","
","","","","","","null","<div style=""font-size:60px;"">+</div>","null","","fixation","","","","","","","","","","","","","",""
"learning-trial","183","695530","0.0-9.0-2.0-1.48","1706","1","2","""event"",""trial"",""time""
""fullscreenenter"",""1"",""3160""
","
","
","""event"",""trial"",""time""
""fullscreenenter"",""1"",""3160""
","
","","","","","","1651.4000000357628","images/sofa2.png","","","learning","images/furniture_choice3.png","images/furniture_choice1.png","images/furniture_choice2.png","[2,0,1]","1","2","3","images/furniture_choice2.png","1","furniture","","sofa","1","0"
"html-keyboard-response","184","696035","0.0-9.0-2.0-0.49","1706","1","2","""event"",""trial"",""time""
""fullscreenenter"",""1"",""3160""
","
","
","""event"",""trial"",""time""
""fullscreenenter"",""1"",""3160""
","
","","","","","","null","<div style=""font-size:60px;"">+</div>","null","","fixation","","","","","","","","","","","","","",""
"learning-trial","185","700041","0.0-9.0-2.0-1.49","1706","1","2","""event"",""trial"",""time""
""fullscreenenter"",""1"",""3160""
","
","
","""event"",""trial"",""time""
""fullscreenenter"",""1"",""3160""
","
","","","","","","1305.800000011921","images/chair4.png","","","learning","images/furniture_choice1.png","images/furniture_choice3.png","images/furniture_choice2.png","[0,2,1]","0","0","1","images/furniture_choice1.png","1","furniture","","chair","1","0"
"html-keyboard-response","186","700546","0.0-9.0-2.0-0.50","1706","1","2","""event"",""trial"",""time""
""fullscreenenter"",""1"",""3160""
","
","
","""event"",""trial"",""time""
""fullscreenenter"",""1"",""3160""
","
","","","","","","null","<div style=""font-size:60px;"">+</div>","null","","fixation","","","","","","","","","","","","","",""
"learning-trial","187","704552","0.0-9.0-2.0-1.50","1706","1","2","""event"",""trial"",""time""
""fullscreenenter"",""1"",""3160""
","
","
","""event"",""trial"",""time""
""fullscreenenter"",""1"",""3160""
","
","","","","","","2035.699999988079","images/chair1.png","","","learning","images/furniture_choice2.png","images/furniture_choice1.png","images/furniture_choice3.png","[1,0,2]","0","1","2","images/furniture_choice1.png","1","furniture","","chair","1","0"
"html-keyboard-response","188","705057","0.0-9.0-2.0-0.51","1706","1","2","""event"",""trial"",""time""
""fullscreenenter"",""1"",""3160""
","
","
","""event"",""trial"",""time""
""fullscreenenter"",""1"",""3160""
","
","","","","","","null","<div style=""font-size:60px;"">+</div>","null","","fixation","","","","","","","","","","","","","",""
"learning-trial","189","709063","0.0-9.0-2.0-1.51","1706","1","2","""event"",""trial"",""time""
""fullscreenenter"",""1"",""3160""
","
","
","""event"",""trial"",""time""
""fullscreenenter"",""1"",""3160""
","
","","","","","","1325.8999999761581","images/sofa2.png","","","learning","images/furniture_choice2.png","images/furniture_choice1.png","images/furniture_choice3.png","[1,0,2]","1","0","1","images/furniture_choice2.png","1","furniture","","sofa","1","0"
"html-keyboard-response","190","709567","0.0-9.0-2.0-0.52","1706","1","2","""event"",""trial"",""time""
""fullscreenenter"",""1"",""3160""
","
","
","""event"",""trial"",""time""
""fullscreenenter"",""1"",""3160""
","
","","","","","","null","<div style=""font-size:60px;"">+</div>","null","","fixation","","","","","","","","","","","","","",""
"learning-trial","191","713573","0.0-9.0-2.0-1.52","1706","1","2","""event"",""trial"",""time""
""fullscreenenter"",""1"",""3160""
","
","
","""event"",""trial"",""time""
""fullscreenenter"",""1"",""3160""
","
","","","","","","2046.300000011921","images/chair1.png","","","learning","images/furniture_choice3.png","images/furniture_choice1.png","images/furniture_choice2.png","[2,0,1]","0","1","1","images/furniture_choice3.png","-1","furniture","","chair","1","0"
"html-keyboard-response","192","714078","0.0-9.0-2.0-0.53","1706","1","2","""event"",""trial"",""time""
""fullscreenenter"",""1"",""3160""
","
","
","""event"",""trial"",""time""
""fullscreenenter"",""1"",""3160""
","
","","","","","","null","<div style=""font-size:60px;"">+</div>","null","","fixation","","","","","","","","","","","","","",""
"learning-trial","193","718084","0.0-9.0-2.0-1.53","1706","1","2","""event"",""trial"",""time""
""fullscreenenter"",""1"",""3160""
","
","
","""event"",""trial"",""time""
""fullscreenenter"",""1"",""3160""
","
","","","","","","2040","images/chair4.png","","","learning","images/furniture_choice1.png","images/furniture_choice3.png","images/furniture_choice2.png","[0,2,1]","0","0","1","images/furniture_choice1.png","1","furniture","","chair","1","0"
"html-keyboard-response","194","718588","0.0-9.0-2.0-0.54","1706","1","2","""event"",""trial"",""time""
""fullscreenenter"",""1"",""3160""
","
","
","""event"",""trial"",""time""
""fullscreenenter"",""1"",""3160""
","
","","","","","","null","<div style=""font-size:60px;"">+</div>","null","","fixation","","","","","","","","","","","","","",""
"learning-trial","195","722594","0.0-9.0-2.0-1.54","1706","1","2","""event"",""trial"",""time""
""fullscreenenter"",""1"",""3160""
","
","
","""event"",""trial"",""time""
""fullscreenenter"",""1"",""3160""
","
","","","","","","1205","images/table1.png","","","learning","images/furniture_choice3.png","images/furniture_choice1.png","images/furniture_choice2.png","[2,0,1]","2","0","1","images/furniture_choice3.png","1","furniture","","table","1","0"
"html-keyboard-response","196","723099","0.0-9.0-2.0-0.55","1706","1","2","""event"",""trial"",""time""
""fullscreenenter"",""1"",""3160""
","
","
","""event"",""trial"",""time""
""fullscreenenter"",""1"",""3160""
","
","","","","","","null","<div style=""font-size:60px;"">+</div>","null","","fixation","","","","","","","","","","","","","",""
"learning-trial","197","727105","0.0-9.0-2.0-1.55","1706","1","2","""event"",""trial"",""time""
""fullscreenenter"",""1"",""3160""
","
","
","""event"",""trial"",""time""
""fullscreenenter"",""1"",""3160""
","
","","","","","","1535.7999999523163","images/sofa1.png","","","learning","images/furniture_choice1.png","images/furniture_choice2.png","images/furniture_choice3.png","[0,1,2]","1","1","2","images/furniture_choice2.png","1","furniture","","sofa","1","0"
"html-keyboard-response","198","727610","0.0-9.0-2.0-0.56","1706","1","2","""event"",""trial"",""time""
""fullscreenenter"",""1"",""3160""
","
","
","""event"",""trial"",""time""
""fullscreenenter"",""1"",""3160""
","
","","","","","","null","<div style=""font-size:60px;"">+</div>","null","","fixation","","","","","","","","","","","","","",""
"learning-trial","199","731616","0.0-9.0-2.0-1.56","1706","1","2","""event"",""trial"",""time""
""fullscreenenter"",""1"",""3160""
","
","
","""event"",""trial"",""time""
""fullscreenenter"",""1"",""3160""
","
","","","","","","1395.3999999761581","images/table1.png","","","learning","images/furniture_choice3.png","images/furniture_choice2.png","images/furniture_choice1.png","[2,1,0]","2","0","1","images/furniture_choice3.png","1","furniture","","table","1","0"
"html-keyboard-response","200","732121","0.0-9.0-2.0-0.57","1706","1","2","""event"",""trial"",""time""
""fullscreenenter"",""1"",""3160""
","
","
","""event"",""trial"",""time""
""fullscreenenter"",""1"",""3160""
","
","","","","","","null","<div style=""font-size:60px;"">+</div>","null","","fixation","","","","","","","","","","","","","",""
"learning-trial","201","736126","0.0-9.0-2.0-1.57","1706","1","2","""event"",""trial"",""time""
""fullscreenenter"",""1"",""3160""
","
","
","""event"",""trial"",""time""
""fullscreenenter"",""1"",""3160""
","
","","","","","","1216","images/table2.png","","","learning","images/furniture_choice3.png","images/furniture_choice2.png","images/furniture_choice1.png","[2,1,0]","2","0","1","images/furniture_choice3.png","1","furniture","","table","1","0"
"html-keyboard-response","202","736631","0.0-9.0-2.0-0.58","1706","1","2","""event"",""trial"",""time""
""fullscreenenter"",""1"",""3160""
","
","
","""event"",""trial"",""time""
""fullscreenenter"",""1"",""3160""
","
","","","","","","null","<div style=""font-size:60px;"">+</div>","null","","fixation","","","","","","","","","","","","","",""
"learning-trial","203","740637","0.0-9.0-2.0-1.58","1706","1","2","""event"",""trial"",""time""
""fullscreenenter"",""1"",""3160""
","
","
","""event"",""trial"",""time""
""fullscreenenter"",""1"",""3160""
","
","","","","","","1686.300000011921","images/chair2.png","","","learning","images/furniture_choice2.png","images/furniture_choice1.png","images/furniture_choice3.png","[1,0,2]","0","1","2","images/furniture_choice1.png","1","furniture","","chair","1","0"
"html-keyboard-response","204","741142","0.0-9.0-2.0-0.59","1706","1","2","""event"",""trial"",""time""
""fullscreenenter"",""1"",""3160""
","
","
","""event"",""trial"",""time""
""fullscreenenter"",""1"",""3160""
","
","","","","","","null","<div style=""font-size:60px;"">+</div>","null","","fixation","","","","","","","","","","","","","",""
"learning-trial","205","745147","0.0-9.0-2.0-1.59","1706","1","2","""event"",""trial"",""time""
""fullscreenenter"",""1"",""3160""
","
","
","""event"",""trial"",""time""
""fullscreenenter"",""1"",""3160""
","
","","","","","","942.3000000119209","images/chair2.png","","","learning","images/furniture_choice1.png","images/furniture_choice3.png","images/furniture_choice2.png","[0,2,1]","0","0","1","images/furniture_choice1.png","1","furniture","","chair","1","0"
"html-keyboard-response","206","745652","0.0-9.0-2.0-0.60","1706","1","2","""event"",""trial"",""time""
""fullscreenenter"",""1"",""3160""
","
","
","""event"",""trial"",""time""
""fullscreenenter"",""1"",""3160""
","
","","","","","","null","<div style=""font-size:60px;"">+</div>","null","","fixation","","","","","","","","","","","","","",""
"learning-trial","207","749658","0.0-9.0-2.0-1.60","1706","1","2","""event"",""trial"",""time""
""fullscreenenter"",""1"",""3160""
","
","
","""event"",""trial"",""time""
""fullscreenenter"",""1"",""3160""
","
","","","","","","1790.699999988079","images/chair2.png","","","learning","images/furniture_choice3.png","images/furniture_choice1.png","images/furniture_choice2.png","[2,0,1]","0","1","2","images/furniture_choice1.png","1","furniture","","chair","1","0"
"html-keyboard-response","208","750163","0.0-9.0-2.0-0.61","1706","1","2","""event"",""trial"",""time""
""fullscreenenter"",""1"",""3160""
","
","
","""event"",""trial"",""time""
""fullscreenenter"",""1"",""3160""
","
","","","","","","null","<div style=""font-size:60px;"">+</div>","null","","fixation","","","","","","","","","","","","","",""
"learning-trial","209","754169","0.0-9.0-2.0-1.61","1706","1","2","""event"",""trial"",""time""
""fullscreenenter"",""1"",""3160""
","
","
","""event"",""trial"",""time""
""fullscreenenter"",""1"",""3160""
","
","","","","","","1129.5999999642372","images/chair2.png","","","learning","images/furniture_choice3.png","images/furniture_choice1.png","images/furniture_choice2.png","[2,0,1]","0","1","2","images/furniture_choice1.png","1","furniture","","chair","1","0"
"html-keyboard-response","210","754673","0.0-9.0-2.0-0.62","1706","1","2","""event"",""trial"",""time""
""fullscreenenter"",""1"",""3160""
","
","
","""event"",""trial"",""time""
""fullscreenenter"",""1"",""3160""
","
","","","","","","null","<div style=""font-size:60px;"">+</div>","null","","fixation","","","","","","","","","","","","","",""
"learning-trial","211","758679","0.0-9.0-2.0-1.62","1706","1","2","""event"",""trial"",""time""
""fullscreenenter"",""1"",""3160""
","
","
","""event"",""trial"",""time""
""fullscreenenter"",""1"",""3160""
","
","","","","","","1289.6000000238419","images/chair1.png","","","learning","images/furniture_choice2.png","images/furniture_choice1.png","images/furniture_choice3.png","[1,0,2]","0","1","2","images/furniture_choice1.png","1","furniture","","chair","1","0"
"html-keyboard-response","212","759184","0.0-9.0-2.0-0.63","1706","1","2","""event"",""trial"",""time""
""fullscreenenter"",""1"",""3160""
","
","
","""event"",""trial"",""time""
""fullscreenenter"",""1"",""3160""
","
","","","","","","null","<div style=""font-size:60px;"">+</div>","null","","fixation","","","","","","","","","","","","","",""
"learning-trial","213","763192","0.0-9.0-2.0-1.63","1706","1","2","""event"",""trial"",""time""
""fullscreenenter"",""1"",""3160""
","
","
","""event"",""trial"",""time""
""fullscreenenter"",""1"",""3160""
","
","","","","","","1174.1000000238419","images/table1.png","","","learning","images/furniture_choice1.png","images/furniture_choice3.png","images/furniture_choice2.png","[0,2,1]","2","1","2","images/furniture_choice3.png","1","furniture","","table","1","0"
"html-keyboard-response","214","763696","0.0-9.0-2.0-0.64","1706","1","2","""event"",""trial"",""time""
""fullscreenenter"",""1"",""3160""
","
","
","""event"",""trial"",""time""
""fullscreenenter"",""1"",""3160""
","
","","","","","","null","<div style=""font-size:60px;"">+</div>","null","","fixation","","","","","","","","","","","","","",""
"learning-trial","215","767700","0.0-9.0-2.0-1.64","1706","1","2","""event"",""trial"",""time""
""fullscreenenter"",""1"",""3160""
","
","
","""event"",""trial"",""time""
""fullscreenenter"",""1"",""3160""
","
","","","","","","1084.3999999761581","images/table1.png","","","learning","images/furniture_choice2.png","images/furniture_choice3.png","images/furniture_choice1.png","[1,2,0]","2","1","2","images/furniture_choice3.png","1","furniture","","table","1","0"
"html-keyboard-response","216","768205","0.0-9.0-2.0-0.65","1706","1","2","""event"",""trial"",""time""
""fullscreenenter"",""1"",""3160""
","
","
","""event"",""trial"",""time""
""fullscreenenter"",""1"",""3160""
","
","","","","","","null","<div style=""font-size:60px;"">+</div>","null","","fixation","","","","","","","","","","","","","",""
"learning-trial","217","772211","0.0-9.0-2.0-1.65","1706","1","2","""event"",""trial"",""time""
""fullscreenenter"",""1"",""3160""
","
","
","""event"",""trial"",""time""
""fullscreenenter"",""1"",""3160""
","
","","","","","","1651.6000000238419","images/chair4.png","","","learning","images/furniture_choice1.png","images/furniture_choice3.png","images/furniture_choice2.png","[0,2,1]","0","0","1","images/furniture_choice1.png","1","furniture","","chair","1","0"
"html-keyboard-response","218","772716","0.0-9.0-2.0-0.66","1706","1","2","""event"",""trial"",""time""
""fullscreenenter"",""1"",""3160""
","
","
","""event"",""trial"",""time""
""fullscreenenter"",""1"",""3160""
","
","","","","","","null","<div style=""font-size:60px;"">+</div>","null","","fixation","","","","","","","","","","","","","",""
"learning-trial","219","776722","0.0-9.0-2.0-1.66","1706","1","2","""event"",""trial"",""time""
""fullscreenenter"",""1"",""3160""
","
","
","""event"",""trial"",""time""
""fullscreenenter"",""1"",""3160""
","
","","","","","","1253.800000011921","images/chair4.png","","","learning","images/furniture_choice1.png","images/furniture_choice3.png","images/furniture_choice2.png","[0,2,1]","0","0","1","images/furniture_choice1.png","1","furniture","","chair","1","0"
"html-keyboard-response","220","777227","0.0-9.0-2.0-0.67","1706","1","2","""event"",""trial"",""time""
""fullscreenenter"",""1"",""3160""
","
","
","""event"",""trial"",""time""
""fullscreenenter"",""1"",""3160""
","
","","","","","","null","<div style=""font-size:60px;"">+</div>","null","","fixation","","","","","","","","","","","","","",""
"learning-trial","221","781232","0.0-9.0-2.0-1.67","1706","1","2","""event"",""trial"",""time""
""fullscreenenter"",""1"",""3160""
","
","
","""event"",""trial"",""time""
""fullscreenenter"",""1"",""3160""
","
","","","","","","2685.300000011921","images/table1.png","","","learning","images/furniture_choice3.png","images/furniture_choice2.png","images/furniture_choice1.png","[2,1,0]","2","0","1","images/furniture_choice3.png","1","furniture","","table","1","0"
"html-keyboard-response","222","781737","0.0-9.0-2.0-0.68","1706","1","2","""event"",""trial"",""time""
""fullscreenenter"",""1"",""3160""
","
","
","""event"",""trial"",""time""
""fullscreenenter"",""1"",""3160""
","
","","","","","","null","<div style=""font-size:60px;"">+</div>","null","","fixation","","","","","","","","","","","","","",""
"learning-trial","223","785743","0.0-9.0-2.0-1.68","1706","1","2","""event"",""trial"",""time""
""fullscreenenter"",""1"",""3160""
","
","
","""event"",""trial"",""time""
""fullscreenenter"",""1"",""3160""
","
","","","","","","1066.800000011921","images/table5.png","","","learning","images/furniture_choice3.png","images/furniture_choice2.png","images/furniture_choice1.png","[2,1,0]","2","0","1","images/furniture_choice3.png","1","furniture","","table","1","0"
"html-keyboard-response","224","786248","0.0-9.0-2.0-0.69","1706","1","2","""event"",""trial"",""time""
""fullscreenenter"",""1"",""3160""
","
","
","""event"",""trial"",""time""
""fullscreenenter"",""1"",""3160""
","
","","","","","","null","<div style=""font-size:60px;"">+</div>","null","","fixation","","","","","","","","","","","","","",""
"learning-trial","225","790254","0.0-9.0-2.0-1.69","1706","1","2","""event"",""trial"",""time""
""fullscreenenter"",""1"",""3160""
","
","
","""event"",""trial"",""time""
""fullscreenenter"",""1"",""3160""
","
","","","","","","819.8000000119209","images/table2.png","","","learning","images/furniture_choice3.png","images/furniture_choice1.png","images/furniture_choice2.png","[2,0,1]","2","0","1","images/furniture_choice3.png","1","furniture","","table","1","0"
"html-keyboard-response","226","790758","0.0-9.0-2.0-0.70","1706","1","2","""event"",""trial"",""time""
""fullscreenenter"",""1"",""3160""
","
","
","""event"",""trial"",""time""
""fullscreenenter"",""1"",""3160""
","
","","","","","","null","<div style=""font-size:60px;"">+</div>","null","","fixation","","","","","","","","","","","","","",""
"learning-trial","227","794764","0.0-9.0-2.0-1.70","1706","1","2","""event"",""trial"",""time""
""fullscreenenter"",""1"",""3160""
","
","
","""event"",""trial"",""time""
""fullscreenenter"",""1"",""3160""
","
","","","","","","2016.3999999761581","images/sofa3.png","","","learning","images/furniture_choice3.png","images/furniture_choice1.png","images/furniture_choice2.png","[2,0,1]","1","2","3","images/furniture_choice2.png","1","furniture","","sofa","1","0"
"html-keyboard-response","228","795269","0.0-9.0-2.0-0.71","1706","1","2","""event"",""trial"",""time""
""fullscreenenter"",""1"",""3160""
","
","
","""event"",""trial"",""time""
""fullscreenenter"",""1"",""3160""
","
","","","","","","null","<div style=""font-size:60px;"">+</div>","null","","fixation","","","","","","","","","","","","","",""
"learning-trial","229","799275","0.0-9.0-2.0-1.71","1706","1","2","""event"",""trial"",""time""
""fullscreenenter"",""1"",""3160""
","
","
","""event"",""trial"",""time""
""fullscreenenter"",""1"",""3160""
","
","","","","","","1350","images/chair1.png","","","learning","images/furniture_choice1.png","images/furniture_choice2.png","images/furniture_choice3.png","[0,1,2]","0","0","1","images/furniture_choice1.png","1","furniture","","chair","1","0"
"html-button-response","230","802787","0.0-9.0-3.0","1706","1","2","""event"",""trial"",""time""
""fullscreenenter"",""1"",""3160""
","
","
","""event"",""trial"",""time""
""fullscreenenter"",""1"",""3160""
","
","","","","","","3510.400000035763","<p> You have completed the round! <p> In this round, you earned 42 points! </p>","0","","break","","","","","","","","","","","","","",""
"html-button-response","231","804199","0.0-10.0","1706","1","2","""event"",""trial"",""time""
""fullscreenenter"",""1"",""3160""
","
","
","""event"",""trial"",""time""
""fullscreenenter"",""1"",""3160""
","
","","","","","","1411.1000000238419","<p> Now it's time to play another round. </p>","0","","transition_screen","","","","","","","","","","","","","",""
"preload","232","809175","0.0-11.0-0.0","1706","1","2","""event"",""trial"",""time""
""fullscreenenter"",""1"",""3160""
","
","
","""event"",""trial"",""time""
""fullscreenenter"",""1"",""3160""
","
","true","false","[]","[]","[]","","","","","","","","","","","","","","","","","","",""
"learning-instructions","233","819703","0.0-11.0-1.0-0.0","1706","1","2","""event"",""trial"",""time""
""fullscreenenter"",""1"",""3160""
","
","
","""event"",""trial"",""time""
""fullscreenenter"",""1"",""3160""
","
","","","","","","2040.5","<p> Your goal in this round is to travel the world by putting fuel into different vehicles. </p><p> To travel, you will need to put fuel into many different vehicles. </p></div>","","0","instructions","","","","","","","","","","","","","",""
"learning-instructions","234","829514","0.0-11.0-1.0-0.1","1706","1","2","""event"",""trial"",""time""
""fullscreenenter"",""1"",""3160""
","
","
","""event"",""trial"",""time""
""fullscreenenter"",""1"",""3160""
","
","","","","","","1030.800000011921","<p> On each turn, you will see a picture of one of your vehicles and three different types of fuel.  </p><p> You need to select which kind of fuel to use.  </p>","","0","instructions","","","","","","","","","","","","","",""
"learning-instructions","235","837339","0.0-11.0-1.0-0.2","1706","1","2","""event"",""trial"",""time""
""fullscreenenter"",""1"",""3160""
","
","
