"trial_type","trial_index","time_elapsed","internal_node_id","subject_id","condition","task_version","interactions","blur_events","focus_events","fullscreenenter_events","fullscreenexit_events","success","timeout","failed_images","failed_audio","failed_video","rt","stimulus","response","button_pressed","task_part","left_choice","middle_choice","right_choice","choice_positions","correct_response","correct_position","key_press","option_selected","points","task_block","correct","stim_cat","block_condition","block_number"
"pavlovia","0","9","0.0-0.0","1838","2","2","""event"",""trial"",""time""
""focus"",""0"",""1""
""fullscreenenter"",""1"",""2383""
","
","""event"",""trial"",""time""
""focus"",""0"",""1""
","""event"",""trial"",""time""
""fullscreenenter"",""1"",""2383""
","
","","","","","","","","","","","","","","","","","","","","","","","",""
"fullscreen","1","3158","0.0-1.0","1838","2","2","""event"",""trial"",""time""
""focus"",""0"",""1""
""fullscreenenter"",""1"",""2383""
","
","""event"",""trial"",""time""
""focus"",""0"",""1""
","""event"",""trial"",""time""
""fullscreenenter"",""1"",""2383""
","
","true","","","","","","","","","","","","","","","","","","","","","","",""
"preload","2","20111","0.0-2.0","1838","2","2","""event"",""trial"",""time""
""focus"",""0"",""1""
""fullscreenenter"",""1"",""2383""
","
","""event"",""trial"",""time""
""focus"",""0"",""1""
","""event"",""trial"",""time""
""fullscreenenter"",""1"",""2383""
","
","true","false","[]","[]","[]","","","","","","","","","","","","","","","","","","",""
"audio-keyboard-response","3","21850","0.0-3.0","1838","2","2","""event"",""trial"",""time""
""focus"",""0"",""1""
""fullscreenenter"",""1"",""2383""
","
","""event"",""trial"",""time""
""focus"",""0"",""1""
","""event"",""trial"",""time""
""fullscreenenter"",""1"",""2383""
","
","","","","","","1741.3333333333335","audio/beep_loop.wav"," ","","","","","","","","","","","","","","","",""
"audio-button-response","4","24479","0.0-4.0","1838","2","2","""event"",""trial"",""time""
""focus"",""0"",""1""
""fullscreenenter"",""1"",""2383""
","
","""event"",""trial"",""time""
""focus"",""0"",""1""
","""event"",""trial"",""time""
""fullscreenenter"",""1"",""2383""
","
","","","","","","2629","audio/shark.wav","4","","","","","","","","","","","","","","","",""
"audio-button-response","5","26609","0.0-5.0","1838","2","2","""event"",""trial"",""time""
""focus"",""0"",""1""
""fullscreenenter"",""1"",""2383""
","
","""event"",""trial"",""time""
""focus"",""0"",""1""
","""event"",""trial"",""time""
""fullscreenenter"",""1"",""2383""
","
","","","","","","1131","audio/turtle.wav","1","","","","","","","","","","","","","","","",""
"preload","6","32956","0.0-6.0","1838","2","2","""event"",""trial"",""time""
""focus"",""0"",""1""
""fullscreenenter"",""1"",""2383""
","
","""event"",""trial"",""time""
""focus"",""0"",""1""
","""event"",""trial"",""time""
""fullscreenenter"",""1"",""2383""
","
","true","false","[]","[]","[]","","","","","","","","","","","","","","","","","","",""
"html-keyboard-response","7","34314","0.0-7.0","1838","2","2","""event"",""trial"",""time""
""focus"",""0"",""1""
""fullscreenenter"",""1"",""2383""
","
","""event"",""trial"",""time""
""focus"",""0"",""1""
","""event"",""trial"",""time""
""fullscreenenter"",""1"",""2383""
","
","","","","","","1356","Welcome to the experiment. Press any key to begin and to advance the instructions."," ","","","","","","","","","","","","","","","",""
"learning-instructions","8","43223","0.0-8.0-0.0-0.0","1838","2","2","""event"",""trial"",""time""
""focus"",""0"",""1""
""fullscreenenter"",""1"",""2383""
","
","""event"",""trial"",""time""
""focus"",""0"",""1""
","""event"",""trial"",""time""
""fullscreenenter"",""1"",""2383""
","
","","","","","","1149","<p> Welcome! Today you are going to play 6 different rounds of a decision-making game. </p><p> Use the mouse to click next to continue. </p>","","0","instructions","","","","","","","","","","","","","",""
"learning-instructions","9","46727","0.0-8.0-0.0-0.1","1838","2","2","""event"",""trial"",""time""
""focus"",""0"",""1""
""fullscreenenter"",""1"",""2383""
","
","""event"",""trial"",""time""
""focus"",""0"",""1""
","""event"",""trial"",""time""
""fullscreenenter"",""1"",""2383""
","
","","","","","","483","<p> You will start with a practice round to learn the rules. </p>","","0","instructions","","","","","","","","","","","","","",""
"learning-instructions","10","54835","0.0-8.0-0.0-0.2","1838","2","2","""event"",""trial"",""time""
""focus"",""0"",""1""
""fullscreenenter"",""1"",""2383""
","
","""event"",""trial"",""time""
""focus"",""0"",""1""
","""event"",""trial"",""time""
""fullscreenenter"",""1"",""2383""
","
","","","","","","352","<p> Your goal in this round is to deliver sports equipment to three different parks. </p><p> You will need to deliver many types of equipment. </p></div>","","0","instructions","","","","","","","","","","","","","",""
"learning-instructions","11","63623","0.0-8.0-0.0-0.3","1838","2","2","""event"",""trial"",""time""
""focus"",""0"",""1""
""fullscreenenter"",""1"",""2383""
","
","""event"",""trial"",""time""
""focus"",""0"",""1""
","""event"",""trial"",""time""
""fullscreenenter"",""1"",""2383""
","
","","","","","","290","<p> On each turn, you will see one piece of sports equipment and three different parks.  </p><p> You need to select which park to deliver the equipment to.  </p>","","0","instructions","","","","","","","","","","","","","",""
"learning-instructions","12","77245","0.0-8.0-0.0-0.4","1838","2","2","""event"",""trial"",""time""
""focus"",""0"",""1""
""fullscreenenter"",""1"",""2383""
","
","""event"",""trial"",""time""
""focus"",""0"",""1""
","""event"",""trial"",""time""
""fullscreenenter"",""1"",""2383""
","
","","","","","","320","<p> You can select the park on the left by pressing the '1' key on your keyboard. <br>You can select the park in the middle by pressing the '2' key on your keyboard. <br>You can select the park on the right by pressing the '3' key on your keyboard.  </p><br><div class=""choice-instructions-grid""> <div class=""choice-option""><img src=""images/park1.png"" class=""choice-option-img"" stage=""instructions"" position=""0"" ><div class=""choice-option-text""> Press ""1."" </div></div><div class=""choice-option""><img src=""images/park2.png"" class=""choice-option-img"" stage=""instructions"" position=""1"" ><div class=""choice-option-text""> Press ""2."" </div></div><div class=""choice-option""><img src=""images/park3.png"" class=""choice-option-img"" stage=""instructions"" position=""2"" ><div class=""choice-option-text""> Press ""3."" </div></div></div>","","0","instructions","","","","","","","","","","","","","",""
"learning-instructions","13","82941","0.0-8.0-0.0-0.5","1838","2","2","""event"",""trial"",""time""
""focus"",""0"",""1""
""fullscreenenter"",""1"",""2383""
","
","""event"",""trial"",""time""
""focus"",""0"",""1""
","""event"",""trial"",""time""
""fullscreenenter"",""1"",""2383""
","
","","","","","","295","<p> If the kids in the park you chose like the equipment, they will be very happy! </p><div style='float: center;'><img src='images/check.png' width = '200' height = '200'></img>","","0","instructions","","","","","","","","","","","","","",""
"learning-instructions","14","88842","0.0-8.0-0.0-0.6","1838","2","2","""event"",""trial"",""time""
""focus"",""0"",""1""
""fullscreenenter"",""1"",""2383""
","
","""event"",""trial"",""time""
""focus"",""0"",""1""
","""event"",""trial"",""time""
""fullscreenenter"",""1"",""2383""
","
","","","","","","299","<p> But, if the kids in the park you chose do not like the equipment, they will be sad. </p><div style='float: center;'><img src='images/x.png' width = '200' height = '200'></img>","","0","instructions","","","","","","","","","","","","","",""
"learning-instructions","15","95751","0.0-8.0-0.0-0.7","1838","2","2","""event"",""trial"",""time""
""focus"",""0"",""1""
""fullscreenenter"",""1"",""2383""
","
","""event"",""trial"",""time""
""focus"",""0"",""1""
","""event"",""trial"",""time""
""fullscreenenter"",""1"",""2383""
","
","","","","","","448","<p> Importantly, the kids in each park like some pieces of sports equipment more than others. </p>","","0","instructions","","","","","","","","","","","","","",""
"learning-instructions","16","102359","0.0-8.0-0.0-0.8","1838","2","2","""event"",""trial"",""time""
""focus"",""0"",""1""
""fullscreenenter"",""1"",""2383""
","
","""event"",""trial"",""time""
""focus"",""0"",""1""
","""event"",""trial"",""time""
""fullscreenenter"",""1"",""2383""
","
","","","","","","544","<p> If you choose the best park for each piece of equipment, the kids there will usually be happy. </p>","","0","instructions","","","","","","","","","","","","","",""
"learning-instructions","17","109123","0.0-8.0-0.0-0.9","1838","2","2","""event"",""trial"",""time""
""focus"",""0"",""1""
""fullscreenenter"",""1"",""2383""
","
","""event"",""trial"",""time""
""focus"",""0"",""1""
","""event"",""trial"",""time""
""fullscreenenter"",""1"",""2383""
","
","","","","","","110","<p> However, even if you choose the best park for the equipment, the kids may sometimes be sad. </p>","","0","instructions","","","","","","","","","","","","","",""
"learning-instructions","18","116920","0.0-8.0-0.0-0.10","1838","2","2","""event"",""trial"",""time""
""focus"",""0"",""1""
""fullscreenenter"",""1"",""2383""
","
","""event"",""trial"",""time""
""focus"",""0"",""1""
","""event"",""trial"",""time""
""fullscreenenter"",""1"",""2383""
","
","","","","","","538","<p> Similarly, even if you choose the <i>wrong</i> park for the equipment, the kids may still be happy sometimes.","","0","instructions","","","","","","","","","","","","","",""
"learning-instructions","19","122100","0.0-8.0-0.0-0.11","1838","2","2","""event"",""trial"",""time""
""focus"",""0"",""1""
""fullscreenenter"",""1"",""2383""
","
","""event"",""trial"",""time""
""focus"",""0"",""1""
","""event"",""trial"",""time""
""fullscreenenter"",""1"",""2383""
","
","","","","","","115","<p> For example, the best park for this soccer ball is this one.<div style='float: center;'><img src='images/i1.png' width = '500' height = '268'></img>","","0","instructions","","","","","","","","","","","","","",""
"learning-instructions","20","127746","0.0-8.0-0.0-0.12","1838","2","2","""event"",""trial"",""time""
""focus"",""0"",""1""
""fullscreenenter"",""1"",""2383""
","
","""event"",""trial"",""time""
""focus"",""0"",""1""
","""event"",""trial"",""time""
""fullscreenenter"",""1"",""2383""
","
","","","","","","343","<p> Let's see what happens if you choose this park for the soccer ball five times.","","0","instructions","","","","","","","","","","","","","",""
"learning-instructions","21","130113","0.0-8.0-0.0-0.13","1838","2","2","""event"",""trial"",""time""
""focus"",""0"",""1""
""fullscreenenter"",""1"",""2383""
","
","""event"",""trial"",""time""
""focus"",""0"",""1""
","""event"",""trial"",""time""
""fullscreenenter"",""1"",""2383""
","
","","","","","","169","<p> The kids are happy.<div style='float: left;'><img src='images/i2.png' width = '640' height = '360'></img>","","0","instructions","","","","","","","","","","","","","",""
"learning-instructions","22","132712","0.0-8.0-0.0-0.14","1838","2","2","""event"",""trial"",""time""
""focus"",""0"",""1""
""fullscreenenter"",""1"",""2383""
","
","""event"",""trial"",""time""
""focus"",""0"",""1""
","""event"",""trial"",""time""
""fullscreenenter"",""1"",""2383""
","
","","","","","","409","<p> The kids are happy.<div style='float: left;'><img src='images/i3.png' width = '640' height = '360'></img>","","0","instructions","","","","","","","","","","","","","",""
"learning-instructions","23","135178","0.0-8.0-0.0-0.15","1838","2","2","""event"",""trial"",""time""
""focus"",""0"",""1""
""fullscreenenter"",""1"",""2383""
","
","""event"",""trial"",""time""
""focus"",""0"",""1""
","""event"",""trial"",""time""
""fullscreenenter"",""1"",""2383""
","
","","","","","","274","<p> The kids are happy.<div style='float: left;'><img src='images/i4.png' width = '640' height = '360'></img>","","0","instructions","","","","","","","","","","","","","",""
"learning-instructions","24","137725","0.0-8.0-0.0-0.16","1838","2","2","""event"",""trial"",""time""
""focus"",""0"",""1""
""fullscreenenter"",""1"",""2383""
","
","""event"",""trial"",""time""
""focus"",""0"",""1""
","""event"",""trial"",""time""
""fullscreenenter"",""1"",""2383""
","
","","","","","","322","<p> The kids are sad.<div style='float: left;'><img src='images/i5.png' width = '640' height = '360'></img>","","0","instructions","","","","","","","","","","","","","",""
"learning-instructions","25","140388","0.0-8.0-0.0-0.17","1838","2","2","""event"",""trial"",""time""
""focus"",""0"",""1""
""fullscreenenter"",""1"",""2383""
","
","""event"",""trial"",""time""
""focus"",""0"",""1""
","""event"",""trial"",""time""
""fullscreenenter"",""1"",""2383""
","
","","","","","","475","<p> The kids are happy.<div style='float: left;'><img src='images/i6.png' width = '640' height = '360'></img>","","0","instructions","","","","","","","","","","","","","",""
"learning-instructions","26","148078","0.0-8.0-0.0-0.18","1838","2","2","""event"",""trial"",""time""
""focus"",""0"",""1""
""fullscreenenter"",""1"",""2383""
","
","""event"",""trial"",""time""
""focus"",""0"",""1""
","""event"",""trial"",""time""
""fullscreenenter"",""1"",""2383""
","
","","","","","","404","<p> As you can see, selecting that park for the soccer ball made the kids happy most of the time, but not all the time.","","0","instructions","","","","","","","","","","","","","",""
"learning-instructions","27","154379","0.0-8.0-0.0-0.19","1838","2","2","""event"",""trial"",""time""
""focus"",""0"",""1""
""fullscreenenter"",""1"",""2383""
","
","""event"",""trial"",""time""
""focus"",""0"",""1""
","""event"",""trial"",""time""
""fullscreenenter"",""1"",""2383""
","
","","","","","","286","<p> Now let's see what happens if you choose a DIFFERENT park for the soccer ball 5 times.","","0","instructions","","","","","","","","","","","","","",""
"learning-instructions","28","156996","0.0-8.0-0.0-0.20","1838","2","2","""event"",""trial"",""time""
""focus"",""0"",""1""
""fullscreenenter"",""1"",""2383""
","
","""event"",""trial"",""time""
""focus"",""0"",""1""
","""event"",""trial"",""time""
""fullscreenenter"",""1"",""2383""
","
","","","","","","393","<p> The kids are sad.<div style='float: left;'><img src='images/i7.png' width = '640' height = '360'></img>","","0","instructions","","","","","","","","","","","","","",""
"learning-instructions","29","159577","0.0-8.0-0.0-0.21","1838","2","2","""event"",""trial"",""time""
""focus"",""0"",""1""
""fullscreenenter"",""1"",""2383""
","
","""event"",""trial"",""time""
""focus"",""0"",""1""
","""event"",""trial"",""time""
""fullscreenenter"",""1"",""2383""
","
","","","","","","342","<p> The kids are sad.<div style='float: left;'><img src='images/i8.png' width = '640' height = '360'></img>","","0","instructions","","","","","","","","","","","","","",""
"learning-instructions","30","162089","0.0-8.0-0.0-0.22","1838","2","2","""event"",""trial"",""time""
""focus"",""0"",""1""
""fullscreenenter"",""1"",""2383""
","
","""event"",""trial"",""time""
""focus"",""0"",""1""
","""event"",""trial"",""time""
""fullscreenenter"",""1"",""2383""
","
","","","","","","324","<p> The kids are happy.<div style='float: left;'><img src='images/i9.png' width = '640' height = '360'></img>","","0","instructions","","","","","","","","","","","","","",""
"learning-instructions","31","164480","0.0-8.0-0.0-0.23","1838","2","2","""event"",""trial"",""time""
""focus"",""0"",""1""
""fullscreenenter"",""1"",""2383""
","
","""event"",""trial"",""time""
""focus"",""0"",""1""
","""event"",""trial"",""time""
""fullscreenenter"",""1"",""2383""
","
","","","","","","167","<p> The kids are sad.<div style='float: left;'><img src='images/i10.png' width = '640' height = '360'></img>","","0","instructions","","","","","","","","","","","","","",""
"learning-instructions","32","166960","0.0-8.0-0.0-0.24","1838","2","2","""event"",""trial"",""time""
""focus"",""0"",""1""
""fullscreenenter"",""1"",""2383""
","
","""event"",""trial"",""time""
""focus"",""0"",""1""
","""event"",""trial"",""time""
""fullscreenenter"",""1"",""2383""
","
","","","","","","247","<p> The kids are sad.<div style='float: left;'><img src='images/i11.png' width = '640' height = '360'></img>","","0","instructions","","","","","","","","","","","","","",""
"learning-instructions","33","176280","0.0-8.0-0.0-0.25","1838","2","2","""event"",""trial"",""time""
""focus"",""0"",""1""
""fullscreenenter"",""1"",""2383""
","
","""event"",""trial"",""time""
""focus"",""0"",""1""
","""event"",""trial"",""time""
""fullscreenenter"",""1"",""2383""
","
","","","","","","1177","<p> As you can see, selecting the wrong park for the soccer ball made the kids sad most of the time, but not all the time.","","0","instructions","","","","","","","","","","","","","",""
"learning-instructions","34","185629","0.0-8.0-0.0-0.26","1838","2","2","""event"",""trial"",""time""
""focus"",""0"",""1""
""fullscreenenter"",""1"",""2383""
","
","""event"",""trial"",""time""
""focus"",""0"",""1""
","""event"",""trial"",""time""
""fullscreenenter"",""1"",""2383""
","
","","","","","","217","<p> The different pieces of equipment belong in different parks. You need to try to learn which is the best park for each piece of equipment.","","0","instructions","","","","","","","","","","","","","",""
"learning-instructions","35","202198","0.0-8.0-0.0-0.27","1838","2","2","""event"",""trial"",""time""
""focus"",""0"",""1""
""fullscreenenter"",""1"",""2383""
","
","""event"",""trial"",""time""
""focus"",""0"",""1""
","""event"",""trial"",""time""
""fullscreenenter"",""1"",""2383""
","
","","","","","","175","<p> Try to choose the best park for each piece of equipment, because you will <b> WIN </b> 1 point for each time you make the kids happy and <b>LOSE</b> 1 point for each time you make them sad. </p><p> Remember, if you make the best choice, you will win 1 point most of the time, but not all the time. </p>","","0","instructions","","","","","","","","","","","","","",""
"learning-instructions","36","208742","0.0-8.0-0.0-0.28","1838","2","2","""event"",""trial"",""time""
""focus"",""0"",""1""
""fullscreenenter"",""1"",""2383""
","
","""event"",""trial"",""time""
""focus"",""0"",""1""
","""event"",""trial"",""time""
""fullscreenenter"",""1"",""2383""
","
","","","","","","1039","<p> This is just a practice round, but in the real game, your bonus payment will depend on your total number of points.","","0","instructions","","","","","","","","","","","","","",""
"learning-instructions","37","219652","0.0-8.0-0.0-0.29","1838","2","2","""event"",""trial"",""time""
""focus"",""0"",""1""
""fullscreenenter"",""1"",""2383""
","
","""event"",""trial"",""time""
""focus"",""0"",""1""
","""event"",""trial"",""time""
""fullscreenenter"",""1"",""2383""
","
","","","","","","559","<p> The position where each park appears will change throughout the game. </p><p> The position where the park appears <i> does not </i> influence how likely the kids are to be happy or sad. </p>","","0","instructions","","","","","","","","","","","","","",""
"learning-instructions","38","230769","0.0-8.0-0.0-0.30","1838","2","2","""event"",""trial"",""time""
""focus"",""0"",""1""
""fullscreenenter"",""1"",""2383""
","
","""event"",""trial"",""time""
""focus"",""0"",""1""
","""event"",""trial"",""time""
""fullscreenenter"",""1"",""2383""
","
","","","","","","435","<p> You will have 4 seconds to make each choice. Try to respond before time runs out! </p><p> You will lose 1 point each time you do not make a response. </p>","","0","instructions","","","","","","","","","","","","","",""
"learning-instructions","39","238160","0.0-8.0-0.0-0.31","1838","2","2","""event"",""trial"",""time""
""focus"",""0"",""1""
""fullscreenenter"",""1"",""2383""
","
","""event"",""trial"",""time""
""focus"",""0"",""1""
","""event"",""trial"",""time""
""fullscreenenter"",""1"",""2383""
","
","","","","","","586","<p> Remember, you should use the 1, 2, and 3 keys to select the park for each piece of equipment. </p><br><div class=""choice-instructions-grid""> <div class=""choice-option""><img src=""images/park1.png"" class=""choice-option-img"" stage=""instructions"" position=""0"" ><div class=""choice-option-text""> Press ""1."" </div></div><div class=""choice-option""><img src=""images/park2.png"" class=""choice-option-img"" stage=""instructions"" position=""1"" ><div class=""choice-option-text""> Press ""2."" </div></div><div class=""choice-option""><img src=""images/park3.png"" class=""choice-option-img"" stage=""instructions"" position=""2"" ><div class=""choice-option-text""> Press ""3."" </div></div></div>","","0","instructions","","","","","","","","","","","","","",""
"html-button-response","40","240004","0.0-8.0-1.0","1838","2","2","""event"",""trial"",""time""
""focus"",""0"",""1""
""fullscreenenter"",""1"",""2383""
","
","""event"",""trial"",""time""
""focus"",""0"",""1""
","""event"",""trial"",""time""
""fullscreenenter"",""1"",""2383""
","
","","","","","","1741","<p> Ready to practice? </p>","0","","","","","","","","","","","","","","","",""
"html-keyboard-response","41","240636","0.0-8.0-2.0-0.0","1838","2","2","""event"",""trial"",""time""
""focus"",""0"",""1""
""fullscreenenter"",""1"",""2383""
","
","""event"",""trial"",""time""
""focus"",""0"",""1""
","""event"",""trial"",""time""
""fullscreenenter"",""1"",""2383""
","
","","","","","","null","<div style=""font-size:60px;"">+</div>","null","","fixation","","","","","","","","","","","","","",""
"learning-trial","42","244642","0.0-8.0-2.0-1.0","1838","2","2","""event"",""trial"",""time""
""focus"",""0"",""1""
""fullscreenenter"",""1"",""2383""
","
","""event"",""trial"",""time""
""focus"",""0"",""1""
","""event"",""trial"",""time""
""fullscreenenter"",""1"",""2383""
","
","","","","","","1546","images/racket4.png","","","practice","images/park3.png","images/park2.png","images/park1.png","[2,1,0]","0","2","1","images/park3.png","-1","practice","","","",""
"html-keyboard-response","43","245162","0.0-8.0-2.0-0.1","1838","2","2","""event"",""trial"",""time""
""focus"",""0"",""1""
""fullscreenenter"",""1"",""2383""
","
","""event"",""trial"",""time""
""focus"",""0"",""1""
","""event"",""trial"",""time""
""fullscreenenter"",""1"",""2383""
","
","","","","","","null","<div style=""font-size:60px;"">+</div>","null","","fixation","","","","","","","","","","","","","",""
"learning-trial","44","249172","0.0-8.0-2.0-1.1","1838","2","2","""event"",""trial"",""time""
""focus"",""0"",""1""
""fullscreenenter"",""1"",""2383""
","
","""event"",""trial"",""time""
""focus"",""0"",""1""
","""event"",""trial"",""time""
""fullscreenenter"",""1"",""2383""
","
","","","","","","795","images/racket2.png","","","practice","images/park1.png","images/park3.png","images/park2.png","[0,2,1]","0","0","2","images/park3.png","-1","practice","","","",""
"html-keyboard-response","45","249691","0.0-8.0-2.0-0.2","1838","2","2","""event"",""trial"",""time""
""focus"",""0"",""1""
""fullscreenenter"",""1"",""2383""
","
","""event"",""trial"",""time""
""focus"",""0"",""1""
","""event"",""trial"",""time""
""fullscreenenter"",""1"",""2383""
","
","","","","","","null","<div style=""font-size:60px;"">+</div>","null","","fixation","","","","","","","","","","","","","",""
"learning-trial","46","253713","0.0-8.0-2.0-1.2","1838","2","2","""event"",""trial"",""time""
""focus"",""0"",""1""
""fullscreenenter"",""1"",""2383""
","
","""event"",""trial"",""time""
""focus"",""0"",""1""
","""event"",""trial"",""time""
""fullscreenenter"",""1"",""2383""
","
","","","","","","1098","images/racket4.png","","","practice","images/park2.png","images/park3.png","images/park1.png","[1,2,0]","0","2","3","images/park1.png","1","practice","","","",""
"html-keyboard-response","47","254221","0.0-8.0-2.0-0.3","1838","2","2","""event"",""trial"",""time""
""focus"",""0"",""1""
""fullscreenenter"",""1"",""2383""
","
","""event"",""trial"",""time""
""focus"",""0"",""1""
","""event"",""trial"",""time""
""fullscreenenter"",""1"",""2383""
","
","","","","","","null","<div style=""font-size:60px;"">+</div>","null","","fixation","","","","","","","","","","","","","",""
"learning-trial","48","258232","0.0-8.0-2.0-1.3","1838","2","2","""event"",""trial"",""time""
""focus"",""0"",""1""
""fullscreenenter"",""1"",""2383""
","
","""event"",""trial"",""time""
""focus"",""0"",""1""
","""event"",""trial"",""time""
""fullscreenenter"",""1"",""2383""
","
","","","","","","1264","images/racket1.png","","","practice","images/park3.png","images/park1.png","images/park2.png","[2,0,1]","2","0","2","images/park1.png","-1","practice","","","",""
"html-keyboard-response","49","258751","0.0-8.0-2.0-0.4","1838","2","2","""event"",""trial"",""time""
""focus"",""0"",""1""
""fullscreenenter"",""1"",""2383""
","
","""event"",""trial"",""time""
""focus"",""0"",""1""
","""event"",""trial"",""time""
""fullscreenenter"",""1"",""2383""
","
","","","","","","null","<div style=""font-size:60px;"">+</div>","null","","fixation","","","","","","","","","","","","","",""
"learning-trial","50","262772","0.0-8.0-2.0-1.4","1838","2","2","""event"",""trial"",""time""
""focus"",""0"",""1""
""fullscreenenter"",""1"",""2383""
","
","""event"",""trial"",""time""
""focus"",""0"",""1""
","""event"",""trial"",""time""
""fullscreenenter"",""1"",""2383""
","
","","","","","","1141","images/racket2.png","","","practice","images/park2.png","images/park3.png","images/park1.png","[1,2,0]","0","2","1","images/park2.png","-1","practice","","","",""
"html-keyboard-response","51","263292","0.0-8.0-2.0-0.5","1838","2","2","""event"",""trial"",""time""
""focus"",""0"",""1""
""fullscreenenter"",""1"",""2383""
","
","""event"",""trial"",""time""
""focus"",""0"",""1""
","""event"",""trial"",""time""
""fullscreenenter"",""1"",""2383""
","
","","","","","","null","<div style=""font-size:60px;"">+</div>","null","","fixation","","","","","","","","","","","","","",""
"learning-trial","52","267312","0.0-8.0-2.0-1.5","1838","2","2","""event"",""trial"",""time""
""focus"",""0"",""1""
""fullscreenenter"",""1"",""2383""
","
","""event"",""trial"",""time""
""focus"",""0"",""1""
","""event"",""trial"",""time""
""fullscreenenter"",""1"",""2383""
","
","","","","","","1065","images/ball1.png","","","practice","images/park1.png","images/park2.png","images/park3.png","[0,1,2]","1","1","3","images/park3.png","-1","practice","","","",""
"html-keyboard-response","53","267832","0.0-8.0-2.0-0.6","1838","2","2","""event"",""trial"",""time""
""focus"",""0"",""1""
""fullscreenenter"",""1"",""2383""
","
","""event"",""trial"",""time""
""focus"",""0"",""1""
","""event"",""trial"",""time""
""fullscreenenter"",""1"",""2383""
","
","","","","","","null","<div style=""font-size:60px;"">+</div>","null","","fixation","","","","","","","","","","","","","",""
"learning-trial","54","271853","0.0-8.0-2.0-1.6","1838","2","2","""event"",""trial"",""time""
""focus"",""0"",""1""
""fullscreenenter"",""1"",""2383""
","
","""event"",""trial"",""time""
""focus"",""0"",""1""
","""event"",""trial"",""time""
""fullscreenenter"",""1"",""2383""
","
","","","","","","1311","images/ball2.png","","","practice","images/park1.png","images/park2.png","images/park3.png","[0,1,2]","2","2","1","images/park1.png","-1","practice","","","",""
"html-keyboard-response","55","272361","0.0-8.0-2.0-0.7","1838","2","2","""event"",""trial"",""time""
""focus"",""0"",""1""
""fullscreenenter"",""1"",""2383""
","
","""event"",""trial"",""time""
""focus"",""0"",""1""
","""event"",""trial"",""time""
""fullscreenenter"",""1"",""2383""
","
","","","","","","null","<div style=""font-size:60px;"">+</div>","null","","fixation","","","","","","","","","","","","","",""
"learning-trial","56","276371","0.0-8.0-2.0-1.7","1838","2","2","""event"",""trial"",""time""
""focus"",""0"",""1""
""fullscreenenter"",""1"",""2383""
","
","""event"",""trial"",""time""
""focus"",""0"",""1""
","""event"",""trial"",""time""
""fullscreenenter"",""1"",""2383""
","
","","","","","","1221","images/ball1.png","","","practice","images/park2.png","images/park1.png","images/park3.png","[1,0,2]","1","0","1","images/park2.png","1","practice","","","",""
"html-keyboard-response","57","276891","0.0-8.0-2.0-0.8","1838","2","2","""event"",""trial"",""time""
""focus"",""0"",""1""
""fullscreenenter"",""1"",""2383""
","
","""event"",""trial"",""time""
""focus"",""0"",""1""
","""event"",""trial"",""time""
""fullscreenenter"",""1"",""2383""
","
","","","","","","null","<div style=""font-size:60px;"">+</div>","null","","fixation","","","","","","","","","","","","","",""
"learning-trial","58","280912","0.0-8.0-2.0-1.8","1838","2","2","""event"",""trial"",""time""
""focus"",""0"",""1""
""fullscreenenter"",""1"",""2383""
","
","""event"",""trial"",""time""
""focus"",""0"",""1""
","""event"",""trial"",""time""
""fullscreenenter"",""1"",""2383""
","
","","","","","","1090","images/ball4.png","","","practice","images/park1.png","images/park3.png","images/park2.png","[0,2,1]","1","2","2","images/park3.png","-1","practice","","","",""
"html-keyboard-response","59","281432","0.0-8.0-2.0-0.9","1838","2","2","""event"",""trial"",""time""
""focus"",""0"",""1""
""fullscreenenter"",""1"",""2383""
","
","""event"",""trial"",""time""
""focus"",""0"",""1""
","""event"",""trial"",""time""
""fullscreenenter"",""1"",""2383""
","
","","","","","","null","<div style=""font-size:60px;"">+</div>","null","","fixation","","","","","","","","","","","","","",""
"learning-trial","60","285452","0.0-8.0-2.0-1.9","1838","2","2","""event"",""trial"",""time""
""focus"",""0"",""1""
""fullscreenenter"",""1"",""2383""
","
","""event"",""trial"",""time""
""focus"",""0"",""1""
","""event"",""trial"",""time""
""fullscreenenter"",""1"",""2383""
","
","","","","","","910","images/ball4.png","","","practice","images/park2.png","images/park1.png","images/park3.png","[1,0,2]","1","0","3","images/park3.png","-1","practice","","","",""
"html-keyboard-response","61","285971","0.0-8.0-2.0-0.10","1838","2","2","""event"",""trial"",""time""
""focus"",""0"",""1""
""fullscreenenter"",""1"",""2383""
","
","""event"",""trial"",""time""
""focus"",""0"",""1""
","""event"",""trial"",""time""
""fullscreenenter"",""1"",""2383""
","
","","","","","","null","<div style=""font-size:60px;"">+</div>","null","","fixation","","","","","","","","","","","","","",""
"learning-trial","62","289992","0.0-8.0-2.0-1.10","1838","2","2","""event"",""trial"",""time""
""focus"",""0"",""1""
""fullscreenenter"",""1"",""2383""
","
","""event"",""trial"",""time""
""focus"",""0"",""1""
","""event"",""trial"",""time""
""fullscreenenter"",""1"",""2383""
","
","","","","","","1587","images/racket1.png","","","practice","images/park2.png","images/park3.png","images/park1.png","[1,2,0]","2","1","1","images/park2.png","-1","practice","","","",""
"html-keyboard-response","63","290511","0.0-8.0-2.0-0.11","1838","2","2","""event"",""trial"",""time""
""focus"",""0"",""1""
""fullscreenenter"",""1"",""2383""
","
","""event"",""trial"",""time""
""focus"",""0"",""1""
","""event"",""trial"",""time""
""fullscreenenter"",""1"",""2383""
","
","","","","","","null","<div style=""font-size:60px;"">+</div>","null","","fixation","","","","","","","","","","","","","",""
"learning-trial","64","294532","0.0-8.0-2.0-1.11","1838","2","2","""event"",""trial"",""time""
""focus"",""0"",""1""
""fullscreenenter"",""1"",""2383""
","
","""event"",""trial"",""time""
""focus"",""0"",""1""
","""event"",""trial"",""time""
""fullscreenenter"",""1"",""2383""
","
","","","","","","1333","images/ball2.png","","","practice","images/park1.png","images/park3.png","images/park2.png","[0,2,1]","2","1","1","images/park1.png","-1","practice","","","",""
"html-button-response","65","297254","0.0-8.0-3.0","1838","2","2","""event"",""trial"",""time""
""focus"",""0"",""1""
""fullscreenenter"",""1"",""2383""
","
","""event"",""trial"",""time""
""focus"",""0"",""1""
","""event"",""trial"",""time""
""fullscreenenter"",""1"",""2383""
","
","","","","","","2719","<p> You earned -8 points in the practice round! </p>","0","","break","","","","","","","","","","","","","",""
"learning-instructions","66","305302","0.0-8.0-4.0-0.0","1838","2","2","""event"",""trial"",""time""
""focus"",""0"",""1""
""fullscreenenter"",""1"",""2383""
","
","""event"",""trial"",""time""
""focus"",""0"",""1""
","""event"",""trial"",""time""
""fullscreenenter"",""1"",""2383""
","
","","","","","","369","<p> It's almost time to start the real game. </p><p> Before you start, we're going to ask you a few questions about how the game works. </p>","","0","instructions","","","","","","","","","","","","","",""
"preload","67","307087","0.0-8.0-5.0","1838","2","2","""event"",""trial"",""time""
""focus"",""0"",""1""
""fullscreenenter"",""1"",""2383""
","
","""event"",""trial"",""time""
""focus"",""0"",""1""
","""event"",""trial"",""time""
""fullscreenenter"",""1"",""2383""
","
","true","false","[]","[]","[]","","","","","","","","","","","","","","","","","","",""
"comp-q","68","313350","0.0-8.0-6.0-0.0","1838","2","2","""event"",""trial"",""time""
""focus"",""0"",""1""
""fullscreenenter"",""1"",""2383""
","
","""event"",""trial"",""time""
""focus"",""0"",""1""
","""event"",""trial"",""time""
""fullscreenenter"",""1"",""2383""
","
","","","","","","806","<p> <b> True or False? </b> </p><p> If you choose the best option, you will always earn 1 point. </p>","","1","comp_question","","","","","","","","","","","true","","",""
"comp-q","69","320464","0.0-8.0-6.0-1.0","1838","2","2","""event"",""trial"",""time""
""focus"",""0"",""1""
""fullscreenenter"",""1"",""2383""
","
","""event"",""trial"",""time""
""focus"",""0"",""1""
","""event"",""trial"",""time""
""fullscreenenter"",""1"",""2383""
","
","","","","","","1432","<p><b> That's right! </b> Sometimes you will lose 1 point, even if you choose the best option. </p>","","0","comp_answer","","","","","","","","","","","","","",""
"comp-q","70","326586","0.0-8.0-6.0-0.1","1838","2","2","""event"",""trial"",""time""
""focus"",""0"",""1""
""fullscreenenter"",""1"",""2383""
","
","""event"",""trial"",""time""
""focus"",""0"",""1""
","""event"",""trial"",""time""
""fullscreenenter"",""1"",""2383""
","
","","","","","","1462","<p> <b> True or False? </b> </p><p> You will have as much time as you want to make each choice. </p>","","1","comp_question","","","","","","","","","","","true","","",""
"comp-q","71","332988","0.0-8.0-6.0-1.1","1838","2","2","""event"",""trial"",""time""
""focus"",""0"",""1""
""fullscreenenter"",""1"",""2383""
","
","""event"",""trial"",""time""
""focus"",""0"",""1""
","""event"",""trial"",""time""
""fullscreenenter"",""1"",""2383""
","
","","","","","","1555","<p> <b> That's right! </b> You will only have 4 seconds to make each choice. </p>","","0","comp_answer","","","","","","","","","","","","","",""
"comp-q","72","339622","0.0-8.0-6.0-0.2","1838","2","2","""event"",""trial"",""time""
""focus"",""0"",""1""
""fullscreenenter"",""1"",""2383""
","
","""event"",""trial"",""time""
""focus"",""0"",""1""
","""event"",""trial"",""time""
""fullscreenenter"",""1"",""2383""
","
","","","","","","469","<p> <b> True or False? </b> </p><p> You should use the '1', '2', and '3' keys to make your choices. </p>","","0","comp_question","","","","","","","","","","","true","","",""
"comp-q","73","345474","0.0-8.0-6.0-1.2","1838","2","2","""event"",""trial"",""time""
""focus"",""0"",""1""
""fullscreenenter"",""1"",""2383""
","
","""event"",""trial"",""time""
""focus"",""0"",""1""
","""event"",""trial"",""time""
""fullscreenenter"",""1"",""2383""
","
","","","","","","991","<p> <b> That's right! </b> You should use the '1', '2', and '3' keys to make each choice. </p>","","0","comp_answer","","","","","","","","","","","","","",""
"learning-instructions","74","355574","0.0-8.0-7.0-0.0","1838","2","2","""event"",""trial"",""time""
""focus"",""0"",""1""
""fullscreenenter"",""1"",""2383""
","
","""event"",""trial"",""time""
""focus"",""0"",""1""
","""event"",""trial"",""time""
""fullscreenenter"",""1"",""2383""
","
","","","","","","1591","<p> It's now time to start the real game. </p>Do your best, because the points you earn in the next rounds will influence your bonus payment. </p>","","0","instructions","","","","","","","","","","","","","",""
"preload","75","357958","0.0-9.0-0.0","1838","2","2","""event"",""trial"",""time""
""focus"",""0"",""1""
""fullscreenenter"",""1"",""2383""
","
","""event"",""trial"",""time""
""focus"",""0"",""1""
","""event"",""trial"",""time""
""fullscreenenter"",""1"",""2383""
","
","true","false","[]","[]","[]","","","","","","","","","","","","","","","","","","",""
"learning-instructions","76","365641","0.0-9.0-1.0-0.0","1838","2","2","""event"",""trial"",""time""
""focus"",""0"",""1""
""fullscreenenter"",""1"",""2383""
","
","""event"",""trial"",""time""
""focus"",""0"",""1""
","""event"",""trial"",""time""
""fullscreenenter"",""1"",""2383""
","
","","","","","","1179","<p> Your goal in this round is to buy different types of fruits. </p><p> You will try to purchase many fruits from different stores. </p></div>","","0","instructions","","","","","","","","","","","","","",""
"learning-instructions","77","374615","0.0-9.0-1.0-0.1","1838","2","2","""event"",""trial"",""time""
""focus"",""0"",""1""
""fullscreenenter"",""1"",""2383""
""blur"",""78"",""380740""
""focus"",""78"",""382282""
","""event"",""trial"",""time""
""blur"",""78"",""380740""
","""event"",""trial"",""time""
""focus"",""0"",""1""
""focus"",""78"",""382282""
","""event"",""trial"",""time""
""fullscreenenter"",""1"",""2383""
","
","","","","","","453","<p> On each turn, you will see a picture of a fruit and three different stores.  </p><p> You need to select the store where you can buy that fruit.  </p>","","0","instructions","","","","","","","","","","","","","",""
"learning-instructions","78","383018","0.0-9.0-1.0-0.2","1838","2","2","""event"",""trial"",""time""
""focus"",""0"",""1""
""fullscreenenter"",""1"",""2383""
""blur"",""78"",""380740""
""focus"",""78"",""382282""
","""event"",""trial"",""time""
""blur"",""78"",""380740""
","""event"",""trial"",""time""
""focus"",""0"",""1""
""focus"",""78"",""382282""
","""event"",""trial"",""time""
""fullscreenenter"",""1"",""2383""
","
","","","","","","988","<p> You can select the store on the left by pressing 1, the store in the middle by pressing 2, and the store on the right by pressing 3. </p><br><div class=""choice-instructions-grid""> <div class=""choice-option""><img src=""images/fruit_choice1.png"" class=""choice-option-img"" stage=""instructions"" position=""0"" ><div class=""choice-option-text""> Press ""1."" </div></div><div class=""choice-option""><img src=""images/fruit_choice2.png"" class=""choice-option-img"" stage=""instructions"" position=""1"" ><div class=""choice-option-text""> Press ""2."" </div></div><div class=""choice-option""><img src=""images/fruit_choice3.png"" class=""choice-option-img"" stage=""instructions"" position=""2"" ><div class=""choice-option-text""> Press ""3."" </div></div></div>","","0","instructions","","","","","","","","","","","","","",""
"learning-instructions","79","388289","0.0-9.0-1.0-0.3","1838","2","2","""event"",""trial"",""time""
""focus"",""0"",""1""
""fullscreenenter"",""1"",""2383""
""blur"",""78"",""380740""
""focus"",""78"",""382282""
","""event"",""trial"",""time""
""blur"",""78"",""380740""
","""event"",""trial"",""time""
""focus"",""0"",""1""
""focus"",""78"",""382282""
","""event"",""trial"",""time""
""fullscreenenter"",""1"",""2383""
","
","","","","","","296","<p> If you find the fruit in the store you chose, you will get to buy and eat it! </p><div style='float: center;'><img src='images/check.png' width = '200' height = '200'></img>","","0","instructions","","","","","","","","","","","","","",""
"learning-instructions","80","393381","0.0-9.0-1.0-0.4","1838","2","2","""event"",""trial"",""time""
""focus"",""0"",""1""
""fullscreenenter"",""1"",""2383""
""blur"",""78"",""380740""
""focus"",""78"",""382282""
","""event"",""trial"",""time""
""blur"",""78"",""380740""
","""event"",""trial"",""time""
""focus"",""0"",""1""
""focus"",""78"",""382282""
","""event"",""trial"",""time""
""fullscreenenter"",""1"",""2383""
","
","","","","","","610","<p> But, if the fruit is not in that store, you will be hungry. </p><div style='float: center;'><img src='images/x.png' width = '200' height = '200'></img>","","0","instructions","","","","","","","","","","","","","",""
"learning-instructions","81","403536","0.0-9.0-1.0-0.5","1838","2","2","""event"",""trial"",""time""
""focus"",""0"",""1""
""fullscreenenter"",""1"",""2383""
""blur"",""78"",""380740""
""focus"",""78"",""382282""
","""event"",""trial"",""time""
""blur"",""78"",""380740""
","""event"",""trial"",""time""
""focus"",""0"",""1""
""focus"",""78"",""382282""
","""event"",""trial"",""time""
""fullscreenenter"",""1"",""2383""
","
","","","","","","352","<p> Importantly, each fruit is more likely to be found in one of the stores. </p><p> If you choose the correct store, you will be more likely to be able to buy the fruit! </p>","","0","instructions","","","","","","","","","","","","","",""
"learning-instructions","82","414358","0.0-9.0-1.0-0.6","1838","2","2","""event"",""trial"",""time""
""focus"",""0"",""1""
""fullscreenenter"",""1"",""2383""
""blur"",""78"",""380740""
""focus"",""78"",""382282""
","""event"",""trial"",""time""
""blur"",""78"",""380740""
","""event"",""trial"",""time""
""focus"",""0"",""1""
""focus"",""78"",""382282""
","""event"",""trial"",""time""
""fullscreenenter"",""1"",""2383""
","
","","","","","","345","<p> However, even if you choose the best store for the fruit, the store might not have it sometimes. </p><p> Similarly, even if you choose the <i>wrong</i> store, it might still have the fruit.","","0","instructions","","","","","","","","","","","","","",""
"learning-instructions","83","426887","0.0-9.0-1.0-0.7","1838","2","2","""event"",""trial"",""time""
""focus"",""0"",""1""
""fullscreenenter"",""1"",""2383""
""blur"",""78"",""380740""
""focus"",""78"",""382282""
","""event"",""trial"",""time""
""blur"",""78"",""380740""
","""event"",""trial"",""time""
""focus"",""0"",""1""
""focus"",""78"",""382282""
","""event"",""trial"",""time""
""fullscreenenter"",""1"",""2383""
","
","","","","","","324","<p> Try to choose the best store for each fruit, because you will <b> WIN </b> 1 point for each fruit you eat and <b>LOSE</b> 1 point each time you are hungry. </p><p> Your bonus payment will depend on your total number of points.","","0","instructions","","","","","","","","","","","","","",""
"learning-instructions","84","435232","0.0-9.0-1.0-0.8","1838","2","2","""event"",""trial"",""time""
""focus"",""0"",""1""
""fullscreenenter"",""1"",""2383""
""blur"",""78"",""380740""
""focus"",""78"",""382282""
","""event"",""trial"",""time""
""blur"",""78"",""380740""
","""event"",""trial"",""time""
""focus"",""0"",""1""
""focus"",""78"",""382282""
","""event"",""trial"",""time""
""fullscreenenter"",""1"",""2383""
","
","","","","","","119","<p> The position of each store will change throughout the round. </p><p> The store's position <i> does not </i> influence how likely you are to find the fruit. </p>","","0","instructions","","","","","","","","","","","","","",""
"learning-instructions","85","445051","0.0-9.0-1.0-0.9","1838","2","2","""event"",""trial"",""time""
""focus"",""0"",""1""
""fullscreenenter"",""1"",""2383""
""blur"",""78"",""380740""
""focus"",""78"",""382282""
","""event"",""trial"",""time""
""blur"",""78"",""380740""
","""event"",""trial"",""time""
""focus"",""0"",""1""
""focus"",""78"",""382282""
","""event"",""trial"",""time""
""fullscreenenter"",""1"",""2383""
","
","","","","","","509","<p> You will have 4 seconds to make each choice. Try to respond before time runs out! </p><p> You will lose 1 point each time you do not make a response. </p>","","0","instructions","","","","","","","","","","","","","",""
"html-keyboard-response","86","445686","0.0-9.0-2.0-0.0","1838","2","2","""event"",""trial"",""time""
""focus"",""0"",""1""
""fullscreenenter"",""1"",""2383""
""blur"",""78"",""380740""
""focus"",""78"",""382282""
","""event"",""trial"",""time""
""blur"",""78"",""380740""
","""event"",""trial"",""time""
""focus"",""0"",""1""
""focus"",""78"",""382282""
","""event"",""trial"",""time""
""fullscreenenter"",""1"",""2383""
","
","","","","","","null","<div style=""font-size:60px;"">+</div>","null","","fixation","","","","","","","","","","","","","",""
"learning-trial","87","449701","0.0-9.0-2.0-1.0","1838","2","2","""event"",""trial"",""time""
""focus"",""0"",""1""
""fullscreenenter"",""1"",""2383""
""blur"",""78"",""380740""
""focus"",""78"",""382282""
","""event"",""trial"",""time""
""blur"",""78"",""380740""
","""event"",""trial"",""time""
""focus"",""0"",""1""
""focus"",""78"",""382282""
","""event"",""trial"",""time""
""fullscreenenter"",""1"",""2383""
","
","","","","","","1327","images/apple1.png","","","learning","images/fruit_choice3.png","images/fruit_choice1.png","images/fruit_choice2.png","[2,0,1]","1","2","1","images/fruit_choice3.png","-1","fruit","","apple","2","0"
"html-keyboard-response","88","450211","0.0-9.0-2.0-0.1","1838","2","2","""event"",""trial"",""time""
""focus"",""0"",""1""
""fullscreenenter"",""1"",""2383""
""blur"",""78"",""380740""
""focus"",""78"",""382282""
","""event"",""trial"",""time""
""blur"",""78"",""380740""
","""event"",""trial"",""time""
""focus"",""0"",""1""
""focus"",""78"",""382282""
","""event"",""trial"",""time""
""fullscreenenter"",""1"",""2383""
","
","","","","","","null","<div style=""font-size:60px;"">+</div>","null","","fixation","","","","","","","","","","","","","",""
"learning-trial","89","454221","0.0-9.0-2.0-1.1","1838","2","2","""event"",""trial"",""time""
""focus"",""0"",""1""
""fullscreenenter"",""1"",""2383""
""blur"",""78"",""380740""
""focus"",""78"",""382282""
","""event"",""trial"",""time""
""blur"",""78"",""380740""
","""event"",""trial"",""time""
""focus"",""0"",""1""
""focus"",""78"",""382282""
","""event"",""trial"",""time""
""fullscreenenter"",""1"",""2383""
","
","","","","","","1914","images/orange1.png","","","learning","images/fruit_choice3.png","images/fruit_choice1.png","images/fruit_choice2.png","[2,0,1]","2","0","1","images/fruit_choice3.png","1","fruit","","orange","2","0"
"html-keyboard-response","90","454740","0.0-9.0-2.0-0.2","1838","2","2","""event"",""trial"",""time""
""focus"",""0"",""1""
""fullscreenenter"",""1"",""2383""
""blur"",""78"",""380740""
""focus"",""78"",""382282""
","""event"",""trial"",""time""
""blur"",""78"",""380740""
","""event"",""trial"",""time""
""focus"",""0"",""1""
""focus"",""78"",""382282""
","""event"",""trial"",""time""
""fullscreenenter"",""1"",""2383""
","
","","","","","","null","<div style=""font-size:60px;"">+</div>","null","","fixation","","","","","","","","","","","","","",""
"learning-trial","91","458750","0.0-9.0-2.0-1.2","1838","2","2","""event"",""trial"",""time""
""focus"",""0"",""1""
""fullscreenenter"",""1"",""2383""
""blur"",""78"",""380740""
""focus"",""78"",""382282""
","""event"",""trial"",""time""
""blur"",""78"",""380740""
","""event"",""trial"",""time""
""focus"",""0"",""1""
""focus"",""78"",""382282""
","""event"",""trial"",""time""
""fullscreenenter"",""1"",""2383""
","
","","","","","","783","images/orange5.png","","","learning","images/fruit_choice2.png","images/fruit_choice1.png","images/fruit_choice3.png","[1,0,2]","1","0","1","images/fruit_choice2.png","1","fruit","","orange","2","0"
"html-keyboard-response","92","459270","0.0-9.0-2.0-0.3","1838","2","2","""event"",""trial"",""time""
""focus"",""0"",""1""
""fullscreenenter"",""1"",""2383""
""blur"",""78"",""380740""
""focus"",""78"",""382282""
","""event"",""trial"",""time""
""blur"",""78"",""380740""
","""event"",""trial"",""time""
""focus"",""0"",""1""
""focus"",""78"",""382282""
","""event"",""trial"",""time""
""fullscreenenter"",""1"",""2383""
","
","","","","","","null","<div style=""font-size:60px;"">+</div>","null","","fixation","","","","","","","","","","","","","",""
"learning-trial","93","463291","0.0-9.0-2.0-1.3","1838","2","2","""event"",""trial"",""time""
""focus"",""0"",""1""
""fullscreenenter"",""1"",""2383""
""blur"",""78"",""380740""
""focus"",""78"",""382282""
","""event"",""trial"",""time""
""blur"",""78"",""380740""
","""event"",""trial"",""time""
""focus"",""0"",""1""
""focus"",""78"",""382282""
","""event"",""trial"",""time""
""fullscreenenter"",""1"",""2383""
","
","","","","","","598","images/orange5.png","","","learning","images/fruit_choice2.png","images/fruit_choice3.png","images/fruit_choice1.png","[1,2,0]","1","0","1","images/fruit_choice2.png","1","fruit","","orange","2","0"
"html-keyboard-response","94","463811","0.0-9.0-2.0-0.4","1838","2","2","""event"",""trial"",""time""
""focus"",""0"",""1""
""fullscreenenter"",""1"",""2383""
""blur"",""78"",""380740""
""focus"",""78"",""382282""
","""event"",""trial"",""time""
""blur"",""78"",""380740""
","""event"",""trial"",""time""
""focus"",""0"",""1""
""focus"",""78"",""382282""
","""event"",""trial"",""time""
""fullscreenenter"",""1"",""2383""
","
","","","","","","null","<div style=""font-size:60px;"">+</div>","null","","fixation","","","","","","","","","","","","","",""
"learning-trial","95","467830","0.0-9.0-2.0-1.4","1838","2","2","""event"",""trial"",""time""
""focus"",""0"",""1""
""fullscreenenter"",""1"",""2383""
""blur"",""78"",""380740""
""focus"",""78"",""382282""
","""event"",""trial"",""time""
""blur"",""78"",""380740""
","""event"",""trial"",""time""
""focus"",""0"",""1""
""focus"",""78"",""382282""
","""event"",""trial"",""time""
""fullscreenenter"",""1"",""2383""
","
","","","","","","1185","images/banana2.png","","","learning","images/fruit_choice1.png","images/fruit_choice3.png","images/fruit_choice2.png","[0,2,1]","1","2","1","images/fruit_choice1.png","-1","fruit","","banana","2","0"
"html-keyboard-response","96","468351","0.0-9.0-2.0-0.5","1838","2","2","""event"",""trial"",""time""
""focus"",""0"",""1""
""fullscreenenter"",""1"",""2383""
""blur"",""78"",""380740""
""focus"",""78"",""382282""
","""event"",""trial"",""time""
""blur"",""78"",""380740""
","""event"",""trial"",""time""
""focus"",""0"",""1""
""focus"",""78"",""382282""
","""event"",""trial"",""time""
""fullscreenenter"",""1"",""2383""
","
","","","","","","null","<div style=""font-size:60px;"">+</div>","null","","fixation","","","","","","","","","","","","","",""
"learning-trial","97","472371","0.0-9.0-2.0-1.5","1838","2","2","""event"",""trial"",""time""
""focus"",""0"",""1""
""fullscreenenter"",""1"",""2383""
""blur"",""78"",""380740""
""focus"",""78"",""382282""
","""event"",""trial"",""time""
""blur"",""78"",""380740""
","""event"",""trial"",""time""
""focus"",""0"",""1""
""focus"",""78"",""382282""
","""event"",""trial"",""time""
""fullscreenenter"",""1"",""2383""
","
","","","","","","926","images/apple1.png","","","learning","images/fruit_choice2.png","images/fruit_choice3.png","images/fruit_choice1.png","[1,2,0]","1","0","2","images/fruit_choice3.png","-1","fruit","","apple","2","0"
"html-keyboard-response","98","472891","0.0-9.0-2.0-0.6","1838","2","2","""event"",""trial"",""time""
""focus"",""0"",""1""
""fullscreenenter"",""1"",""2383""
""blur"",""78"",""380740""
""focus"",""78"",""382282""
","""event"",""trial"",""time""
""blur"",""78"",""380740""
","""event"",""trial"",""time""
""focus"",""0"",""1""
""focus"",""78"",""382282""
","""event"",""trial"",""time""
""fullscreenenter"",""1"",""2383""
","
","","","","","","null","<div style=""font-size:60px;"">+</div>","null","","fixation","","","","","","","","","","","","","",""
"learning-trial","99","476901","0.0-9.0-2.0-1.6","1838","2","2","""event"",""trial"",""time""
""focus"",""0"",""1""
""fullscreenenter"",""1"",""2383""
""blur"",""78"",""380740""
""focus"",""78"",""382282""
","""event"",""trial"",""time""
""blur"",""78"",""380740""
","""event"",""trial"",""time""
""focus"",""0"",""1""
""focus"",""78"",""382282""
","""event"",""trial"",""time""
""fullscreenenter"",""1"",""2383""
","
","","","","","","1441","images/apple4.png","","","learning","images/fruit_choice1.png","images/fruit_choice3.png","images/fruit_choice2.png","[0,2,1]","2","1","1","images/fruit_choice1.png","-1","fruit","","apple","2","0"
"html-keyboard-response","100","477421","0.0-9.0-2.0-0.7","1838","2","2","""event"",""trial"",""time""
""focus"",""0"",""1""
""fullscreenenter"",""1"",""2383""
""blur"",""78"",""380740""
""focus"",""78"",""382282""
","""event"",""trial"",""time""
""blur"",""78"",""380740""
","""event"",""trial"",""time""
""focus"",""0"",""1""
""focus"",""78"",""382282""
","""event"",""trial"",""time""
""fullscreenenter"",""1"",""2383""
","
","","","","","","null","<div style=""font-size:60px;"">+</div>","null","","fixation","","","","","","","","","","","","","",""
"learning-trial","101","481431","0.0-9.0-2.0-1.7","1838","2","2","""event"",""trial"",""time""
""focus"",""0"",""1""
""fullscreenenter"",""1"",""2383""
""blur"",""78"",""380740""
""focus"",""78"",""382282""
","""event"",""trial"",""time""
""blur"",""78"",""380740""
","""event"",""trial"",""time""
""focus"",""0"",""1""
""focus"",""78"",""382282""
","""event"",""trial"",""time""
""fullscreenenter"",""1"",""2383""
","
","","","","","","1456","images/apple3.png","","","learning","images/fruit_choice3.png","images/fruit_choice2.png","images/fruit_choice1.png","[2,1,0]","0","2","3","images/fruit_choice1.png","1","fruit","","apple","2","0"
"html-keyboard-response","102","481950","0.0-9.0-2.0-0.8","1838","2","2","""event"",""trial"",""time""
""focus"",""0"",""1""
""fullscreenenter"",""1"",""2383""
""blur"",""78"",""380740""
""focus"",""78"",""382282""
","""event"",""trial"",""time""
""blur"",""78"",""380740""
","""event"",""trial"",""time""
""focus"",""0"",""1""
""focus"",""78"",""382282""
","""event"",""trial"",""time""
""fullscreenenter"",""1"",""2383""
","
","","","","","","null","<div style=""font-size:60px;"">+</div>","null","","fixation","","","","","","","","","","","","","",""
"learning-trial","103","485971","0.0-9.0-2.0-1.8","1838","2","2","""event"",""trial"",""time""
""focus"",""0"",""1""
""fullscreenenter"",""1"",""2383""
""blur"",""78"",""380740""
""focus"",""78"",""382282""
","""event"",""trial"",""time""
""blur"",""78"",""380740""
","""event"",""trial"",""time""
""focus"",""0"",""1""
""focus"",""78"",""382282""
","""event"",""trial"",""time""
""fullscreenenter"",""1"",""2383""
","
","","","","","","855","images/orange5.png","","","learning","images/fruit_choice2.png","images/fruit_choice1.png","images/fruit_choice3.png","[1,0,2]","1","0","1","images/fruit_choice2.png","1","fruit","","orange","2","0"
"html-keyboard-response","104","486490","0.0-9.0-2.0-0.9","1838","2","2","""event"",""trial"",""time""
""focus"",""0"",""1""
""fullscreenenter"",""1"",""2383""
""blur"",""78"",""380740""
""focus"",""78"",""382282""
","""event"",""trial"",""time""
""blur"",""78"",""380740""
","""event"",""trial"",""time""
""focus"",""0"",""1""
""focus"",""78"",""382282""
","""event"",""trial"",""time""
""fullscreenenter"",""1"",""2383""
","
","","","","","","null","<div style=""font-size:60px;"">+</div>","null","","fixation","","","","","","","","","","","","","",""
"learning-trial","105","490501","0.0-9.0-2.0-1.9","1838","2","2","""event"",""trial"",""time""
""focus"",""0"",""1""
""fullscreenenter"",""1"",""2383""
""blur"",""78"",""380740""
""focus"",""78"",""382282""
","""event"",""trial"",""time""
""blur"",""78"",""380740""
","""event"",""trial"",""time""
""focus"",""0"",""1""
""focus"",""78"",""382282""
","""event"",""trial"",""time""
""fullscreenenter"",""1"",""2383""
","
","","","","","","577","images/banana4.png","","","learning","images/fruit_choice2.png","images/fruit_choice1.png","images/fruit_choice3.png","[1,0,2]","0","1","2","images/fruit_choice1.png","1","fruit","","banana","2","0"
"html-keyboard-response","106","491021","0.0-9.0-2.0-0.10","1838","2","2","""event"",""trial"",""time""
""focus"",""0"",""1""
""fullscreenenter"",""1"",""2383""
""blur"",""78"",""380740""
""focus"",""78"",""382282""
","""event"",""trial"",""time""
""blur"",""78"",""380740""
","""event"",""trial"",""time""
""focus"",""0"",""1""
""focus"",""78"",""382282""
","""event"",""trial"",""time""
""fullscreenenter"",""1"",""2383""
","
","","","","","","null","<div style=""font-size:60px;"">+</div>","null","","fixation","","","","","","","","","","","","","",""
"learning-trial","107","495042","0.0-9.0-2.0-1.10","1838","2","2","""event"",""trial"",""time""
""focus"",""0"",""1""
""fullscreenenter"",""1"",""2383""
""blur"",""78"",""380740""
""focus"",""78"",""382282""
","""event"",""trial"",""time""
""blur"",""78"",""380740""
","""event"",""trial"",""time""
""focus"",""0"",""1""
""focus"",""78"",""382282""
","""event"",""trial"",""time""
""fullscreenenter"",""1"",""2383""
","
","","","","","","632","images/apple1.png","","","learning","images/fruit_choice2.png","images/fruit_choice1.png","images/fruit_choice3.png","[1,0,2]","1","0","3","images/fruit_choice3.png","-1","fruit","","apple","2","0"
"html-keyboard-response","108","495560","0.0-9.0-2.0-0.11","1838","2","2","""event"",""trial"",""time""
""focus"",""0"",""1""
""fullscreenenter"",""1"",""2383""
""blur"",""78"",""380740""
""focus"",""78"",""382282""
","""event"",""trial"",""time""
""blur"",""78"",""380740""
","""event"",""trial"",""time""
""focus"",""0"",""1""
""focus"",""78"",""382282""
","""event"",""trial"",""time""
""fullscreenenter"",""1"",""2383""
","
","","","","","","null","<div style=""font-size:60px;"">+</div>","null","","fixation","","","","","","","","","","","","","",""
"learning-trial","109","499571","0.0-9.0-2.0-1.11","1838","2","2","""event"",""trial"",""time""
""focus"",""0"",""1""
""fullscreenenter"",""1"",""2383""
""blur"",""78"",""380740""
""focus"",""78"",""382282""
","""event"",""trial"",""time""
""blur"",""78"",""380740""
","""event"",""trial"",""time""
""focus"",""0"",""1""
""focus"",""78"",""382282""
","""event"",""trial"",""time""
""fullscreenenter"",""1"",""2383""
","
","","","","","","491","images/apple4.png","","","learning","images/fruit_choice2.png","images/fruit_choice3.png","images/fruit_choice1.png","[1,2,0]","2","1","3","images/fruit_choice1.png","-1","fruit","","apple","2","0"
"html-keyboard-response","110","500091","0.0-9.0-2.0-0.12","1838","2","2","""event"",""trial"",""time""
""focus"",""0"",""1""
""fullscreenenter"",""1"",""2383""
""blur"",""78"",""380740""
""focus"",""78"",""382282""
","""event"",""trial"",""time""
""blur"",""78"",""380740""
","""event"",""trial"",""time""
""focus"",""0"",""1""
""focus"",""78"",""382282""
","""event"",""trial"",""time""
""fullscreenenter"",""1"",""2383""
","
","","","","","","null","<div style=""font-size:60px;"">+</div>","null","","fixation","","","","","","","","","","","","","",""
"learning-trial","111","504111","0.0-9.0-2.0-1.12","1838","2","2","""event"",""trial"",""time""
""focus"",""0"",""1""
""fullscreenenter"",""1"",""2383""
""blur"",""78"",""380740""
""focus"",""78"",""382282""
","""event"",""trial"",""time""
""blur"",""78"",""380740""
","""event"",""trial"",""time""
""focus"",""0"",""1""
""focus"",""78"",""382282""
","""event"",""trial"",""time""
""fullscreenenter"",""1"",""2383""
","
","","","","","","778","images/orange1.png","","","learning","images/fruit_choice1.png","images/fruit_choice3.png","images/fruit_choice2.png","[0,2,1]","2","1","1","images/fruit_choice1.png","-1","fruit","","orange","2","0"
"html-keyboard-response","112","504630","0.0-9.0-2.0-0.13","1838","2","2","""event"",""trial"",""time""
""focus"",""0"",""1""
""fullscreenenter"",""1"",""2383""
""blur"",""78"",""380740""
""focus"",""78"",""382282""
","""event"",""trial"",""time""
""blur"",""78"",""380740""
","""event"",""trial"",""time""
""focus"",""0"",""1""
""focus"",""78"",""382282""
","""event"",""trial"",""time""
""fullscreenenter"",""1"",""2383""
","
","","","","","","null","<div style=""font-size:60px;"">+</div>","null","","fixation","","","","","","","","","","","","","",""
"learning-trial","113","508651","0.0-9.0-2.0-1.13","1838","2","2","""event"",""trial"",""time""
""focus"",""0"",""1""
""fullscreenenter"",""1"",""2383""
""blur"",""78"",""380740""
""focus"",""78"",""382282""
","""event"",""trial"",""time""
""blur"",""78"",""380740""
","""event"",""trial"",""time""
""focus"",""0"",""1""
""focus"",""78"",""382282""
","""event"",""trial"",""time""
""fullscreenenter"",""1"",""2383""
","
","","","","","","734","images/banana2.png","","","learning","images/fruit_choice1.png","images/fruit_choice3.png","images/fruit_choice2.png","[0,2,1]","1","2","2","images/fruit_choice3.png","-1","fruit","","banana","2","0"
"html-keyboard-response","114","509170","0.0-9.0-2.0-0.14","1838","2","2","""event"",""trial"",""time""
""focus"",""0"",""1""
""fullscreenenter"",""1"",""2383""
""blur"",""78"",""380740""
""focus"",""78"",""382282""
","""event"",""trial"",""time""
""blur"",""78"",""380740""
","""event"",""trial"",""time""
""focus"",""0"",""1""
""focus"",""78"",""382282""
","""event"",""trial"",""time""
""fullscreenenter"",""1"",""2383""
","
","","","","","","null","<div style=""font-size:60px;"">+</div>","null","","fixation","","","","","","","","","","","","","",""
"learning-trial","115","513181","0.0-9.0-2.0-1.14","1838","2","2","""event"",""trial"",""time""
""focus"",""0"",""1""
""fullscreenenter"",""1"",""2383""
""blur"",""78"",""380740""
""focus"",""78"",""382282""
","""event"",""trial"",""time""
""blur"",""78"",""380740""
","""event"",""trial"",""time""
""focus"",""0"",""1""
""focus"",""78"",""382282""
","""event"",""trial"",""time""
""fullscreenenter"",""1"",""2383""
","
","","","","","","1082","images/banana2.png","","","learning","images/fruit_choice2.png","images/fruit_choice1.png","images/fruit_choice3.png","[1,0,2]","1","0","2","images/fruit_choice1.png","-1","fruit","","banana","2","0"
"html-keyboard-response","116","513700","0.0-9.0-2.0-0.15","1838","2","2","""event"",""trial"",""time""
""focus"",""0"",""1""
""fullscreenenter"",""1"",""2383""
""blur"",""78"",""380740""
""focus"",""78"",""382282""
","""event"",""trial"",""time""
""blur"",""78"",""380740""
","""event"",""trial"",""time""
""focus"",""0"",""1""
""focus"",""78"",""382282""
","""event"",""trial"",""time""
""fullscreenenter"",""1"",""2383""
","
","","","","","","null","<div style=""font-size:60px;"">+</div>","null","","fixation","","","","","","","","","","","","","",""
"learning-trial","117","517710","0.0-9.0-2.0-1.15","1838","2","2","""event"",""trial"",""time""
""focus"",""0"",""1""
""fullscreenenter"",""1"",""2383""
""blur"",""78"",""380740""
""focus"",""78"",""382282""
","""event"",""trial"",""time""
""blur"",""78"",""380740""
","""event"",""trial"",""time""
""focus"",""0"",""1""
""focus"",""78"",""382282""
","""event"",""trial"",""time""
""fullscreenenter"",""1"",""2383""
","
","","","","","","704","images/banana1.png","","","learning","images/fruit_choice1.png","images/fruit_choice2.png","images/fruit_choice3.png","[0,1,2]","2","2","2","images/fruit_choice2.png","-1","fruit","","banana","2","0"
"html-keyboard-response","118","518221","0.0-9.0-2.0-0.16","1838","2","2","""event"",""trial"",""time""
""focus"",""0"",""1""
""fullscreenenter"",""1"",""2383""
""blur"",""78"",""380740""
""focus"",""78"",""382282""
","""event"",""trial"",""time""
""blur"",""78"",""380740""
","""event"",""trial"",""time""
""focus"",""0"",""1""
""focus"",""78"",""382282""
","""event"",""trial"",""time""
""fullscreenenter"",""1"",""2383""
","
","","","","","","null","<div style=""font-size:60px;"">+</div>","null","","fixation","","","","","","","","","","","","","",""
"learning-trial","119","522241","0.0-9.0-2.0-1.16","1838","2","2","""event"",""trial"",""time""
""focus"",""0"",""1""
""fullscreenenter"",""1"",""2383""
""blur"",""78"",""380740""
""focus"",""78"",""382282""
","""event"",""trial"",""time""
""blur"",""78"",""380740""
","""event"",""trial"",""time""
""focus"",""0"",""1""
""focus"",""78"",""382282""
","""event"",""trial"",""time""
""fullscreenenter"",""1"",""2383""
","
","","","","","","1144","images/apple4.png","","","learning","images/fruit_choice2.png","images/fruit_choice3.png","images/fruit_choice1.png","[1,2,0]","2","1","1","images/fruit_choice2.png","-1","fruit","","apple","2","0"
"html-keyboard-response","120","522760","0.0-9.0-2.0-0.17","1838","2","2","""event"",""trial"",""time""
""focus"",""0"",""1""
""fullscreenenter"",""1"",""2383""
""blur"",""78"",""380740""
""focus"",""78"",""382282""
","""event"",""trial"",""time""
""blur"",""78"",""380740""
","""event"",""trial"",""time""
""focus"",""0"",""1""
""focus"",""78"",""382282""
","""event"",""trial"",""time""
""fullscreenenter"",""1"",""2383""
","
","","","","","","null","<div style=""font-size:60px;"">+</div>","null","","fixation","","","","","","","","","","","","","",""
"learning-trial","121","526770","0.0-9.0-2.0-1.17","1838","2","2","""event"",""trial"",""time""
""focus"",""0"",""1""
""fullscreenenter"",""1"",""2383""
""blur"",""78"",""380740""
""focus"",""78"",""382282""
","""event"",""trial"",""time""
""blur"",""78"",""380740""
","""event"",""trial"",""time""
""focus"",""0"",""1""
""focus"",""78"",""382282""
","""event"",""trial"",""time""
""fullscreenenter"",""1"",""2383""
","
","","","","","","1019","images/banana4.png","","","learning","images/fruit_choice3.png","images/fruit_choice1.png","images/fruit_choice2.png","[2,0,1]","0","1","3","images/fruit_choice2.png","-1","fruit","","banana","2","0"
"html-keyboard-response","122","527291","0.0-9.0-2.0-0.18","1838","2","2","""event"",""trial"",""time""
""focus"",""0"",""1""
""fullscreenenter"",""1"",""2383""
""blur"",""78"",""380740""
""focus"",""78"",""382282""
","""event"",""trial"",""time""
""blur"",""78"",""380740""
","""event"",""trial"",""time""
""focus"",""0"",""1""
""focus"",""78"",""382282""
","""event"",""trial"",""time""
""fullscreenenter"",""1"",""2383""
","
","","","","","","null","<div style=""font-size:60px;"">+</div>","null","","fixation","","","","","","","","","","","","","",""
"learning-trial","123","531311","0.0-9.0-2.0-1.18","1838","2","2","""event"",""trial"",""time""
""focus"",""0"",""1""
""fullscreenenter"",""1"",""2383""
""blur"",""78"",""380740""
""focus"",""78"",""382282""
","""event"",""trial"",""time""
""blur"",""78"",""380740""
","""event"",""trial"",""time""
""focus"",""0"",""1""
""focus"",""78"",""382282""
","""event"",""trial"",""time""
""fullscreenenter"",""1"",""2383""
","
","","","","","","698","images/banana4.png","","","learning","images/fruit_choice3.png","images/fruit_choice1.png","images/fruit_choice2.png","[2,0,1]","0","1","3","images/fruit_choice2.png","-1","fruit","","banana","2","0"
"html-keyboard-response","124","531830","0.0-9.0-2.0-0.19","1838","2","2","""event"",""trial"",""time""
""focus"",""0"",""1""
""fullscreenenter"",""1"",""2383""
""blur"",""78"",""380740""
""focus"",""78"",""382282""
","""event"",""trial"",""time""
""blur"",""78"",""380740""
","""event"",""trial"",""time""
""focus"",""0"",""1""
""focus"",""78"",""382282""
","""event"",""trial"",""time""
""fullscreenenter"",""1"",""2383""
","
","","","","","","null","<div style=""font-size:60px;"">+</div>","null","","fixation","","","","","","","","","","","","","",""
"learning-trial","125","535840","0.0-9.0-2.0-1.19","1838","2","2","""event"",""trial"",""time""
""focus"",""0"",""1""
""fullscreenenter"",""1"",""2383""
""blur"",""78"",""380740""
""focus"",""78"",""382282""
","""event"",""trial"",""time""
""blur"",""78"",""380740""
","""event"",""trial"",""time""
""focus"",""0"",""1""
""focus"",""78"",""382282""
","""event"",""trial"",""time""
""fullscreenenter"",""1"",""2383""
","
","","","","","","1454","images/apple4.png","","","learning","images/fruit_choice1.png","images/fruit_choice2.png","images/fruit_choice3.png","[0,1,2]","2","2","1","images/fruit_choice1.png","1","fruit","","apple","2","0"
"html-keyboard-response","126","536360","0.0-9.0-2.0-0.20","1838","2","2","""event"",""trial"",""time""
""focus"",""0"",""1""
""fullscreenenter"",""1"",""2383""
""blur"",""78"",""380740""
""focus"",""78"",""382282""
","""event"",""trial"",""time""
""blur"",""78"",""380740""
","""event"",""trial"",""time""
""focus"",""0"",""1""
""focus"",""78"",""382282""
","""event"",""trial"",""time""
""fullscreenenter"",""1"",""2383""
","
","","","","","","null","<div style=""font-size:60px;"">+</div>","null","","fixation","","","","","","","","","","","","","",""
"learning-trial","127","540370","0.0-9.0-2.0-1.20","1838","2","2","""event"",""trial"",""time""
""focus"",""0"",""1""
""fullscreenenter"",""1"",""2383""
""blur"",""78"",""380740""
""focus"",""78"",""382282""
","""event"",""trial"",""time""
""blur"",""78"",""380740""
","""event"",""trial"",""time""
""focus"",""0"",""1""
""focus"",""78"",""382282""
","""event"",""trial"",""time""
""fullscreenenter"",""1"",""2383""
","
","","","","","","1045","images/orange5.png","","","learning","images/fruit_choice2.png","images/fruit_choice1.png","images/fruit_choice3.png","[1,0,2]","1","0","2","images/fruit_choice1.png","-1","fruit","","orange","2","0"
"html-keyboard-response","128","540889","0.0-9.0-2.0-0.21","1838","2","2","""event"",""trial"",""time""
""focus"",""0"",""1""
""fullscreenenter"",""1"",""2383""
""blur"",""78"",""380740""
""focus"",""78"",""382282""
","""event"",""trial"",""time""
""blur"",""78"",""380740""
","""event"",""trial"",""time""
""focus"",""0"",""1""
""focus"",""78"",""382282""
","""event"",""trial"",""time""
""fullscreenenter"",""1"",""2383""
","
","","","","","","null","<div style=""font-size:60px;"">+</div>","null","","fixation","","","","","","","","","","","","","",""
"learning-trial","129","544910","0.0-9.0-2.0-1.21","1838","2","2","""event"",""trial"",""time""
""focus"",""0"",""1""
""fullscreenenter"",""1"",""2383""
""blur"",""78"",""380740""
""focus"",""78"",""382282""
","""event"",""trial"",""time""
""blur"",""78"",""380740""
","""event"",""trial"",""time""
""focus"",""0"",""1""
""focus"",""78"",""382282""
","""event"",""trial"",""time""
""fullscreenenter"",""1"",""2383""
","
","","","","","","1779","images/apple1.png","","","learning","images/fruit_choice2.png","images/fruit_choice1.png","images/fruit_choice3.png","[1,0,2]","1","0","1","images/fruit_choice2.png","1","fruit","","apple","2","0"
"html-keyboard-response","130","545430","0.0-9.0-2.0-0.22","1838","2","2","""event"",""trial"",""time""
""focus"",""0"",""1""
""fullscreenenter"",""1"",""2383""
""blur"",""78"",""380740""
""focus"",""78"",""382282""
","""event"",""trial"",""time""
""blur"",""78"",""380740""
","""event"",""trial"",""time""
""focus"",""0"",""1""
""focus"",""78"",""382282""
","""event"",""trial"",""time""
""fullscreenenter"",""1"",""2383""
","
","","","","","","null","<div style=""font-size:60px;"">+</div>","null","","fixation","","","","","","","","","","","","","",""
"learning-trial","131","549450","0.0-9.0-2.0-1.22","1838","2","2","""event"",""trial"",""time""
""focus"",""0"",""1""
""fullscreenenter"",""1"",""2383""
""blur"",""78"",""380740""
""focus"",""78"",""382282""
","""event"",""trial"",""time""
""blur"",""78"",""380740""
","""event"",""trial"",""time""
""focus"",""0"",""1""
""focus"",""78"",""382282""
","""event"",""trial"",""time""
""fullscreenenter"",""1"",""2383""
","
","","","","","","670","images/apple3.png","","","learning","images/fruit_choice3.png","images/fruit_choice1.png","images/fruit_choice2.png","[2,0,1]","0","1","1","images/fruit_choice3.png","-1","fruit","","apple","2","0"
"html-keyboard-response","132","549970","0.0-9.0-2.0-0.23","1838","2","2","""event"",""trial"",""time""
""focus"",""0"",""1""
""fullscreenenter"",""1"",""2383""
""blur"",""78"",""380740""
""focus"",""78"",""382282""
","""event"",""trial"",""time""
""blur"",""78"",""380740""
","""event"",""trial"",""time""
""focus"",""0"",""1""
""focus"",""78"",""382282""
","""event"",""trial"",""time""
""fullscreenenter"",""1"",""2383""
","
","","","","","","null","<div style=""font-size:60px;"">+</div>","null","","fixation","","","","","","","","","","","","","",""
"learning-trial","133","553990","0.0-9.0-2.0-1.23","1838","2","2","""event"",""trial"",""time""
""focus"",""0"",""1""
""fullscreenenter"",""1"",""2383""
""blur"",""78"",""380740""
""focus"",""78"",""382282""
","""event"",""trial"",""time""
""blur"",""78"",""380740""
","""event"",""trial"",""time""
""focus"",""0"",""1""
""focus"",""78"",""382282""
","""event"",""trial"",""time""
""fullscreenenter"",""1"",""2383""
","
","","","","","","650","images/apple4.png","","","learning","images/fruit_choice2.png","images/fruit_choice3.png","images/fruit_choice1.png","[1,2,0]","2","1","1","images/fruit_choice2.png","-1","fruit","","apple","2","0"
"html-keyboard-response","134","554510","0.0-9.0-2.0-0.24","1838","2","2","""event"",""trial"",""time""
""focus"",""0"",""1""
""fullscreenenter"",""1"",""2383""
""blur"",""78"",""380740""
""focus"",""78"",""382282""
","""event"",""trial"",""time""
""blur"",""78"",""380740""
","""event"",""trial"",""time""
""focus"",""0"",""1""
""focus"",""78"",""382282""
","""event"",""trial"",""time""
""fullscreenenter"",""1"",""2383""
","
","","","","","","null","<div style=""font-size:60px;"">+</div>","null","","fixation","","","","","","","","","","","","","",""
"learning-trial","135","558530","0.0-9.0-2.0-1.24","1838","2","2","""event"",""trial"",""time""
""focus"",""0"",""1""
""fullscreenenter"",""1"",""2383""
""blur"",""78"",""380740""
""focus"",""78"",""382282""
","""event"",""trial"",""time""
""blur"",""78"",""380740""
","""event"",""trial"",""time""
""focus"",""0"",""1""
""focus"",""78"",""382282""
","""event"",""trial"",""time""
""fullscreenenter"",""1"",""2383""
","
","","","","","","2421","images/banana1.png","","","learning","images/fruit_choice3.png","images/fruit_choice1.png","images/fruit_choice2.png","[2,0,1]","2","0","3","images/fruit_choice2.png","-1","fruit","","banana","2","0"
"html-keyboard-response","136","559050","0.0-9.0-2.0-0.25","1838","2","2","""event"",""trial"",""time""
""focus"",""0"",""1""
""fullscreenenter"",""1"",""2383""
""blur"",""78"",""380740""
""focus"",""78"",""382282""
","""event"",""trial"",""time""
""blur"",""78"",""380740""
","""event"",""trial"",""time""
""focus"",""0"",""1""
""focus"",""78"",""382282""
","""event"",""trial"",""time""
""fullscreenenter"",""1"",""2383""
","
","","","","","","null","<div style=""font-size:60px;"">+</div>","null","","fixation","","","","","","","","","","","","","",""
"learning-trial","137","563061","0.0-9.0-2.0-1.25","1838","2","2","""event"",""trial"",""time""
""focus"",""0"",""1""
""fullscreenenter"",""1"",""2383""
""blur"",""78"",""380740""
""focus"",""78"",""382282""
","""event"",""trial"",""time""
""blur"",""78"",""380740""
","""event"",""trial"",""time""
""focus"",""0"",""1""
""focus"",""78"",""382282""
","""event"",""trial"",""time""
""fullscreenenter"",""1"",""2383""
","
","","","","","","962","images/apple1.png","","","learning","images/fruit_choice1.png","images/fruit_choice2.png","images/fruit_choice3.png","[0,1,2]","1","1","1","images/fruit_choice1.png","1","fruit","","apple","2","0"
"html-keyboard-response","138","563580","0.0-9.0-2.0-0.26","1838","2","2","""event"",""trial"",""time""
""focus"",""0"",""1""
""fullscreenenter"",""1"",""2383""
""blur"",""78"",""380740""
""focus"",""78"",""382282""
","""event"",""trial"",""time""
""blur"",""78"",""380740""
","""event"",""trial"",""time""
""focus"",""0"",""1""
""focus"",""78"",""382282""
","""event"",""trial"",""time""
""fullscreenenter"",""1"",""2383""
","
","","","","","","null","<div style=""font-size:60px;"">+</div>","null","","fixation","","","","","","","","","","","","","",""
"learning-trial","139","567591","0.0-9.0-2.0-1.26","1838","2","2","""event"",""trial"",""time""
""focus"",""0"",""1""
""fullscreenenter"",""1"",""2383""
""blur"",""78"",""380740""
""focus"",""78"",""382282""
","""event"",""trial"",""time""
""blur"",""78"",""380740""
","""event"",""trial"",""time""
""focus"",""0"",""1""
""focus"",""78"",""382282""
","""event"",""trial"",""time""
""fullscreenenter"",""1"",""2383""
","
","","","","","","1120","images/banana4.png","","","learning","images/fruit_choice1.png","images/fruit_choice3.png","images/fruit_choice2.png","[0,2,1]","0","0","1","images/fruit_choice1.png","1","fruit","","banana","2","0"
"html-keyboard-response","140","568110","0.0-9.0-2.0-0.27","1838","2","2","""event"",""trial"",""time""
""focus"",""0"",""1""
""fullscreenenter"",""1"",""2383""
""blur"",""78"",""380740""
""focus"",""78"",""382282""
","""event"",""trial"",""time""
""blur"",""78"",""380740""
","""event"",""trial"",""time""
""focus"",""0"",""1""
""focus"",""78"",""382282""
","""event"",""trial"",""time""
""fullscreenenter"",""1"",""2383""
","
","","","","","","null","<div style=""font-size:60px;"">+</div>","null","","fixation","","","","","","","","","","","","","",""
"learning-trial","141","572117","0.0-9.0-2.0-1.27","1838","2","2","""event"",""trial"",""time""
""focus"",""0"",""1""
""fullscreenenter"",""1"",""2383""
""blur"",""78"",""380740""
""focus"",""78"",""382282""
","""event"",""trial"",""time""
""blur"",""78"",""380740""
","""event"",""trial"",""time""
""focus"",""0"",""1""
""focus"",""78"",""382282""
","""event"",""trial"",""time""
""fullscreenenter"",""1"",""2383""
","
","","","","","","1310","images/orange1.png","","","learning","images/fruit_choice2.png","images/fruit_choice3.png","images/fruit_choice1.png","[1,2,0]","2","1","1","images/fruit_choice2.png","-1","fruit","","orange","2","0"
"html-keyboard-response","142","572617","0.0-9.0-2.0-0.28","1838","2","2","""event"",""trial"",""time""
""focus"",""0"",""1""
""fullscreenenter"",""1"",""2383""
""blur"",""78"",""380740""
""focus"",""78"",""382282""
","""event"",""trial"",""time""
""blur"",""78"",""380740""
","""event"",""trial"",""time""
""focus"",""0"",""1""
""focus"",""78"",""382282""
","""event"",""trial"",""time""
""fullscreenenter"",""1"",""2383""
","
","","","","","","null","<div style=""font-size:60px;"">+</div>","null","","fixation","","","","","","","","","","","","","",""
"learning-trial","143","576630","0.0-9.0-2.0-1.28","1838","2","2","""event"",""trial"",""time""
""focus"",""0"",""1""
""fullscreenenter"",""1"",""2383""
""blur"",""78"",""380740""
""focus"",""78"",""382282""
","""event"",""trial"",""time""
""blur"",""78"",""380740""
","""event"",""trial"",""time""
""focus"",""0"",""1""
""focus"",""78"",""382282""
","""event"",""trial"",""time""
""fullscreenenter"",""1"",""2383""
","
","","","","","","731","images/apple1.png","","","learning","images/fruit_choice2.png","images/fruit_choice1.png","images/fruit_choice3.png","[1,0,2]","1","0","1","images/fruit_choice2.png","1","fruit","","apple","2","0"
"html-keyboard-response","144","577149","0.0-9.0-2.0-0.29","1838","2","2","""event"",""trial"",""time""
""focus"",""0"",""1""
""fullscreenenter"",""1"",""2383""
""blur"",""78"",""380740""
""focus"",""78"",""382282""
","""event"",""trial"",""time""
""blur"",""78"",""380740""
","""event"",""trial"",""time""
""focus"",""0"",""1""
""focus"",""78"",""382282""
","""event"",""trial"",""time""
""fullscreenenter"",""1"",""2383""
","
","","","","","","null","<div style=""font-size:60px;"">+</div>","null","","fixation","","","","","","","","","","","","","",""
"learning-trial","145","581171","0.0-9.0-2.0-1.29","1838","2","2","""event"",""trial"",""time""
""focus"",""0"",""1""
""fullscreenenter"",""1"",""2383""
""blur"",""78"",""380740""
""focus"",""78"",""382282""
","""event"",""trial"",""time""
""blur"",""78"",""380740""
","""event"",""trial"",""time""
""focus"",""0"",""1""
""focus"",""78"",""382282""
","""event"",""trial"",""time""
""fullscreenenter"",""1"",""2383""
","
","","","","","","870","images/apple3.png","","","learning","images/fruit_choice2.png","images/fruit_choice1.png","images/fruit_choice3.png","[1,0,2]","0","1","1","images/fruit_choice2.png","-1","fruit","","apple","2","0"
"html-keyboard-response","146","581690","0.0-9.0-2.0-0.30","1838","2","2","""event"",""trial"",""time""
""focus"",""0"",""1""
""fullscreenenter"",""1"",""2383""
""blur"",""78"",""380740""
""focus"",""78"",""382282""
","""event"",""trial"",""time""
""blur"",""78"",""380740""
","""event"",""trial"",""time""
""focus"",""0"",""1""
""focus"",""78"",""382282""
","""event"",""trial"",""time""
""fullscreenenter"",""1"",""2383""
","
","","","","","","null","<div style=""font-size:60px;"">+</div>","null","","fixation","","","","","","","","","","","","","",""
"learning-trial","147","585710","0.0-9.0-2.0-1.30","1838","2","2","""event"",""trial"",""time""
""focus"",""0"",""1""
""fullscreenenter"",""1"",""2383""
""blur"",""78"",""380740""
""focus"",""78"",""382282""
","""event"",""trial"",""time""
""blur"",""78"",""380740""
","""event"",""trial"",""time""
""focus"",""0"",""1""
""focus"",""78"",""382282""
","""event"",""trial"",""time""
""fullscreenenter"",""1"",""2383""
","
","","","","","","1195","images/orange3.png","","","learning","images/fruit_choice2.png","images/fruit_choice1.png","images/fruit_choice3.png","[1,0,2]","0","1","2","images/fruit_choice1.png","1","fruit","","orange","2","0"
"html-keyboard-response","148","586227","0.0-9.0-2.0-0.31","1838","2","2","""event"",""trial"",""time""
""focus"",""0"",""1""
""fullscreenenter"",""1"",""2383""
""blur"",""78"",""380740""
""focus"",""78"",""382282""
","""event"",""trial"",""time""
""blur"",""78"",""380740""
","""event"",""trial"",""time""
""focus"",""0"",""1""
""focus"",""78"",""382282""
","""event"",""trial"",""time""
""fullscreenenter"",""1"",""2383""
","
","","","","","","null","<div style=""font-size:60px;"">+</div>","null","","fixation","","","","","","","","","","","","","",""
"learning-trial","149","590230","0.0-9.0-2.0-1.31","1838","2","2","""event"",""trial"",""time""
""focus"",""0"",""1""
""fullscreenenter"",""1"",""2383""
""blur"",""78"",""380740""
""focus"",""78"",""382282""
","""event"",""trial"",""time""
""blur"",""78"",""380740""
","""event"",""trial"",""time""
""focus"",""0"",""1""
""focus"",""78"",""382282""
","""event"",""trial"",""time""
""fullscreenenter"",""1"",""2383""
","
","","","","","","697","images/apple3.png","","","learning","images/fruit_choice2.png","images/fruit_choice1.png","images/fruit_choice3.png","[1,0,2]","0","1","1","images/fruit_choice2.png","-1","fruit","","apple","2","0"
"html-keyboard-response","150","590750","0.0-9.0-2.0-0.32","1838","2","2","""event"",""trial"",""time""
""focus"",""0"",""1""
""fullscreenenter"",""1"",""2383""
""blur"",""78"",""380740""
""focus"",""78"",""382282""
","""event"",""trial"",""time""
""blur"",""78"",""380740""
","""event"",""trial"",""time""
""focus"",""0"",""1""
""focus"",""78"",""382282""
","""event"",""trial"",""time""
""fullscreenenter"",""1"",""2383""
","
","","","","","","null","<div style=""font-size:60px;"">+</div>","null","","fixation","","","","","","","","","","","","","",""
"learning-trial","151","594770","0.0-9.0-2.0-1.32","1838","2","2","""event"",""trial"",""time""
""focus"",""0"",""1""
""fullscreenenter"",""1"",""2383""
""blur"",""78"",""380740""
""focus"",""78"",""382282""
","""event"",""trial"",""time""
""blur"",""78"",""380740""
","""event"",""trial"",""time""
""focus"",""0"",""1""
""focus"",""78"",""382282""
","""event"",""trial"",""time""
""fullscreenenter"",""1"",""2383""
","
","","","","","","959","images/orange5.png","","","learning","images/fruit_choice2.png","images/fruit_choice3.png","images/fruit_choice1.png","[1,2,0]","1","0","2","images/fruit_choice3.png","1","fruit","","orange","2","0"
"html-keyboard-response","152","595290","0.0-9.0-2.0-0.33","1838","2","2","""event"",""trial"",""time""
""focus"",""0"",""1""
""fullscreenenter"",""1"",""2383""
""blur"",""78"",""380740""
""focus"",""78"",""382282""
","""event"",""trial"",""time""
""blur"",""78"",""380740""
","""event"",""trial"",""time""
""focus"",""0"",""1""
""focus"",""78"",""382282""
","""event"",""trial"",""time""
""fullscreenenter"",""1"",""2383""
","
","","","","","","null","<div style=""font-size:60px;"">+</div>","null","","fixation","","","","","","","","","","","","","",""
"learning-trial","153","599310","0.0-9.0-2.0-1.33","1838","2","2","""event"",""trial"",""time""
""focus"",""0"",""1""
""fullscreenenter"",""1"",""2383""
""blur"",""78"",""380740""
""focus"",""78"",""382282""
","""event"",""trial"",""time""
""blur"",""78"",""380740""
","""event"",""trial"",""time""
""focus"",""0"",""1""
""focus"",""78"",""382282""
","""event"",""trial"",""time""
""fullscreenenter"",""1"",""2383""
","
","","","","","","979","images/apple4.png","","","learning","images/fruit_choice2.png","images/fruit_choice3.png","images/fruit_choice1.png","[1,2,0]","2","1","3","images/fruit_choice1.png","-1","fruit","","apple","2","0"
"html-keyboard-response","154","599830","0.0-9.0-2.0-0.34","1838","2","2","""event"",""trial"",""time""
""focus"",""0"",""1""
""fullscreenenter"",""1"",""2383""
""blur"",""78"",""380740""
""focus"",""78"",""382282""
","""event"",""trial"",""time""
""blur"",""78"",""380740""
","""event"",""trial"",""time""
""focus"",""0"",""1""
""focus"",""78"",""382282""
","""event"",""trial"",""time""
""fullscreenenter"",""1"",""2383""
","
","","","","","","null","<div style=""font-size:60px;"">+</div>","null","","fixation","","","","","","","","","","","","","",""
"learning-trial","155","603851","0.0-9.0-2.0-1.34","1838","2","2","""event"",""trial"",""time""
""focus"",""0"",""1""
""fullscreenenter"",""1"",""2383""
""blur"",""78"",""380740""
""focus"",""78"",""382282""
","""event"",""trial"",""time""
""blur"",""78"",""380740""
","""event"",""trial"",""time""
""focus"",""0"",""1""
""focus"",""78"",""382282""
","""event"",""trial"",""time""
""fullscreenenter"",""1"",""2383""
","
","","","","","","935","images/orange3.png","","","learning","images/fruit_choice3.png","images/fruit_choice1.png","images/fruit_choice2.png","[2,0,1]","0","1","2","images/fruit_choice1.png","-1","fruit","","orange","2","0"
"html-keyboard-response","156","604369","0.0-9.0-2.0-0.35","1838","2","2","""event"",""trial"",""time""
""focus"",""0"",""1""
""fullscreenenter"",""1"",""2383""
""blur"",""78"",""380740""
""focus"",""78"",""382282""
","""event"",""trial"",""time""
""blur"",""78"",""380740""
","""event"",""trial"",""time""
""focus"",""0"",""1""
""focus"",""78"",""382282""
","""event"",""trial"",""time""
""fullscreenenter"",""1"",""2383""
","
","","","","","","null","<div style=""font-size:60px;"">+</div>","null","","fixation","","","","","","","","","","","","","",""
"learning-trial","157","608391","0.0-9.0-2.0-1.35","1838","2","2","""event"",""trial"",""time""
""focus"",""0"",""1""
""fullscreenenter"",""1"",""2383""
""blur"",""78"",""380740""
""focus"",""78"",""382282""
","""event"",""trial"",""time""
""blur"",""78"",""380740""
","""event"",""trial"",""time""
""focus"",""0"",""1""
""focus"",""78"",""382282""
","""event"",""trial"",""time""
""fullscreenenter"",""1"",""2383""
","
","","","","","","882","images/orange1.png","","","learning","images/fruit_choice2.png","images/fruit_choice3.png","images/fruit_choice1.png","[1,2,0]","2","1","1","images/fruit_choice2.png","-1","fruit","","orange","2","0"
"html-keyboard-response","158","608910","0.0-9.0-2.0-0.36","1838","2","2","""event"",""trial"",""time""
""focus"",""0"",""1""
""fullscreenenter"",""1"",""2383""
""blur"",""78"",""380740""
""focus"",""78"",""382282""
","""event"",""trial"",""time""
""blur"",""78"",""380740""
","""event"",""trial"",""time""
""focus"",""0"",""1""
""focus"",""78"",""382282""
","""event"",""trial"",""time""
""fullscreenenter"",""1"",""2383""
","
","","","","","","null","<div style=""font-size:60px;"">+</div>","null","","fixation","","","","","","","","","","","","","",""
"learning-trial","159","612930","0.0-9.0-2.0-1.36","1838","2","2","""event"",""trial"",""time""
""focus"",""0"",""1""
""fullscreenenter"",""1"",""2383""
""blur"",""78"",""380740""
""focus"",""78"",""382282""
","""event"",""trial"",""time""
""blur"",""78"",""380740""
","""event"",""trial"",""time""
""focus"",""0"",""1""
""focus"",""78"",""382282""
","""event"",""trial"",""time""
""fullscreenenter"",""1"",""2383""
","
","","","","","","840","images/orange1.png","","","learning","images/fruit_choice2.png","images/fruit_choice1.png","images/fruit_choice3.png","[1,0,2]","2","2","2","images/fruit_choice1.png","-1","fruit","","orange","2","0"
"html-keyboard-response","160","613450","0.0-9.0-2.0-0.37","1838","2","2","""event"",""trial"",""time""
""focus"",""0"",""1""
""fullscreenenter"",""1"",""2383""
""blur"",""78"",""380740""
""focus"",""78"",""382282""
","""event"",""trial"",""time""
""blur"",""78"",""380740""
","""event"",""trial"",""time""
""focus"",""0"",""1""
""focus"",""78"",""382282""
","""event"",""trial"",""time""
""fullscreenenter"",""1"",""2383""
","
","","","","","","null","<div style=""font-size:60px;"">+</div>","null","","fixation","","","","","","","","","","","","","",""
"learning-trial","161","617470","0.0-9.0-2.0-1.37","1838","2","2","""event"",""trial"",""time""
""focus"",""0"",""1""
""fullscreenenter"",""1"",""2383""
""blur"",""78"",""380740""
""focus"",""78"",""382282""
","""event"",""trial"",""time""
""blur"",""78"",""380740""
","""event"",""trial"",""time""
""focus"",""0"",""1""
""focus"",""78"",""382282""
","""event"",""trial"",""time""
""fullscreenenter"",""1"",""2383""
","
","","","","","","1265","images/apple3.png","","","learning","images/fruit_choice3.png","images/fruit_choice2.png","images/fruit_choice1.png","[2,1,0]","0","2","1","images/fruit_choice3.png","-1","fruit","","apple","2","0"
"html-keyboard-response","162","617990","0.0-9.0-2.0-0.38","1838","2","2","""event"",""trial"",""time""
""focus"",""0"",""1""
""fullscreenenter"",""1"",""2383""
""blur"",""78"",""380740""
""focus"",""78"",""382282""
","""event"",""trial"",""time""
""blur"",""78"",""380740""
","""event"",""trial"",""time""
""focus"",""0"",""1""
""focus"",""78"",""382282""
","""event"",""trial"",""time""
""fullscreenenter"",""1"",""2383""
","
","","","","","","null","<div style=""font-size:60px;"">+</div>","null","","fixation","","","","","","","","","","","","","",""
"learning-trial","163","622011","0.0-9.0-2.0-1.38","1838","2","2","""event"",""trial"",""time""
""focus"",""0"",""1""
""fullscreenenter"",""1"",""2383""
""blur"",""78"",""380740""
""focus"",""78"",""382282""
","""event"",""trial"",""time""
""blur"",""78"",""380740""
","""event"",""trial"",""time""
""focus"",""0"",""1""
""focus"",""78"",""382282""
","""event"",""trial"",""time""
""fullscreenenter"",""1"",""2383""
","
","","","","","","998","images/banana4.png","","","learning","images/fruit_choice3.png","images/fruit_choice1.png","images/fruit_choice2.png","[2,0,1]","0","1","3","images/fruit_choice2.png","-1","fruit","","banana","2","0"
"html-keyboard-response","164","622530","0.0-9.0-2.0-0.39","1838","2","2","""event"",""trial"",""time""
""focus"",""0"",""1""
""fullscreenenter"",""1"",""2383""
""blur"",""78"",""380740""
""focus"",""78"",""382282""
","""event"",""trial"",""time""
""blur"",""78"",""380740""
","""event"",""trial"",""time""
""focus"",""0"",""1""
""focus"",""78"",""382282""
","""event"",""trial"",""time""
""fullscreenenter"",""1"",""2383""
","
","","","","","","null","<div style=""font-size:60px;"">+</div>","null","","fixation","","","","","","","","","","","","","",""
"learning-trial","165","626550","0.0-9.0-2.0-1.39","1838","2","2","""event"",""trial"",""time""
""focus"",""0"",""1""
""fullscreenenter"",""1"",""2383""
""blur"",""78"",""380740""
""focus"",""78"",""382282""
","""event"",""trial"",""time""
""blur"",""78"",""380740""
","""event"",""trial"",""time""
""focus"",""0"",""1""
""focus"",""78"",""382282""
","""event"",""trial"",""time""
""fullscreenenter"",""1"",""2383""
","
","","","","","","1050","images/banana1.png","","","learning","images/fruit_choice1.png","images/fruit_choice2.png","images/fruit_choice3.png","[0,1,2]","2","2","3","images/fruit_choice3.png","1","fruit","","banana","2","0"
"html-keyboard-response","166","627067","0.0-9.0-2.0-0.40","1838","2","2","""event"",""trial"",""time""
""focus"",""0"",""1""
""fullscreenenter"",""1"",""2383""
""blur"",""78"",""380740""
""focus"",""78"",""382282""
","""event"",""trial"",""time""
""blur"",""78"",""380740""
","""event"",""trial"",""time""
""focus"",""0"",""1""
""focus"",""78"",""382282""
","""event"",""trial"",""time""
""fullscreenenter"",""1"",""2383""
","
","","","","","","null","<div style=""font-size:60px;"">+</div>","null","","fixation","","","","","","","","","","","","","",""
"learning-trial","167","631090","0.0-9.0-2.0-1.40","1838","2","2","""event"",""trial"",""time""
""focus"",""0"",""1""
""fullscreenenter"",""1"",""2383""
""blur"",""78"",""380740""
""focus"",""78"",""382282""
","""event"",""trial"",""time""
""blur"",""78"",""380740""
","""event"",""trial"",""time""
""focus"",""0"",""1""
""focus"",""78"",""382282""
","""event"",""trial"",""time""
""fullscreenenter"",""1"",""2383""
","
","","","","","","585","images/banana1.png","","","learning","images/fruit_choice3.png","images/fruit_choice1.png","images/fruit_choice2.png","[2,0,1]","2","0","3","images/fruit_choice2.png","-1","fruit","","banana","2","0"
"html-keyboard-response","168","631609","0.0-9.0-2.0-0.41","1838","2","2","""event"",""trial"",""time""
""focus"",""0"",""1""
""fullscreenenter"",""1"",""2383""
""blur"",""78"",""380740""
""focus"",""78"",""382282""
","""event"",""trial"",""time""
""blur"",""78"",""380740""
","""event"",""trial"",""time""
""focus"",""0"",""1""
""focus"",""78"",""382282""
","""event"",""trial"",""time""
""fullscreenenter"",""1"",""2383""
","
","","","","","","null","<div style=""font-size:60px;"">+</div>","null","","fixation","","","","","","","","","","","","","",""
"learning-trial","169","635630","0.0-9.0-2.0-1.41","1838","2","2","""event"",""trial"",""time""
""focus"",""0"",""1""
""fullscreenenter"",""1"",""2383""
""blur"",""78"",""380740""
""focus"",""78"",""382282""
","""event"",""trial"",""time""
""blur"",""78"",""380740""
","""event"",""trial"",""time""
""focus"",""0"",""1""
""focus"",""78"",""382282""
","""event"",""trial"",""time""
""fullscreenenter"",""1"",""2383""
","
","","","","","","466","images/banana1.png","","","learning","images/fruit_choice1.png","images/fruit_choice2.png","images/fruit_choice3.png","[0,1,2]","2","2","3","images/fruit_choice3.png","1","fruit","","banana","2","0"
"html-keyboard-response","170","636150","0.0-9.0-2.0-0.42","1838","2","2","""event"",""trial"",""time""
""focus"",""0"",""1""
""fullscreenenter"",""1"",""2383""
""blur"",""78"",""380740""
""focus"",""78"",""382282""
","""event"",""trial"",""time""
""blur"",""78"",""380740""
","""event"",""trial"",""time""
""focus"",""0"",""1""
""focus"",""78"",""382282""
","""event"",""trial"",""time""
""fullscreenenter"",""1"",""2383""
","
","","","","","","null","<div style=""font-size:60px;"">+</div>","null","","fixation","","","","","","","","","","","","","",""
"learning-trial","171","640170","0.0-9.0-2.0-1.42","1838","2","2","""event"",""trial"",""time""
""focus"",""0"",""1""
""fullscreenenter"",""1"",""2383""
""blur"",""78"",""380740""
""focus"",""78"",""382282""
","""event"",""trial"",""time""
""blur"",""78"",""380740""
","""event"",""trial"",""time""
""focus"",""0"",""1""
""focus"",""78"",""382282""
","""event"",""trial"",""time""
""fullscreenenter"",""1"",""2383""
","
","","","","","","726","images/orange3.png","","","learning","images/fruit_choice2.png","images/fruit_choice1.png","images/fruit_choice3.png","[1,0,2]","0","1","2","images/fruit_choice1.png","1","fruit","","orange","2","0"
"html-keyboard-response","172","640690","0.0-9.0-2.0-0.43","1838","2","2","""event"",""trial"",""time""
""focus"",""0"",""1""
""fullscreenenter"",""1"",""2383""
""blur"",""78"",""380740""
""focus"",""78"",""382282""
","""event"",""trial"",""time""
""blur"",""78"",""380740""
","""event"",""trial"",""time""
""focus"",""0"",""1""
""focus"",""78"",""382282""
","""event"",""trial"",""time""
""fullscreenenter"",""1"",""2383""
","
","","","","","","null","<div style=""font-size:60px;"">+</div>","null","","fixation","","","","","","","","","","","","","",""
"learning-trial","173","644710","0.0-9.0-2.0-1.43","1838","2","2","""event"",""trial"",""time""
""focus"",""0"",""1""
""fullscreenenter"",""1"",""2383""
""blur"",""78"",""380740""
""focus"",""78"",""382282""
","""event"",""trial"",""time""
""blur"",""78"",""380740""
","""event"",""trial"",""time""
""focus"",""0"",""1""
""focus"",""78"",""382282""
","""event"",""trial"",""time""
""fullscreenenter"",""1"",""2383""
","
","","","","","","1026","images/apple4.png","","","learning","images/fruit_choice2.png","images/fruit_choice3.png","images/fruit_choice1.png","[1,2,0]","2","1","1","images/fruit_choice2.png","-1","fruit","","apple","2","0"
"html-keyboard-response","174","645230","0.0-9.0-2.0-0.44","1838","2","2","""event"",""trial"",""time""
""focus"",""0"",""1""
""fullscreenenter"",""1"",""2383""
""blur"",""78"",""380740""
""focus"",""78"",""382282""
","""event"",""trial"",""time""
""blur"",""78"",""380740""
","""event"",""trial"",""time""
""focus"",""0"",""1""
""focus"",""78"",""382282""
","""event"",""trial"",""time""
""fullscreenenter"",""1"",""2383""
","
","","","","","","null","<div style=""font-size:60px;"">+</div>","null","","fixation","","","","","","","","","","","","","",""
"learning-trial","175","649240","0.0-9.0-2.0-1.44","1838","2","2","""event"",""trial"",""time""
""focus"",""0"",""1""
""fullscreenenter"",""1"",""2383""
""blur"",""78"",""380740""
""focus"",""78"",""382282""
","""event"",""trial"",""time""
""blur"",""78"",""380740""
","""event"",""trial"",""time""
