"trial_type","trial_index","time_elapsed","internal_node_id","subject_id","condition","task_version","interactions","blur_events","focus_events","fullscreenenter_events","fullscreenexit_events","success","timeout","failed_images","failed_audio","failed_video","rt","stimulus","response","button_pressed","task_part","left_choice","middle_choice","right_choice","choice_positions","correct_response","correct_position","key_press","option_selected","points","task_block","correct","stim_cat","block_condition","block_number"
"pavlovia","0","26","0.0-0.0","1905","2","2","""event"",""trial"",""time""
""fullscreenenter"",""1"",""8087""
","
","
","""event"",""trial"",""time""
""fullscreenenter"",""1"",""8087""
","
","","","","","","","","","","","","","","","","","","","","","","","",""
"fullscreen","1","8983","0.0-1.0","1905","2","2","""event"",""trial"",""time""
""fullscreenenter"",""1"",""8087""
","
","
","""event"",""trial"",""time""
""fullscreenenter"",""1"",""8087""
","
","true","","","","","","","","","","","","","","","","","","","","","","",""
"preload","2","23574","0.0-2.0","1905","2","2","""event"",""trial"",""time""
""fullscreenenter"",""1"",""8087""
","
","
","""event"",""trial"",""time""
""fullscreenenter"",""1"",""8087""
","
","true","false","[]","[]","[]","","","","","","","","","","","","","","","","","","",""
"audio-keyboard-response","3","31100","0.0-3.0","1905","2","2","""event"",""trial"",""time""
""fullscreenenter"",""1"",""8087""
","
","
","""event"",""trial"",""time""
""fullscreenenter"",""1"",""8087""
","
","","","","","","7530.666666666667","audio/beep_loop.wav"," ","","","","","","","","","","","","","","","",""
"audio-button-response","4","35070","0.0-4.0","1905","2","2","""event"",""trial"",""time""
""fullscreenenter"",""1"",""8087""
","
","
","""event"",""trial"",""time""
""fullscreenenter"",""1"",""8087""
","
","","","","","","3960","audio/shark.wav","4","","","","","","","","","","","","","","","",""
"audio-button-response","5","39675","0.0-5.0","1905","2","2","""event"",""trial"",""time""
""fullscreenenter"",""1"",""8087""
","
","
","""event"",""trial"",""time""
""fullscreenenter"",""1"",""8087""
","
","","","","","","3600","audio/turtle.wav","1","","","","","","","","","","","","","","","",""
"preload","6","53741","0.0-6.0","1905","2","2","""event"",""trial"",""time""
""fullscreenenter"",""1"",""8087""
","
","
","""event"",""trial"",""time""
""fullscreenenter"",""1"",""8087""
","
","true","false","[]","[]","[]","","","","","","","","","","","","","","","","","","",""
"html-keyboard-response","7","58254","0.0-7.0","1905","2","2","""event"",""trial"",""time""
""fullscreenenter"",""1"",""8087""
","
","
","""event"",""trial"",""time""
""fullscreenenter"",""1"",""8087""
","
","","","","","","4506.899999999907","Welcome to the experiment. Press any key to begin and to advance the instructions.","h","","","","","","","","","","","","","","","",""
"learning-instructions","8","69870","0.0-8.0-0.0-0.0","1905","2","2","""event"",""trial"",""time""
""fullscreenenter"",""1"",""8087""
","
","
","""event"",""trial"",""time""
""fullscreenenter"",""1"",""8087""
","
","","","","","","3859.2999999998137","<p> Welcome! Today you are going to play 6 different rounds of a decision-making game. </p><p> Use the mouse to click next to continue. </p>","","0","instructions","","","","","","","","","","","","","",""
"learning-instructions","9","74702","0.0-8.0-0.0-0.1","1905","2","2","""event"",""trial"",""time""
""fullscreenenter"",""1"",""8087""
","
","
","""event"",""trial"",""time""
""fullscreenenter"",""1"",""8087""
","
","","","","","","1832.1000000000931","<p> You will start with a practice round to learn the rules. </p>","","0","instructions","","","","","","","","","","","","","",""
"learning-instructions","10","83992","0.0-8.0-0.0-0.2","1905","2","2","""event"",""trial"",""time""
""fullscreenenter"",""1"",""8087""
","
","
","""event"",""trial"",""time""
""fullscreenenter"",""1"",""8087""
","
","","","","","","1552.1999999997206","<p> Your goal in this round is to deliver sports equipment to three different parks. </p><p> You will need to deliver many types of equipment. </p></div>","","0","instructions","","","","","","","","","","","","","",""
"learning-instructions","11","94078","0.0-8.0-0.0-0.3","1905","2","2","""event"",""trial"",""time""
""fullscreenenter"",""1"",""8087""
","
","
","""event"",""trial"",""time""
""fullscreenenter"",""1"",""8087""
","
","","","","","","1605.8999999999069","<p> On each turn, you will see one piece of sports equipment and three different parks.  </p><p> You need to select which park to deliver the equipment to.  </p>","","0","instructions","","","","","","","","","","","","","",""
"learning-instructions","12","109218","0.0-8.0-0.0-0.4","1905","2","2","""event"",""trial"",""time""
""fullscreenenter"",""1"",""8087""
","
","
","""event"",""trial"",""time""
""fullscreenenter"",""1"",""8087""
","
","","","","","","1854.7000000001863","<p> You can select the park on the left by pressing the '1' key on your keyboard. <br>You can select the park in the middle by pressing the '2' key on your keyboard. <br>You can select the park on the right by pressing the '3' key on your keyboard.  </p><br><div class=""choice-instructions-grid""> <div class=""choice-option""><img src=""images/park1.png"" class=""choice-option-img"" stage=""instructions"" position=""0"" ><div class=""choice-option-text""> Press ""1."" </div></div><div class=""choice-option""><img src=""images/park2.png"" class=""choice-option-img"" stage=""instructions"" position=""1"" ><div class=""choice-option-text""> Press ""2."" </div></div><div class=""choice-option""><img src=""images/park3.png"" class=""choice-option-img"" stage=""instructions"" position=""2"" ><div class=""choice-option-text""> Press ""3."" </div></div></div>","","0","instructions","","","","","","","","","","","","","",""
"learning-instructions","13","116182","0.0-8.0-0.0-0.5","1905","2","2","""event"",""trial"",""time""
""fullscreenenter"",""1"",""8087""
","
","
","""event"",""trial"",""time""
""fullscreenenter"",""1"",""8087""
","
","","","","","","1583.2999999998137","<p> If the kids in the park you chose like the equipment, they will be very happy! </p><div style='float: center;'><img src='images/check.png' width = '200' height = '200'></img>","","0","instructions","","","","","","","","","","","","","",""
"learning-instructions","14","124375","0.0-8.0-0.0-0.6","1905","2","2","""event"",""trial"",""time""
""fullscreenenter"",""1"",""8087""
","
","
","""event"",""trial"",""time""
""fullscreenenter"",""1"",""8087""
","
","","","","","","2604.399999999907","<p> But, if the kids in the park you chose do not like the equipment, they will be sad. </p><div style='float: center;'><img src='images/x.png' width = '200' height = '200'></img>","","0","instructions","","","","","","","","","","","","","",""
"learning-instructions","15","132948","0.0-8.0-0.0-0.7","1905","2","2","""event"",""trial"",""time""
""fullscreenenter"",""1"",""8087""
","
","
","""event"",""trial"",""time""
""fullscreenenter"",""1"",""8087""
","
","","","","","","2138","<p> Importantly, the kids in each park like some pieces of sports equipment more than others. </p>","","0","instructions","","","","","","","","","","","","","",""
"learning-instructions","16","141992","0.0-8.0-0.0-0.8","1905","2","2","""event"",""trial"",""time""
""fullscreenenter"",""1"",""8087""
","
","
","""event"",""trial"",""time""
""fullscreenenter"",""1"",""8087""
","
","","","","","","2991.399999999907","<p> If you choose the best park for each piece of equipment, the kids there will usually be happy. </p>","","0","instructions","","","","","","","","","","","","","",""
"learning-instructions","17","149519","0.0-8.0-0.0-0.9","1905","2","2","""event"",""trial"",""time""
""fullscreenenter"",""1"",""8087""
","
","
","""event"",""trial"",""time""
""fullscreenenter"",""1"",""8087""
","
","","","","","","880.3000000002794","<p> However, even if you choose the best park for the equipment, the kids may sometimes be sad. </p>","","0","instructions","","","","","","","","","","","","","",""
"learning-instructions","18","158331","0.0-8.0-0.0-0.10","1905","2","2","""event"",""trial"",""time""
""fullscreenenter"",""1"",""8087""
","
","
","""event"",""trial"",""time""
""fullscreenenter"",""1"",""8087""
","
","","","","","","1582","<p> Similarly, even if you choose the <i>wrong</i> park for the equipment, the kids may still be happy sometimes.","","0","instructions","","","","","","","","","","","","","",""
"learning-instructions","19","168209","0.0-8.0-0.0-0.11","1905","2","2","""event"",""trial"",""time""
""fullscreenenter"",""1"",""8087""
","
","
","""event"",""trial"",""time""
""fullscreenenter"",""1"",""8087""
","
","","","","","","4829.200000000186","<p> For example, the best park for this soccer ball is this one.<div style='float: center;'><img src='images/i1.png' width = '500' height = '268'></img>","","0","instructions","","","","","","","","","","","","","",""
"learning-instructions","20","174731","0.0-8.0-0.0-0.12","1905","2","2","""event"",""trial"",""time""
""fullscreenenter"",""1"",""8087""
","
","
","""event"",""trial"",""time""
""fullscreenenter"",""1"",""8087""
","
","","","","","","1231.7999999998137","<p> Let's see what happens if you choose this park for the soccer ball five times.","","0","instructions","","","","","","","","","","","","","",""
"learning-instructions","21","178470","0.0-8.0-0.0-0.13","1905","2","2","""event"",""trial"",""time""
""fullscreenenter"",""1"",""8087""
","
","
","""event"",""trial"",""time""
""fullscreenenter"",""1"",""8087""
","
","","","","","","1571.5","<p> The kids are happy.<div style='float: left;'><img src='images/i2.png' width = '640' height = '360'></img>","","0","instructions","","","","","","","","","","","","","",""
"learning-instructions","22","182144","0.0-8.0-0.0-0.14","1905","2","2","""event"",""trial"",""time""
""fullscreenenter"",""1"",""8087""
","
","
","""event"",""trial"",""time""
""fullscreenenter"",""1"",""8087""
","
","","","","","","1513.5","<p> The kids are happy.<div style='float: left;'><img src='images/i3.png' width = '640' height = '360'></img>","","0","instructions","","","","","","","","","","","","","",""
"learning-instructions","23","186390","0.0-8.0-0.0-0.15","1905","2","2","""event"",""trial"",""time""
""fullscreenenter"",""1"",""8087""
","
","
","""event"",""trial"",""time""
""fullscreenenter"",""1"",""8087""
","
","","","","","","2085.4000000003725","<p> The kids are happy.<div style='float: left;'><img src='images/i4.png' width = '640' height = '360'></img>","","0","instructions","","","","","","","","","","","","","",""
"learning-instructions","24","189861","0.0-8.0-0.0-0.16","1905","2","2","""event"",""trial"",""time""
""fullscreenenter"",""1"",""8087""
","
","
","""event"",""trial"",""time""
""fullscreenenter"",""1"",""8087""
","
","","","","","","1270.9000000003725","<p> The kids are sad.<div style='float: left;'><img src='images/i5.png' width = '640' height = '360'></img>","","0","instructions","","","","","","","","","","","","","",""
"learning-instructions","25","193574","0.0-8.0-0.0-0.17","1905","2","2","""event"",""trial"",""time""
""fullscreenenter"",""1"",""8087""
","
","
","""event"",""trial"",""time""
""fullscreenenter"",""1"",""8087""
","
","","","","","","1554.1000000000931","<p> The kids are happy.<div style='float: left;'><img src='images/i6.png' width = '640' height = '360'></img>","","0","instructions","","","","","","","","","","","","","",""
"learning-instructions","26","202560","0.0-8.0-0.0-0.18","1905","2","2","""event"",""trial"",""time""
""fullscreenenter"",""1"",""8087""
","
","
","""event"",""trial"",""time""
""fullscreenenter"",""1"",""8087""
","
","","","","","","1720.6999999997206","<p> As you can see, selecting that park for the soccer ball made the kids happy most of the time, but not all the time.","","0","instructions","","","","","","","","","","","","","",""
"learning-instructions","27","209126","0.0-8.0-0.0-0.19","1905","2","2","""event"",""trial"",""time""
""fullscreenenter"",""1"",""8087""
","
","
","""event"",""trial"",""time""
""fullscreenenter"",""1"",""8087""
","
","","","","","","567.7000000001863","<p> Now let's see what happens if you choose a DIFFERENT park for the soccer ball 5 times.","","0","instructions","","","","","","","","","","","","","",""
"learning-instructions","28","212262","0.0-8.0-0.0-0.20","1905","2","2","""event"",""trial"",""time""
""fullscreenenter"",""1"",""8087""
","
","
","""event"",""trial"",""time""
""fullscreenenter"",""1"",""8087""
","
","","","","","","923.5","<p> The kids are sad.<div style='float: left;'><img src='images/i7.png' width = '640' height = '360'></img>","","0","instructions","","","","","","","","","","","","","",""
"learning-instructions","29","215002","0.0-8.0-0.0-0.21","1905","2","2","""event"",""trial"",""time""
""fullscreenenter"",""1"",""8087""
","
","
","""event"",""trial"",""time""
""fullscreenenter"",""1"",""8087""
","
","","","","","","532.6000000000931","<p> The kids are sad.<div style='float: left;'><img src='images/i8.png' width = '640' height = '360'></img>","","0","instructions","","","","","","","","","","","","","",""
"learning-instructions","30","217663","0.0-8.0-0.0-0.22","1905","2","2","""event"",""trial"",""time""
""fullscreenenter"",""1"",""8087""
","
","
","""event"",""trial"",""time""
""fullscreenenter"",""1"",""8087""
","
","","","","","","493.6999999997206","<p> The kids are happy.<div style='float: left;'><img src='images/i9.png' width = '640' height = '360'></img>","","0","instructions","","","","","","","","","","","","","",""
"learning-instructions","31","220923","0.0-8.0-0.0-0.23","1905","2","2","""event"",""trial"",""time""
""fullscreenenter"",""1"",""8087""
","
","
","""event"",""trial"",""time""
""fullscreenenter"",""1"",""8087""
","
","","","","","","1063.7999999998137","<p> The kids are sad.<div style='float: left;'><img src='images/i10.png' width = '640' height = '360'></img>","","0","instructions","","","","","","","","","","","","","",""
"learning-instructions","32","224408","0.0-8.0-0.0-0.24","1905","2","2","""event"",""trial"",""time""
""fullscreenenter"",""1"",""8087""
","
","
","""event"",""trial"",""time""
""fullscreenenter"",""1"",""8087""
","
","","","","","","1265.6000000000931","<p> The kids are sad.<div style='float: left;'><img src='images/i11.png' width = '640' height = '360'></img>","","0","instructions","","","","","","","","","","","","","",""
"learning-instructions","33","233361","0.0-8.0-0.0-0.25","1905","2","2","""event"",""trial"",""time""
""fullscreenenter"",""1"",""8087""
","
","
","""event"",""trial"",""time""
""fullscreenenter"",""1"",""8087""
","
","","","","","","832.8000000002794","<p> As you can see, selecting the wrong park for the soccer ball made the kids sad most of the time, but not all the time.","","0","instructions","","","","","","","","","","","","","",""
"learning-instructions","34","243678","0.0-8.0-0.0-0.26","1905","2","2","""event"",""trial"",""time""
""fullscreenenter"",""1"",""8087""
","
","
","""event"",""trial"",""time""
""fullscreenenter"",""1"",""8087""
","
","","","","","","1205.5","<p> The different pieces of equipment belong in different parks. You need to try to learn which is the best park for each piece of equipment.","","0","instructions","","","","","","","","","","","","","",""
"learning-instructions","35","260970","0.0-8.0-0.0-0.27","1905","2","2","""event"",""trial"",""time""
""fullscreenenter"",""1"",""8087""
","
","
","""event"",""trial"",""time""
""fullscreenenter"",""1"",""8087""
","
","","","","","","911.8999999999069","<p> Try to choose the best park for each piece of equipment, because you will <b> WIN </b> 1 point for each time you make the kids happy and <b>LOSE</b> 1 point for each time you make them sad. </p><p> Remember, if you make the best choice, you will win 1 point most of the time, but not all the time. </p>","","0","instructions","","","","","","","","","","","","","",""
"learning-instructions","36","267947","0.0-8.0-0.0-0.28","1905","2","2","""event"",""trial"",""time""
""fullscreenenter"",""1"",""8087""
","
","
","""event"",""trial"",""time""
""fullscreenenter"",""1"",""8087""
","
","","","","","","1495.5999999996275","<p> This is just a practice round, but in the real game, your bonus payment will depend on your total number of points.","","0","instructions","","","","","","","","","","","","","",""
"learning-instructions","37","278899","0.0-8.0-0.0-0.29","1905","2","2","""event"",""trial"",""time""
""fullscreenenter"",""1"",""8087""
","
","
","""event"",""trial"",""time""
""fullscreenenter"",""1"",""8087""
","
","","","","","","631.5","<p> The position where each park appears will change throughout the game. </p><p> The position where the park appears <i> does not </i> influence how likely the kids are to be happy or sad. </p>","","0","instructions","","","","","","","","","","","","","",""
"learning-instructions","38","291198","0.0-8.0-0.0-0.30","1905","2","2","""event"",""trial"",""time""
""fullscreenenter"",""1"",""8087""
","
","
","""event"",""trial"",""time""
""fullscreenenter"",""1"",""8087""
","
","","","","","","1320.1000000000931","<p> You will have 4 seconds to make each choice. Try to respond before time runs out! </p><p> You will lose 1 point each time you do not make a response. </p>","","0","instructions","","","","","","","","","","","","","",""
"learning-instructions","39","298476","0.0-8.0-0.0-0.31","1905","2","2","""event"",""trial"",""time""
""fullscreenenter"",""1"",""8087""
","
","
","""event"",""trial"",""time""
""fullscreenenter"",""1"",""8087""
","
","","","","","","474.39999999990687","<p> Remember, you should use the 1, 2, and 3 keys to select the park for each piece of equipment. </p><br><div class=""choice-instructions-grid""> <div class=""choice-option""><img src=""images/park1.png"" class=""choice-option-img"" stage=""instructions"" position=""0"" ><div class=""choice-option-text""> Press ""1."" </div></div><div class=""choice-option""><img src=""images/park2.png"" class=""choice-option-img"" stage=""instructions"" position=""1"" ><div class=""choice-option-text""> Press ""2."" </div></div><div class=""choice-option""><img src=""images/park3.png"" class=""choice-option-img"" stage=""instructions"" position=""2"" ><div class=""choice-option-text""> Press ""3."" </div></div></div>","","0","instructions","","","","","","","","","","","","","",""
"html-button-response","40","300731","0.0-8.0-1.0","1905","2","2","""event"",""trial"",""time""
""fullscreenenter"",""1"",""8087""
","
","
","""event"",""trial"",""time""
""fullscreenenter"",""1"",""8087""
","
","","","","","","2149.100000000093","<p> Ready to practice? </p>","0","","","","","","","","","","","","","","","",""
"html-keyboard-response","41","301336","0.0-8.0-2.0-0.0","1905","2","2","""event"",""trial"",""time""
""fullscreenenter"",""1"",""8087""
","
","
","""event"",""trial"",""time""
""fullscreenenter"",""1"",""8087""
","
","","","","","","null","<div style=""font-size:60px;"">+</div>","null","","fixation","","","","","","","","","","","","","",""
"learning-trial","42","305350","0.0-8.0-2.0-1.0","1905","2","2","""event"",""trial"",""time""
""fullscreenenter"",""1"",""8087""
","
","
","""event"",""trial"",""time""
""fullscreenenter"",""1"",""8087""
","
","","","","","","1786.1999999997206","images/racket1.png","","","practice","images/park3.png","images/park2.png","images/park1.png","[2,1,0]","1","1","2","images/park2.png","1","practice","","","",""
"html-keyboard-response","43","305852","0.0-8.0-2.0-0.1","1905","2","2","""event"",""trial"",""time""
""fullscreenenter"",""1"",""8087""
","
","
","""event"",""trial"",""time""
""fullscreenenter"",""1"",""8087""
","
","","","","","","null","<div style=""font-size:60px;"">+</div>","null","","fixation","","","","","","","","","","","","","",""
"learning-trial","44","309862","0.0-8.0-2.0-1.1","1905","2","2","""event"",""trial"",""time""
""fullscreenenter"",""1"",""8087""
","
","
","""event"",""trial"",""time""
""fullscreenenter"",""1"",""8087""
","
","","","","","","1687.2999999998137","images/ball1.png","","","practice","images/park1.png","images/park3.png","images/park2.png","[0,2,1]","2","1","3","images/park2.png","-1","practice","","","",""
"html-keyboard-response","45","310367","0.0-8.0-2.0-0.2","1905","2","2","""event"",""trial"",""time""
""fullscreenenter"",""1"",""8087""
","
","
","""event"",""trial"",""time""
""fullscreenenter"",""1"",""8087""
","
","","","","","","null","<div style=""font-size:60px;"">+</div>","null","","fixation","","","","","","","","","","","","","",""
"learning-trial","46","314377","0.0-8.0-2.0-1.2","1905","2","2","""event"",""trial"",""time""
""fullscreenenter"",""1"",""8087""
","
","
","""event"",""trial"",""time""
""fullscreenenter"",""1"",""8087""
","
","","","","","","1825.2999999998137","images/racket2.png","","","practice","images/park3.png","images/park1.png","images/park2.png","[2,0,1]","1","2","1","images/park3.png","-1","practice","","","",""
"html-keyboard-response","47","314880","0.0-8.0-2.0-0.3","1905","2","2","""event"",""trial"",""time""
""fullscreenenter"",""1"",""8087""
","
","
","""event"",""trial"",""time""
""fullscreenenter"",""1"",""8087""
","
","","","","","","null","<div style=""font-size:60px;"">+</div>","null","","fixation","","","","","","","","","","","","","",""
"learning-trial","48","318887","0.0-8.0-2.0-1.3","1905","2","2","""event"",""trial"",""time""
""fullscreenenter"",""1"",""8087""
","
","
","""event"",""trial"",""time""
""fullscreenenter"",""1"",""8087""
","
","","","","","","1598.6000000000931","images/ball2.png","","","practice","images/park1.png","images/park3.png","images/park2.png","[0,2,1]","2","1","1","images/park1.png","-1","practice","","","",""
"html-keyboard-response","49","319390","0.0-8.0-2.0-0.4","1905","2","2","""event"",""trial"",""time""
""fullscreenenter"",""1"",""8087""
","
","
","""event"",""trial"",""time""
""fullscreenenter"",""1"",""8087""
","
","","","","","","null","<div style=""font-size:60px;"">+</div>","null","","fixation","","","","","","","","","","","","","",""
"learning-trial","50","323400","0.0-8.0-2.0-1.4","1905","2","2","""event"",""trial"",""time""
""fullscreenenter"",""1"",""8087""
","
","
","""event"",""trial"",""time""
""fullscreenenter"",""1"",""8087""
","
","","","","","","1935.7999999998137","images/racket3.png","","","practice","images/park2.png","images/park3.png","images/park1.png","[1,2,0]","0","2","3","images/park1.png","1","practice","","","",""
"html-keyboard-response","51","323903","0.0-8.0-2.0-0.5","1905","2","2","""event"",""trial"",""time""
""fullscreenenter"",""1"",""8087""
","
","
","""event"",""trial"",""time""
""fullscreenenter"",""1"",""8087""
","
","","","","","","null","<div style=""font-size:60px;"">+</div>","null","","fixation","","","","","","","","","","","","","",""
"learning-trial","52","327912","0.0-8.0-2.0-1.5","1905","2","2","""event"",""trial"",""time""
""fullscreenenter"",""1"",""8087""
","
","
","""event"",""trial"",""time""
""fullscreenenter"",""1"",""8087""
","
","","","","","","1560.6000000000931","images/racket3.png","","","practice","images/park1.png","images/park2.png","images/park3.png","[0,1,2]","0","0","1","images/park1.png","1","practice","","","",""
"html-keyboard-response","53","328418","0.0-8.0-2.0-0.6","1905","2","2","""event"",""trial"",""time""
""fullscreenenter"",""1"",""8087""
","
","
","""event"",""trial"",""time""
""fullscreenenter"",""1"",""8087""
","
","","","","","","null","<div style=""font-size:60px;"">+</div>","null","","fixation","","","","","","","","","","","","","",""
"learning-trial","54","332428","0.0-8.0-2.0-1.6","1905","2","2","""event"",""trial"",""time""
""fullscreenenter"",""1"",""8087""
","
","
","""event"",""trial"",""time""
""fullscreenenter"",""1"",""8087""
","
","","","","","","1785.6999999997206","images/racket2.png","","","practice","images/park3.png","images/park2.png","images/park1.png","[2,1,0]","1","1","2","images/park2.png","1","practice","","","",""
"html-keyboard-response","55","332930","0.0-8.0-2.0-0.7","1905","2","2","""event"",""trial"",""time""
""fullscreenenter"",""1"",""8087""
","
","
","""event"",""trial"",""time""
""fullscreenenter"",""1"",""8087""
","
","","","","","","null","<div style=""font-size:60px;"">+</div>","null","","fixation","","","","","","","","","","","","","",""
"learning-trial","56","336938","0.0-8.0-2.0-1.7","1905","2","2","""event"",""trial"",""time""
""fullscreenenter"",""1"",""8087""
","
","
","""event"",""trial"",""time""
""fullscreenenter"",""1"",""8087""
","
","","","","","","1739.9000000003725","images/racket1.png","","","practice","images/park3.png","images/park2.png","images/park1.png","[2,1,0]","1","1","2","images/park2.png","1","practice","","","",""
"html-keyboard-response","57","337440","0.0-8.0-2.0-0.8","1905","2","2","""event"",""trial"",""time""
""fullscreenenter"",""1"",""8087""
","
","
","""event"",""trial"",""time""
""fullscreenenter"",""1"",""8087""
","
","","","","","","null","<div style=""font-size:60px;"">+</div>","null","","fixation","","","","","","","","","","","","","",""
"learning-trial","58","341448","0.0-8.0-2.0-1.8","1905","2","2","""event"",""trial"",""time""
""fullscreenenter"",""1"",""8087""
","
","
","""event"",""trial"",""time""
""fullscreenenter"",""1"",""8087""
","
","","","","","","1335.7000000001863","images/ball4.png","","","practice","images/park2.png","images/park1.png","images/park3.png","[1,0,2]","0","1","2","images/park1.png","1","practice","","","",""
"html-keyboard-response","59","341951","0.0-8.0-2.0-0.9","1905","2","2","""event"",""trial"",""time""
""fullscreenenter"",""1"",""8087""
","
","
","""event"",""trial"",""time""
""fullscreenenter"",""1"",""8087""
","
","","","","","","null","<div style=""font-size:60px;"">+</div>","null","","fixation","","","","","","","","","","","","","",""
"learning-trial","60","345958","0.0-8.0-2.0-1.9","1905","2","2","""event"",""trial"",""time""
""fullscreenenter"",""1"",""8087""
","
","
","""event"",""trial"",""time""
""fullscreenenter"",""1"",""8087""
","
","","","","","","1248.6000000000931","images/ball4.png","","","practice","images/park1.png","images/park3.png","images/park2.png","[0,2,1]","0","0","1","images/park1.png","1","practice","","","",""
"html-keyboard-response","61","346461","0.0-8.0-2.0-0.10","1905","2","2","""event"",""trial"",""time""
""fullscreenenter"",""1"",""8087""
","
","
","""event"",""trial"",""time""
""fullscreenenter"",""1"",""8087""
","
","","","","","","null","<div style=""font-size:60px;"">+</div>","null","","fixation","","","","","","","","","","","","","",""
"learning-trial","62","350468","0.0-8.0-2.0-1.10","1905","2","2","""event"",""trial"",""time""
""fullscreenenter"",""1"",""8087""
","
","
","""event"",""trial"",""time""
""fullscreenenter"",""1"",""8087""
","
","","","","","","832.2999999998137","images/ball2.png","","","practice","images/park1.png","images/park2.png","images/park3.png","[0,1,2]","2","2","1","images/park1.png","-1","practice","","","",""
"html-keyboard-response","63","351004","0.0-8.0-2.0-0.11","1905","2","2","""event"",""trial"",""time""
""fullscreenenter"",""1"",""8087""
","
","
","""event"",""trial"",""time""
""fullscreenenter"",""1"",""8087""
","
","","","","","","null","<div style=""font-size:60px;"">+</div>","null","","fixation","","","","","","","","","","","","","",""
"learning-trial","64","355011","0.0-8.0-2.0-1.11","1905","2","2","""event"",""trial"",""time""
""fullscreenenter"",""1"",""8087""
","
","
","""event"",""trial"",""time""
""fullscreenenter"",""1"",""8087""
","
","","","","","","1727.0999999996275","images/ball1.png","","","practice","images/park2.png","images/park1.png","images/park3.png","[1,0,2]","2","2","1","images/park2.png","-1","practice","","","",""
"html-button-response","65","360271","0.0-8.0-3.0","1905","2","2","""event"",""trial"",""time""
""fullscreenenter"",""1"",""8087""
","
","
","""event"",""trial"",""time""
""fullscreenenter"",""1"",""8087""
","
","","","","","","5254.399999999907","<p> You earned 2 points in the practice round! </p>","0","","break","","","","","","","","","","","","","",""
"learning-instructions","66","369672","0.0-8.0-4.0-0.0","1905","2","2","""event"",""trial"",""time""
""fullscreenenter"",""1"",""8087""
","
","
","""event"",""trial"",""time""
""fullscreenenter"",""1"",""8087""
","
","","","","","","1546.5","<p> It's almost time to start the real game. </p><p> Before you start, we're going to ask you a few questions about how the game works. </p>","","0","instructions","","","","","","","","","","","","","",""
"preload","67","373410","0.0-8.0-5.0","1905","2","2","""event"",""trial"",""time""
""fullscreenenter"",""1"",""8087""
","
","
","""event"",""trial"",""time""
""fullscreenenter"",""1"",""8087""
","
","true","false","[]","[]","[]","","","","","","","","","","","","","","","","","","",""
"comp-q","68","380028","0.0-8.0-6.0-0.0","1905","2","2","""event"",""trial"",""time""
""fullscreenenter"",""1"",""8087""
","
","
","""event"",""trial"",""time""
""fullscreenenter"",""1"",""8087""
","
","","","","","","1165.2999999998137","<p> <b> True or False? </b> </p><p> If you choose the best option, you will always earn 1 point. </p>","","0","comp_question","","","","","","","","","","","false","","",""
"comp-q","69","388285","0.0-8.0-6.0-1.0","1905","2","2","""event"",""trial"",""time""
""fullscreenenter"",""1"",""8087""
","
","
","""event"",""trial"",""time""
""fullscreenenter"",""1"",""8087""
","
","","","","","","2703.2000000001863","<p><b> Incorrect. </b> Sometimes you will lose 1 point, even if you choose the best option. </p>","","0","comp_answer","","","","","","","","","","","","","",""
"comp-q","70","394014","0.0-8.0-6.0-0.1","1905","2","2","""event"",""trial"",""time""
""fullscreenenter"",""1"",""8087""
","
","
","""event"",""trial"",""time""
""fullscreenenter"",""1"",""8087""
","
","","","","","","1092.3999999999069","<p> <b> True or False? </b> </p><p> You will have as much time as you want to make each choice. </p>","","1","comp_question","","","","","","","","","","","true","","",""
"comp-q","71","400433","0.0-8.0-6.0-1.1","1905","2","2","""event"",""trial"",""time""
""fullscreenenter"",""1"",""8087""
","
","
","""event"",""trial"",""time""
""fullscreenenter"",""1"",""8087""
","
","","","","","","1593.1000000000931","<p> <b> That's right! </b> You will only have 4 seconds to make each choice. </p>","","0","comp_answer","","","","","","","","","","","","","",""
"comp-q","72","407504","0.0-8.0-6.0-0.2","1905","2","2","""event"",""trial"",""time""
""fullscreenenter"",""1"",""8087""
","
","
","""event"",""trial"",""time""
""fullscreenenter"",""1"",""8087""
","
","","","","","","913.3999999999069","<p> <b> True or False? </b> </p><p> You should use the '1', '2', and '3' keys to make your choices. </p>","","0","comp_question","","","","","","","","","","","true","","",""
"comp-q","73","414016","0.0-8.0-6.0-1.2","1905","2","2","""event"",""trial"",""time""
""fullscreenenter"",""1"",""8087""
","
","
","""event"",""trial"",""time""
""fullscreenenter"",""1"",""8087""
","
","","","","","","1666","<p> <b> That's right! </b> You should use the '1', '2', and '3' keys to make each choice. </p>","","0","comp_answer","","","","","","","","","","","","","",""
"learning-instructions","74","426041","0.0-8.0-7.0-0.0","1905","2","2","""event"",""trial"",""time""
""fullscreenenter"",""1"",""8087""
","
","
","""event"",""trial"",""time""
""fullscreenenter"",""1"",""8087""
","
","","","","","","3531.1999999997206","<p> It's now time to start the real game. </p>Do your best, because the points you earn in the next rounds will influence your bonus payment. </p>","","0","instructions","","","","","","","","","","","","","",""
"preload","75","431625","0.0-9.0-0.0","1905","2","2","""event"",""trial"",""time""
""fullscreenenter"",""1"",""8087""
","
","
","""event"",""trial"",""time""
""fullscreenenter"",""1"",""8087""
","
","true","false","[]","[]","[]","","","","","","","","","","","","","","","","","","",""
"learning-instructions","76","439326","0.0-9.0-1.0-0.0","1905","2","2","""event"",""trial"",""time""
""fullscreenenter"",""1"",""8087""
","
","
","""event"",""trial"",""time""
""fullscreenenter"",""1"",""8087""
","
","","","","","","1205","<p> Your goal in this round is to buy different types of fruits. </p><p> You will try to purchase many fruits from different stores. </p></div>","","0","instructions","","","","","","","","","","","","","",""
"learning-instructions","77","449245","0.0-9.0-1.0-0.1","1905","2","2","""event"",""trial"",""time""
""fullscreenenter"",""1"",""8087""
","
","
","""event"",""trial"",""time""
""fullscreenenter"",""1"",""8087""
","
","","","","","","1414.6000000000931","<p> On each turn, you will see a picture of a fruit and three different stores.  </p><p> You need to select the store where you can buy that fruit.  </p>","","0","instructions","","","","","","","","","","","","","",""
"learning-instructions","78","458416","0.0-9.0-1.0-0.2","1905","2","2","""event"",""trial"",""time""
""fullscreenenter"",""1"",""8087""
","
","
","""event"",""trial"",""time""
""fullscreenenter"",""1"",""8087""
","
","","","","","","1783.8999999999069","<p> You can select the store on the left by pressing 1, the store in the middle by pressing 2, and the store on the right by pressing 3. </p><br><div class=""choice-instructions-grid""> <div class=""choice-option""><img src=""images/fruit_choice1.png"" class=""choice-option-img"" stage=""instructions"" position=""0"" ><div class=""choice-option-text""> Press ""1."" </div></div><div class=""choice-option""><img src=""images/fruit_choice2.png"" class=""choice-option-img"" stage=""instructions"" position=""1"" ><div class=""choice-option-text""> Press ""2."" </div></div><div class=""choice-option""><img src=""images/fruit_choice3.png"" class=""choice-option-img"" stage=""instructions"" position=""2"" ><div class=""choice-option-text""> Press ""3."" </div></div></div>","","0","instructions","","","","","","","","","","","","","",""
"learning-instructions","79","465468","0.0-9.0-1.0-0.3","1905","2","2","""event"",""trial"",""time""
""fullscreenenter"",""1"",""8087""
","
","
","""event"",""trial"",""time""
""fullscreenenter"",""1"",""8087""
","
","","","","","","2097.5999999996275","<p> If you find the fruit in the store you chose, you will get to buy and eat it! </p><div style='float: center;'><img src='images/check.png' width = '200' height = '200'></img>","","0","instructions","","","","","","","","","","","","","",""
"learning-instructions","80","472510","0.0-9.0-1.0-0.4","1905","2","2","""event"",""trial"",""time""
""fullscreenenter"",""1"",""8087""
","
","
","""event"",""trial"",""time""
""fullscreenenter"",""1"",""8087""
","
","","","","","","2570.2000000001863","<p> But, if the fruit is not in that store, you will be hungry. </p><div style='float: center;'><img src='images/x.png' width = '200' height = '200'></img>","","0","instructions","","","","","","","","","","","","","",""
"learning-instructions","81","485309","0.0-9.0-1.0-0.5","1905","2","2","""event"",""trial"",""time""
""fullscreenenter"",""1"",""8087""
","
","
","""event"",""trial"",""time""
""fullscreenenter"",""1"",""8087""
","
","","","","","","3016.5","<p> Importantly, each fruit is more likely to be found in one of the stores. </p><p> If you choose the correct store, you will be more likely to be able to buy the fruit! </p>","","0","instructions","","","","","","","","","","","","","",""
"learning-instructions","82","496204","0.0-9.0-1.0-0.6","1905","2","2","""event"",""trial"",""time""
""fullscreenenter"",""1"",""8087""
","
","
","""event"",""trial"",""time""
""fullscreenenter"",""1"",""8087""
","
","","","","","","442","<p> However, even if you choose the best store for the fruit, the store might not have it sometimes. </p><p> Similarly, even if you choose the <i>wrong</i> store, it might still have the fruit.","","0","instructions","","","","","","","","","","","","","",""
"learning-instructions","83","509445","0.0-9.0-1.0-0.7","1905","2","2","""event"",""trial"",""time""
""fullscreenenter"",""1"",""8087""
","
","
","""event"",""trial"",""time""
""fullscreenenter"",""1"",""8087""
","
","","","","","","1053.6999999997206","<p> Try to choose the best store for each fruit, because you will <b> WIN </b> 1 point for each fruit you eat and <b>LOSE</b> 1 point each time you are hungry. </p><p> Your bonus payment will depend on your total number of points.","","0","instructions","","","","","","","","","","","","","",""
"learning-instructions","84","520082","0.0-9.0-1.0-0.8","1905","2","2","""event"",""trial"",""time""
""fullscreenenter"",""1"",""8087""
","
","
","""event"",""trial"",""time""
""fullscreenenter"",""1"",""8087""
","
","","","","","","2421.5999999996275","<p> The position of each store will change throughout the round. </p><p> The store's position <i> does not </i> influence how likely you are to find the fruit. </p>","","0","instructions","","","","","","","","","","","","","",""
"learning-instructions","85","530245","0.0-9.0-1.0-0.9","1905","2","2","""event"",""trial"",""time""
""fullscreenenter"",""1"",""8087""
","
","
","""event"",""trial"",""time""
""fullscreenenter"",""1"",""8087""
","
","","","","","","865.1000000000931","<p> You will have 4 seconds to make each choice. Try to respond before time runs out! </p><p> You will lose 1 point each time you do not make a response. </p>","","0","instructions","","","","","","","","","","","","","",""
"html-keyboard-response","86","530848","0.0-9.0-2.0-0.0","1905","2","2","""event"",""trial"",""time""
""fullscreenenter"",""1"",""8087""
","
","
","""event"",""trial"",""time""
""fullscreenenter"",""1"",""8087""
","
","","","","","","null","<div style=""font-size:60px;"">+</div>","null","","fixation","","","","","","","","","","","","","",""
"learning-trial","87","534856","0.0-9.0-2.0-1.0","1905","2","2","""event"",""trial"",""time""
""fullscreenenter"",""1"",""8087""
","
","
","""event"",""trial"",""time""
""fullscreenenter"",""1"",""8087""
","
","","","","","","1005.3999999999069","images/apple3.png","","","learning","images/fruit_choice1.png","images/fruit_choice2.png","images/fruit_choice3.png","[0,1,2]","2","2","1","images/fruit_choice1.png","-1","fruit","","apple","2","0"
"html-keyboard-response","88","535359","0.0-9.0-2.0-0.1","1905","2","2","""event"",""trial"",""time""
""fullscreenenter"",""1"",""8087""
","
","
","""event"",""trial"",""time""
""fullscreenenter"",""1"",""8087""
","
","","","","","","null","<div style=""font-size:60px;"">+</div>","null","","fixation","","","","","","","","","","","","","",""
"learning-trial","89","539365","0.0-9.0-2.0-1.1","1905","2","2","""event"",""trial"",""time""
""fullscreenenter"",""1"",""8087""
","
","
","""event"",""trial"",""time""
""fullscreenenter"",""1"",""8087""
","
","","","","","","1005.3999999999069","images/banana3.png","","","learning","images/fruit_choice2.png","images/fruit_choice1.png","images/fruit_choice3.png","[1,0,2]","2","2","2","images/fruit_choice1.png","-1","fruit","","banana","2","0"
"html-keyboard-response","90","539868","0.0-9.0-2.0-0.2","1905","2","2","""event"",""trial"",""time""
""fullscreenenter"",""1"",""8087""
","
","
","""event"",""trial"",""time""
""fullscreenenter"",""1"",""8087""
","
","","","","","","null","<div style=""font-size:60px;"">+</div>","null","","fixation","","","","","","","","","","","","","",""
"learning-trial","91","543877","0.0-9.0-2.0-1.2","1905","2","2","""event"",""trial"",""time""
""fullscreenenter"",""1"",""8087""
","
","
","""event"",""trial"",""time""
""fullscreenenter"",""1"",""8087""
","
","","","","","","939.1999999997206","images/banana3.png","","","learning","images/fruit_choice3.png","images/fruit_choice2.png","images/fruit_choice1.png","[2,1,0]","2","0","2","images/fruit_choice2.png","-1","fruit","","banana","2","0"
"html-keyboard-response","92","544379","0.0-9.0-2.0-0.3","1905","2","2","""event"",""trial"",""time""
""fullscreenenter"",""1"",""8087""
","
","
","""event"",""trial"",""time""
""fullscreenenter"",""1"",""8087""
","
","","","","","","null","<div style=""font-size:60px;"">+</div>","null","","fixation","","","","","","","","","","","","","",""
"learning-trial","93","548386","0.0-9.0-2.0-1.3","1905","2","2","""event"",""trial"",""time""
""fullscreenenter"",""1"",""8087""
","
","
","""event"",""trial"",""time""
""fullscreenenter"",""1"",""8087""
","
","","","","","","777.3999999999069","images/banana1.png","","","learning","images/fruit_choice3.png","images/fruit_choice2.png","images/fruit_choice1.png","[2,1,0]","0","2","1","images/fruit_choice3.png","-1","fruit","","banana","2","0"
"html-keyboard-response","94","548888","0.0-9.0-2.0-0.4","1905","2","2","""event"",""trial"",""time""
""fullscreenenter"",""1"",""8087""
","
","
","""event"",""trial"",""time""
""fullscreenenter"",""1"",""8087""
","
","","","","","","null","<div style=""font-size:60px;"">+</div>","null","","fixation","","","","","","","","","","","","","",""
"learning-trial","95","552895","0.0-9.0-2.0-1.4","1905","2","2","""event"",""trial"",""time""
""fullscreenenter"",""1"",""8087""
","
","
","""event"",""trial"",""time""
""fullscreenenter"",""1"",""8087""
","
","","","","","","1177.2999999998137","images/apple3.png","","","learning","images/fruit_choice1.png","images/fruit_choice2.png","images/fruit_choice3.png","[0,1,2]","2","2","2","images/fruit_choice2.png","-1","fruit","","apple","2","0"
"html-keyboard-response","96","553397","0.0-9.0-2.0-0.5","1905","2","2","""event"",""trial"",""time""
""fullscreenenter"",""1"",""8087""
","
","
","""event"",""trial"",""time""
""fullscreenenter"",""1"",""8087""
","
","","","","","","null","<div style=""font-size:60px;"">+</div>","null","","fixation","","","","","","","","","","","","","",""
"learning-trial","97","557406","0.0-9.0-2.0-1.5","1905","2","2","""event"",""trial"",""time""
""fullscreenenter"",""1"",""8087""
","
","
","""event"",""trial"",""time""
""fullscreenenter"",""1"",""8087""
","
","","","","","","956.8000000002794","images/apple1.png","","","learning","images/fruit_choice1.png","images/fruit_choice3.png","images/fruit_choice2.png","[0,2,1]","1","2","1","images/fruit_choice1.png","-1","fruit","","apple","2","0"
"html-keyboard-response","98","557909","0.0-9.0-2.0-0.6","1905","2","2","""event"",""trial"",""time""
""fullscreenenter"",""1"",""8087""
","
","
","""event"",""trial"",""time""
""fullscreenenter"",""1"",""8087""
","
","","","","","","null","<div style=""font-size:60px;"">+</div>","null","","fixation","","","","","","","","","","","","","",""
"learning-trial","99","561916","0.0-9.0-2.0-1.6","1905","2","2","""event"",""trial"",""time""
""fullscreenenter"",""1"",""8087""
","
","
","""event"",""trial"",""time""
""fullscreenenter"",""1"",""8087""
","
","","","","","","595.8000000002794","images/apple2.png","","","learning","images/fruit_choice1.png","images/fruit_choice3.png","images/fruit_choice2.png","[0,2,1]","0","0","3","images/fruit_choice2.png","-1","fruit","","apple","2","0"
"html-keyboard-response","100","562419","0.0-9.0-2.0-0.7","1905","2","2","""event"",""trial"",""time""
""fullscreenenter"",""1"",""8087""
","
","
","""event"",""trial"",""time""
""fullscreenenter"",""1"",""8087""
","
","","","","","","null","<div style=""font-size:60px;"">+</div>","null","","fixation","","","","","","","","","","","","","",""
"learning-trial","101","566427","0.0-9.0-2.0-1.7","1905","2","2","""event"",""trial"",""time""
""fullscreenenter"",""1"",""8087""
","
","
","""event"",""trial"",""time""
""fullscreenenter"",""1"",""8087""
","
","","","","","","653.6999999997206","images/apple1.png","","","learning","images/fruit_choice1.png","images/fruit_choice2.png","images/fruit_choice3.png","[0,1,2]","1","1","2","images/fruit_choice2.png","1","fruit","","apple","2","0"
"html-keyboard-response","102","566930","0.0-9.0-2.0-0.8","1905","2","2","""event"",""trial"",""time""
""fullscreenenter"",""1"",""8087""
","
","
","""event"",""trial"",""time""
""fullscreenenter"",""1"",""8087""
","
","","","","","","null","<div style=""font-size:60px;"">+</div>","null","","fixation","","","","","","","","","","","","","",""
"learning-trial","103","570938","0.0-9.0-2.0-1.8","1905","2","2","""event"",""trial"",""time""
""fullscreenenter"",""1"",""8087""
","
","
","""event"",""trial"",""time""
""fullscreenenter"",""1"",""8087""
","
","","","","","","1099.4000000003725","images/banana1.png","","","learning","images/fruit_choice1.png","images/fruit_choice2.png","images/fruit_choice3.png","[0,1,2]","0","0","1","images/fruit_choice1.png","1","fruit","","banana","2","0"
"html-keyboard-response","104","571440","0.0-9.0-2.0-0.9","1905","2","2","""event"",""trial"",""time""
""fullscreenenter"",""1"",""8087""
","
","
","""event"",""trial"",""time""
""fullscreenenter"",""1"",""8087""
","
","","","","","","null","<div style=""font-size:60px;"">+</div>","null","","fixation","","","","","","","","","","","","","",""
"learning-trial","105","575447","0.0-9.0-2.0-1.9","1905","2","2","""event"",""trial"",""time""
""fullscreenenter"",""1"",""8087""
","
","
","""event"",""trial"",""time""
""fullscreenenter"",""1"",""8087""
","
","","","","","","818","images/banana3.png","","","learning","images/fruit_choice3.png","images/fruit_choice2.png","images/fruit_choice1.png","[2,1,0]","2","0","1","images/fruit_choice3.png","1","fruit","","banana","2","0"
"html-keyboard-response","106","575949","0.0-9.0-2.0-0.10","1905","2","2","""event"",""trial"",""time""
""fullscreenenter"",""1"",""8087""
","
","
","""event"",""trial"",""time""
""fullscreenenter"",""1"",""8087""
","
","","","","","","null","<div style=""font-size:60px;"">+</div>","null","","fixation","","","","","","","","","","","","","",""
"learning-trial","107","579955","0.0-9.0-2.0-1.10","1905","2","2","""event"",""trial"",""time""
""fullscreenenter"",""1"",""8087""
","
","
","""event"",""trial"",""time""
""fullscreenenter"",""1"",""8087""
","
","","","","","","1302.3000000002794","images/straw2.png","","","learning","images/fruit_choice2.png","images/fruit_choice1.png","images/fruit_choice3.png","[1,0,2]","2","2","3","images/fruit_choice3.png","1","fruit","","straw","2","0"
"html-keyboard-response","108","580457","0.0-9.0-2.0-0.11","1905","2","2","""event"",""trial"",""time""
""fullscreenenter"",""1"",""8087""
","
","
","""event"",""trial"",""time""
""fullscreenenter"",""1"",""8087""
","
","","","","","","null","<div style=""font-size:60px;"">+</div>","null","","fixation","","","","","","","","","","","","","",""
"learning-trial","109","584463","0.0-9.0-2.0-1.11","1905","2","2","""event"",""trial"",""time""
""fullscreenenter"",""1"",""8087""
","
","
","""event"",""trial"",""time""
""fullscreenenter"",""1"",""8087""
","
","","","","","","753.2999999998137","images/apple2.png","","","learning","images/fruit_choice2.png","images/fruit_choice1.png","images/fruit_choice3.png","[1,0,2]","0","1","2","images/fruit_choice1.png","1","fruit","","apple","2","0"
"html-keyboard-response","110","584965","0.0-9.0-2.0-0.12","1905","2","2","""event"",""trial"",""time""
""fullscreenenter"",""1"",""8087""
","
","
","""event"",""trial"",""time""
""fullscreenenter"",""1"",""8087""
","
","","","","","","null","<div style=""font-size:60px;"">+</div>","null","","fixation","","","","","","","","","","","","","",""
"learning-trial","111","588972","0.0-9.0-2.0-1.12","1905","2","2","""event"",""trial"",""time""
""fullscreenenter"",""1"",""8087""
","
","
","""event"",""trial"",""time""
""fullscreenenter"",""1"",""8087""
","
","","","","","","665.6000000000931","images/straw1.png","","","learning","images/fruit_choice1.png","images/fruit_choice3.png","images/fruit_choice2.png","[0,2,1]","0","0","1","images/fruit_choice1.png","1","fruit","","straw","2","0"
"html-keyboard-response","112","589475","0.0-9.0-2.0-0.13","1905","2","2","""event"",""trial"",""time""
""fullscreenenter"",""1"",""8087""
","
","
","""event"",""trial"",""time""
""fullscreenenter"",""1"",""8087""
","
","","","","","","null","<div style=""font-size:60px;"">+</div>","null","","fixation","","","","","","","","","","","","","",""
"learning-trial","113","593483","0.0-9.0-2.0-1.13","1905","2","2","""event"",""trial"",""time""
""fullscreenenter"",""1"",""8087""
","
","
","""event"",""trial"",""time""
""fullscreenenter"",""1"",""8087""
","
","","","","","","899.6000000000931","images/apple1.png","","","learning","images/fruit_choice3.png","images/fruit_choice1.png","images/fruit_choice2.png","[2,0,1]","1","2","3","images/fruit_choice2.png","1","fruit","","apple","2","0"
"html-keyboard-response","114","593984","0.0-9.0-2.0-0.14","1905","2","2","""event"",""trial"",""time""
""fullscreenenter"",""1"",""8087""
","
","
","""event"",""trial"",""time""
""fullscreenenter"",""1"",""8087""
","
","","","","","","null","<div style=""font-size:60px;"">+</div>","null","","fixation","","","","","","","","","","","","","",""
"learning-trial","115","597992","0.0-9.0-2.0-1.14","1905","2","2","""event"",""trial"",""time""
""fullscreenenter"",""1"",""8087""
","
","
","""event"",""trial"",""time""
""fullscreenenter"",""1"",""8087""
","
","","","","","","478","images/banana1.png","","","learning","images/fruit_choice2.png","images/fruit_choice3.png","images/fruit_choice1.png","[1,2,0]","0","2","1","images/fruit_choice2.png","-1","fruit","","banana","2","0"
"html-keyboard-response","116","598494","0.0-9.0-2.0-0.15","1905","2","2","""event"",""trial"",""time""
""fullscreenenter"",""1"",""8087""
","
","
","""event"",""trial"",""time""
""fullscreenenter"",""1"",""8087""
","
","","","","","","null","<div style=""font-size:60px;"">+</div>","null","","fixation","","","","","","","","","","","","","",""
"learning-trial","117","602501","0.0-9.0-2.0-1.15","1905","2","2","""event"",""trial"",""time""
""fullscreenenter"",""1"",""8087""
","
","
","""event"",""trial"",""time""
""fullscreenenter"",""1"",""8087""
","
","","","","","","536.7000000001863","images/banana5.png","","","learning","images/fruit_choice2.png","images/fruit_choice1.png","images/fruit_choice3.png","[1,0,2]","1","0","2","images/fruit_choice1.png","-1","fruit","","banana","2","0"
"html-keyboard-response","118","603004","0.0-9.0-2.0-0.16","1905","2","2","""event"",""trial"",""time""
""fullscreenenter"",""1"",""8087""
","
","
","""event"",""trial"",""time""
""fullscreenenter"",""1"",""8087""
","
","","","","","","null","<div style=""font-size:60px;"">+</div>","null","","fixation","","","","","","","","","","","","","",""
"learning-trial","119","607010","0.0-9.0-2.0-1.16","1905","2","2","""event"",""trial"",""time""
""fullscreenenter"",""1"",""8087""
","
","
","""event"",""trial"",""time""
""fullscreenenter"",""1"",""8087""
","
","","","","","","458.10000000009313","images/apple1.png","","","learning","images/fruit_choice1.png","images/fruit_choice3.png","images/fruit_choice2.png","[0,2,1]","1","2","1","images/fruit_choice1.png","-1","fruit","","apple","2","0"
"html-keyboard-response","120","607512","0.0-9.0-2.0-0.17","1905","2","2","""event"",""trial"",""time""
""fullscreenenter"",""1"",""8087""
","
","
","""event"",""trial"",""time""
""fullscreenenter"",""1"",""8087""
","
","","","","","","null","<div style=""font-size:60px;"">+</div>","null","","fixation","","","","","","","","","","","","","",""
"learning-trial","121","611520","0.0-9.0-2.0-1.17","1905","2","2","""event"",""trial"",""time""
""fullscreenenter"",""1"",""8087""
","
","
","""event"",""trial"",""time""
""fullscreenenter"",""1"",""8087""
","
","","","","","","789.2000000001863","images/banana5.png","","","learning","images/fruit_choice2.png","images/fruit_choice1.png","images/fruit_choice3.png","[1,0,2]","1","0","3","images/fruit_choice3.png","1","fruit","","banana","2","0"
"html-keyboard-response","122","612022","0.0-9.0-2.0-0.18","1905","2","2","""event"",""trial"",""time""
""fullscreenenter"",""1"",""8087""
","
","
","""event"",""trial"",""time""
""fullscreenenter"",""1"",""8087""
","
","","","","","","null","<div style=""font-size:60px;"">+</div>","null","","fixation","","","","","","","","","","","","","",""
"learning-trial","123","616029","0.0-9.0-2.0-1.18","1905","2","2","""event"",""trial"",""time""
""fullscreenenter"",""1"",""8087""
","
","
","""event"",""trial"",""time""
""fullscreenenter"",""1"",""8087""
","
","","","","","","659.2999999998137","images/apple2.png","","","learning","images/fruit_choice3.png","images/fruit_choice2.png","images/fruit_choice1.png","[2,1,0]","0","2","2","images/fruit_choice2.png","-1","fruit","","apple","2","0"
"html-keyboard-response","124","616533","0.0-9.0-2.0-0.19","1905","2","2","""event"",""trial"",""time""
""fullscreenenter"",""1"",""8087""
","
","
","""event"",""trial"",""time""
""fullscreenenter"",""1"",""8087""
","
","","","","","","null","<div style=""font-size:60px;"">+</div>","null","","fixation","","","","","","","","","","","","","",""
"learning-trial","125","620542","0.0-9.0-2.0-1.19","1905","2","2","""event"",""trial"",""time""
""fullscreenenter"",""1"",""8087""
","
","
","""event"",""trial"",""time""
""fullscreenenter"",""1"",""8087""
","
","","","","","","822.6000000000931","images/banana3.png","","","learning","images/fruit_choice3.png","images/fruit_choice2.png","images/fruit_choice1.png","[2,1,0]","2","0","1","images/fruit_choice3.png","1","fruit","","banana","2","0"
"html-keyboard-response","126","621044","0.0-9.0-2.0-0.20","1905","2","2","""event"",""trial"",""time""
""fullscreenenter"",""1"",""8087""
","
","
","""event"",""trial"",""time""
""fullscreenenter"",""1"",""8087""
","
","","","","","","null","<div style=""font-size:60px;"">+</div>","null","","fixation","","","","","","","","","","","","","",""
"learning-trial","127","625051","0.0-9.0-2.0-1.20","1905","2","2","""event"",""trial"",""time""
""fullscreenenter"",""1"",""8087""
","
","
","""event"",""trial"",""time""
""fullscreenenter"",""1"",""8087""
","
","","","","","","1021.2999999998137","images/banana5.png","","","learning","images/fruit_choice1.png","images/fruit_choice3.png","images/fruit_choice2.png","[0,2,1]","1","2","1","images/fruit_choice1.png","-1","fruit","","banana","2","0"
"html-keyboard-response","128","625553","0.0-9.0-2.0-0.21","1905","2","2","""event"",""trial"",""time""
""fullscreenenter"",""1"",""8087""
","
","
","""event"",""trial"",""time""
""fullscreenenter"",""1"",""8087""
","
","","","","","","null","<div style=""font-size:60px;"">+</div>","null","","fixation","","","","","","","","","","","","","",""
"learning-trial","129","629560","0.0-9.0-2.0-1.21","1905","2","2","""event"",""trial"",""time""
""fullscreenenter"",""1"",""8087""
","
","
","""event"",""trial"",""time""
""fullscreenenter"",""1"",""8087""
","
","","","","","","1191.7000000001863","images/straw5.png","","","learning","images/fruit_choice2.png","images/fruit_choice3.png","images/fruit_choice1.png","[1,2,0]","1","0","3","images/fruit_choice1.png","-1","fruit","","straw","2","0"
"html-keyboard-response","130","630062","0.0-9.0-2.0-0.22","1905","2","2","""event"",""trial"",""time""
""fullscreenenter"",""1"",""8087""
","
","
","""event"",""trial"",""time""
""fullscreenenter"",""1"",""8087""
","
","","","","","","null","<div style=""font-size:60px;"">+</div>","null","","fixation","","","","","","","","","","","","","",""
"learning-trial","131","634069","0.0-9.0-2.0-1.22","1905","2","2","""event"",""trial"",""time""
""fullscreenenter"",""1"",""8087""
","
","
","""event"",""trial"",""time""
""fullscreenenter"",""1"",""8087""
","
","","","","","","387.89999999990687","images/straw2.png","","","learning","images/fruit_choice1.png","images/fruit_choice2.png","images/fruit_choice3.png","[0,1,2]","2","2","2","images/fruit_choice2.png","-1","fruit","","straw","2","0"
"html-keyboard-response","132","634571","0.0-9.0-2.0-0.23","1905","2","2","""event"",""trial"",""time""
""fullscreenenter"",""1"",""8087""
","
","
","""event"",""trial"",""time""
""fullscreenenter"",""1"",""8087""
","
","","","","","","null","<div style=""font-size:60px;"">+</div>","null","","fixation","","","","","","","","","","","","","",""
"learning-trial","133","638579","0.0-9.0-2.0-1.23","1905","2","2","""event"",""trial"",""time""
""fullscreenenter"",""1"",""8087""
","
","
","""event"",""trial"",""time""
""fullscreenenter"",""1"",""8087""
","
","","","","","","651.5","images/straw5.png","","","learning","images/fruit_choice1.png","images/fruit_choice3.png","images/fruit_choice2.png","[0,2,1]","1","2","1","images/fruit_choice1.png","-1","fruit","","straw","2","0"
"html-keyboard-response","134","639081","0.0-9.0-2.0-0.24","1905","2","2","""event"",""trial"",""time""
""fullscreenenter"",""1"",""8087""
","
","
","""event"",""trial"",""time""
""fullscreenenter"",""1"",""8087""
","
","","","","","","null","<div style=""font-size:60px;"">+</div>","null","","fixation","","","","","","","","","","","","","",""
"learning-trial","135","643088","0.0-9.0-2.0-1.24","1905","2","2","""event"",""trial"",""time""
""fullscreenenter"",""1"",""8087""
","
","
","""event"",""trial"",""time""
""fullscreenenter"",""1"",""8087""
","
","","","","","","749.0999999996275","images/straw1.png","","","learning","images/fruit_choice1.png","images/fruit_choice2.png","images/fruit_choice3.png","[0,1,2]","0","0","3","images/fruit_choice3.png","1","fruit","","straw","2","0"
"html-keyboard-response","136","643590","0.0-9.0-2.0-0.25","1905","2","2","""event"",""trial"",""time""
""fullscreenenter"",""1"",""8087""
","
","
","""event"",""trial"",""time""
""fullscreenenter"",""1"",""8087""
","
","","","","","","null","<div style=""font-size:60px;"">+</div>","null","","fixation","","","","","","","","","","","","","",""
"learning-trial","137","647597","0.0-9.0-2.0-1.25","1905","2","2","""event"",""trial"",""time""
""fullscreenenter"",""1"",""8087""
","
","
","""event"",""trial"",""time""
""fullscreenenter"",""1"",""8087""
","
","","","","","","796.8999999999069","images/banana5.png","","","learning","images/fruit_choice2.png","images/fruit_choice1.png","images/fruit_choice3.png","[1,0,2]","1","0","2","images/fruit_choice1.png","-1","fruit","","banana","2","0"
"html-keyboard-response","138","648099","0.0-9.0-2.0-0.26","1905","2","2","""event"",""trial"",""time""
""fullscreenenter"",""1"",""8087""
","
","
","""event"",""trial"",""time""
""fullscreenenter"",""1"",""8087""
","
","","","","","","null","<div style=""font-size:60px;"">+</div>","null","","fixation","","","","","","","","","","","","","",""
"learning-trial","139","652106","0.0-9.0-2.0-1.26","1905","2","2","""event"",""trial"",""time""
""fullscreenenter"",""1"",""8087""
","
","
","""event"",""trial"",""time""
""fullscreenenter"",""1"",""8087""
","
","","","","","","455.39999999990687","images/apple3.png","","","learning","images/fruit_choice2.png","images/fruit_choice3.png","images/fruit_choice1.png","[1,2,0]","2","1","1","images/fruit_choice2.png","-1","fruit","","apple","2","0"
"html-keyboard-response","140","652609","0.0-9.0-2.0-0.27","1905","2","2","""event"",""trial"",""time""
""fullscreenenter"",""1"",""8087""
","
","
","""event"",""trial"",""time""
""fullscreenenter"",""1"",""8087""
","
","","","","","","null","<div style=""font-size:60px;"">+</div>","null","","fixation","","","","","","","","","","","","","",""
"learning-trial","141","656616","0.0-9.0-2.0-1.27","1905","2","2","""event"",""trial"",""time""
""fullscreenenter"",""1"",""8087""
","
","
","""event"",""trial"",""time""
""fullscreenenter"",""1"",""8087""
","
","","","","","","822.4000000003725","images/straw5.png","","","learning","images/fruit_choice3.png","images/fruit_choice1.png","images/fruit_choice2.png","[2,0,1]","1","2","3","images/fruit_choice2.png","1","fruit","","straw","2","0"
"html-keyboard-response","142","657119","0.0-9.0-2.0-0.28","1905","2","2","""event"",""trial"",""time""
""fullscreenenter"",""1"",""8087""
","
","
","""event"",""trial"",""time""
""fullscreenenter"",""1"",""8087""
","
","","","","","","null","<div style=""font-size:60px;"">+</div>","null","","fixation","","","","","","","","","","","","","",""
"learning-trial","143","661127","0.0-9.0-2.0-1.28","1905","2","2","""event"",""trial"",""time""
""fullscreenenter"",""1"",""8087""
","
","
","""event"",""trial"",""time""
""fullscreenenter"",""1"",""8087""
","
","","","","","","660.6999999997206","images/banana1.png","","","learning","images/fruit_choice3.png","images/fruit_choice2.png","images/fruit_choice1.png","[2,1,0]","0","2","2","images/fruit_choice2.png","-1","fruit","","banana","2","0"
"html-keyboard-response","144","661628","0.0-9.0-2.0-0.29","1905","2","2","""event"",""trial"",""time""
""fullscreenenter"",""1"",""8087""
","
","
","""event"",""trial"",""time""
""fullscreenenter"",""1"",""8087""
","
","","","","","","null","<div style=""font-size:60px;"">+</div>","null","","fixation","","","","","","","","","","","","","",""
"learning-trial","145","665636","0.0-9.0-2.0-1.29","1905","2","2","""event"",""trial"",""time""
""fullscreenenter"",""1"",""8087""
","
","
","""event"",""trial"",""time""
""fullscreenenter"",""1"",""8087""
","
","","","","","","425.5","images/apple3.png","","","learning","images/fruit_choice2.png","images/fruit_choice1.png","images/fruit_choice3.png","[1,0,2]","2","2","1","images/fruit_choice2.png","-1","fruit","","apple","2","0"
"html-keyboard-response","146","666138","0.0-9.0-2.0-0.30","1905","2","2","""event"",""trial"",""time""
""fullscreenenter"",""1"",""8087""
","
","
","""event"",""trial"",""time""
""fullscreenenter"",""1"",""8087""
","
","","","","","","null","<div style=""font-size:60px;"">+</div>","null","","fixation","","","","","","","","","","","","","",""
"learning-trial","147","670144","0.0-9.0-2.0-1.30","1905","2","2","""event"",""trial"",""time""
""fullscreenenter"",""1"",""8087""
","
","
","""event"",""trial"",""time""
""fullscreenenter"",""1"",""8087""
","
","","","","","","1033.7000000001863","images/straw2.png","","","learning","images/fruit_choice1.png","images/fruit_choice3.png","images/fruit_choice2.png","[0,2,1]","2","1","2","images/fruit_choice3.png","1","fruit","","straw","2","0"
"html-keyboard-response","148","670646","0.0-9.0-2.0-0.31","1905","2","2","""event"",""trial"",""time""
""fullscreenenter"",""1"",""8087""
","
","
","""event"",""trial"",""time""
""fullscreenenter"",""1"",""8087""
","
","","","","","","null","<div style=""font-size:60px;"">+</div>","null","","fixation","","","","","","","","","","","","","",""
"learning-trial","149","674653","0.0-9.0-2.0-1.31","1905","2","2","""event"",""trial"",""time""
""fullscreenenter"",""1"",""8087""
","
","
","""event"",""trial"",""time""
""fullscreenenter"",""1"",""8087""
","
","","","","","","672.9000000003725","images/straw1.png","","","learning","images/fruit_choice1.png","images/fruit_choice2.png","images/fruit_choice3.png","[0,1,2]","0","0","1","images/fruit_choice1.png","1","fruit","","straw","2","0"
"html-keyboard-response","150","675155","0.0-9.0-2.0-0.32","1905","2","2","""event"",""trial"",""time""
""fullscreenenter"",""1"",""8087""
","
","
","""event"",""trial"",""time""
""fullscreenenter"",""1"",""8087""
","
","","","","","","null","<div style=""font-size:60px;"">+</div>","null","","fixation","","","","","","","","","","","","","",""
"learning-trial","151","679164","0.0-9.0-2.0-1.32","1905","2","2","""event"",""trial"",""time""
""fullscreenenter"",""1"",""8087""
","
","
","""event"",""trial"",""time""
""fullscreenenter"",""1"",""8087""
","
","","","","","","700.1000000000931","images/straw5.png","","","learning","images/fruit_choice2.png","images/fruit_choice1.png","images/fruit_choice3.png","[1,0,2]","1","0","3","images/fruit_choice3.png","1","fruit","","straw","2","0"
"html-keyboard-response","152","679667","0.0-9.0-2.0-0.33","1905","2","2","""event"",""trial"",""time""
""fullscreenenter"",""1"",""8087""
","
","
","""event"",""trial"",""time""
""fullscreenenter"",""1"",""8087""
","
","","","","","","null","<div style=""font-size:60px;"">+</div>","null","","fixation","","","","","","","","","","","","","",""
"learning-trial","153","683676","0.0-9.0-2.0-1.33","1905","2","2","""event"",""trial"",""time""
""fullscreenenter"",""1"",""8087""
","
","
","""event"",""trial"",""time""
""fullscreenenter"",""1"",""8087""
","
","","","","","","558.7000000001863","images/banana3.png","","","learning","images/fruit_choice2.png","images/fruit_choice3.png","images/fruit_choice1.png","[1,2,0]","2","1","2","images/fruit_choice3.png","1","fruit","","banana","2","0"
"html-keyboard-response","154","684179","0.0-9.0-2.0-0.34","1905","2","2","""event"",""trial"",""time""
""fullscreenenter"",""1"",""8087""
","
","
","""event"",""trial"",""time""
""fullscreenenter"",""1"",""8087""
","
","","","","","","null","<div style=""font-size:60px;"">+</div>","null","","fixation","","","","","","","","","","","","","",""
"learning-trial","155","688185","0.0-9.0-2.0-1.34","1905","2","2","""event"",""trial"",""time""
""fullscreenenter"",""1"",""8087""
","
","
","""event"",""trial"",""time""
""fullscreenenter"",""1"",""8087""
","
","","","","","","493.39999999990687","images/straw5.png","","","learning","images/fruit_choice3.png","images/fruit_choice2.png","images/fruit_choice1.png","[2,1,0]","1","1","1","images/fruit_choice3.png","-1","fruit","","straw","2","0"
"html-keyboard-response","156","688688","0.0-9.0-2.0-0.35","1905","2","2","""event"",""trial"",""time""
""fullscreenenter"",""1"",""8087""
","
","
","""event"",""trial"",""time""
""fullscreenenter"",""1"",""8087""
","
","","","","","","null","<div style=""font-size:60px;"">+</div>","null","","fixation","","","","","","","","","","","","","",""
"learning-trial","157","692695","0.0-9.0-2.0-1.35","1905","2","2","""event"",""trial"",""time""
""fullscreenenter"",""1"",""8087""
","
","
","""event"",""trial"",""time""
""fullscreenenter"",""1"",""8087""
","
","","","","","","773.1000000000931","images/apple2.png","","","learning","images/fruit_choice3.png","images/fruit_choice1.png","images/fruit_choice2.png","[2,0,1]","0","1","2","images/fruit_choice1.png","-1","fruit","","apple","2","0"
"html-keyboard-response","158","693197","0.0-9.0-2.0-0.36","1905","2","2","""event"",""trial"",""time""
""fullscreenenter"",""1"",""8087""
","
","
","""event"",""trial"",""time""
""fullscreenenter"",""1"",""8087""
","
","","","","","","null","<div style=""font-size:60px;"">+</div>","null","","fixation","","","","","","","","","","","","","",""
"learning-trial","159","697204","0.0-9.0-2.0-1.36","1905","2","2","""event"",""trial"",""time""
""fullscreenenter"",""1"",""8087""
","
","
","""event"",""trial"",""time""
""fullscreenenter"",""1"",""8087""
","
","","","","","","591.6000000000931","images/apple1.png","","","learning","images/fruit_choice1.png","images/fruit_choice2.png","images/fruit_choice3.png","[0,1,2]","1","1","3","images/fruit_choice3.png","-1","fruit","","apple","2","0"
"html-keyboard-response","160","697708","0.0-9.0-2.0-0.37","1905","2","2","""event"",""trial"",""time""
""fullscreenenter"",""1"",""8087""
","
","
","""event"",""trial"",""time""
""fullscreenenter"",""1"",""8087""
","
","","","","","","null","<div style=""font-size:60px;"">+</div>","null","","fixation","","","","","","","","","","","","","",""
"learning-trial","161","701716","0.0-9.0-2.0-1.37","1905","2","2","""event"",""trial"",""time""
""fullscreenenter"",""1"",""8087""
","
","
","""event"",""trial"",""time""
""fullscreenenter"",""1"",""8087""
","
","","","","","","212.20000000018626","images/apple2.png","","","learning","images/fruit_choice3.png","images/fruit_choice2.png","images/fruit_choice1.png","[2,1,0]","0","2","1","images/fruit_choice3.png","-1","fruit","","apple","2","0"
"html-keyboard-response","162","702219","0.0-9.0-2.0-0.38","1905","2","2","""event"",""trial"",""time""
""fullscreenenter"",""1"",""8087""
","
","
","""event"",""trial"",""time""
""fullscreenenter"",""1"",""8087""
","
","","","","","","null","<div style=""font-size:60px;"">+</div>","null","","fixation","","","","","","","","","","","","","",""
"learning-trial","163","706227","0.0-9.0-2.0-1.38","1905","2","2","""event"",""trial"",""time""
""fullscreenenter"",""1"",""8087""
","
","
","""event"",""trial"",""time""
""fullscreenenter"",""1"",""8087""
","
","","","","","","410.6999999997206","images/apple2.png","","","learning","images/fruit_choice1.png","images/fruit_choice2.png","images/fruit_choice3.png","[0,1,2]","0","0","2","images/fruit_choice2.png","-1","fruit","","apple","2","0"
"html-keyboard-response","164","706729","0.0-9.0-2.0-0.39","1905","2","2","""event"",""trial"",""time""
""fullscreenenter"",""1"",""8087""
","
","
","""event"",""trial"",""time""
""fullscreenenter"",""1"",""8087""
","
","","","","","","null","<div style=""font-size:60px;"">+</div>","null","","fixation","","","","","","","","","","","","","",""
"learning-trial","165","710738","0.0-9.0-2.0-1.39","1905","2","2","""event"",""trial"",""time""
""fullscreenenter"",""1"",""8087""
","
","
","""event"",""trial"",""time""
""fullscreenenter"",""1"",""8087""
","
","","","","","","791.2000000001863","images/apple3.png","","","learning","images/fruit_choice1.png","images/fruit_choice2.png","images/fruit_choice3.png","[0,1,2]","2","2","2","images/fruit_choice2.png","-1","fruit","","apple","2","0"
"html-keyboard-response","166","711239","0.0-9.0-2.0-0.40","1905","2","2","""event"",""trial"",""time""
""fullscreenenter"",""1"",""8087""
","
","
","""event"",""trial"",""time""
""fullscreenenter"",""1"",""8087""
","
","","","","","","null","<div style=""font-size:60px;"">+</div>","null","","fixation","","","","","","","","","","","","","",""
"learning-trial","167","715255","0.0-9.0-2.0-1.40","1905","2","2","""event"",""trial"",""time""
""fullscreenenter"",""1"",""8087""
","
","
","""event"",""trial"",""time""
""fullscreenenter"",""1"",""8087""
","
","","","","","","426.09999999962747","images/apple1.png","","","learning","images/fruit_choice2.png","images/fruit_choice1.png","images/fruit_choice3.png","[1,0,2]","1","0","1","images/fruit_choice2.png","1","fruit","","apple","2","0"
"html-keyboard-response","168","715757","0.0-9.0-2.0-0.41","1905","2","2","""event"",""trial"",""time""
""fullscreenenter"",""1"",""8087""
","
","
","""event"",""trial"",""time""
""fullscreenenter"",""1"",""8087""
","
","","","","","","null","<div style=""font-size:60px;"">+</div>","null","","fixation","","","","","","","","","","","","","",""
"learning-trial","169","719763","0.0-9.0-2.0-1.41","1905","2","2","""event"",""trial"",""time""
""fullscreenenter"",""1"",""8087""
","
","
","""event"",""trial"",""time""
""fullscreenenter"",""1"",""8087""
","
","","","","","","1151.8999999999069","images/banana3.png","","","learning","images/fruit_choice3.png","images/fruit_choice1.png","images/fruit_choice2.png","[2,0,1]","2","0","2","images/fruit_choice1.png","-1","fruit","","banana","2","0"
"html-keyboard-response","170","720266","0.0-9.0-2.0-0.42","1905","2","2","""event"",""trial"",""time""
""fullscreenenter"",""1"",""8087""
","
","
","""event"",""trial"",""time""
""fullscreenenter"",""1"",""8087""
","
","","","","","","null","<div style=""font-size:60px;"">+</div>","null","","fixation","","","","","","","","","","","","","",""
"learning-trial","171","724276","0.0-9.0-2.0-1.42","1905","2","2","""event"",""trial"",""time""
""fullscreenenter"",""1"",""8087""
","
","
","""event"",""trial"",""time""
""fullscreenenter"",""1"",""8087""
","
","","","","","","675","images/straw1.png","","","learning","images/fruit_choice2.png","images/fruit_choice1.png","images/fruit_choice3.png","[1,0,2]","0","1","3","images/fruit_choice3.png","-1","fruit","","straw","2","0"
"html-keyboard-response","172","724780","0.0-9.0-2.0-0.43","1905","2","2","""event"",""trial"",""time""
""fullscreenenter"",""1"",""8087""
","
","
","""event"",""trial"",""time""
""fullscreenenter"",""1"",""8087""
","
","","","","","","null","<div style=""font-size:60px;"">+</div>","null","","fixation","","","","","","","","","","","","","",""
"learning-trial","173","728787","0.0-9.0-2.0-1.43","1905","2","2","""event"",""trial"",""time""
""fullscreenenter"",""1"",""8087""
","
","
","""event"",""trial"",""time""
""fullscreenenter"",""1"",""8087""
","
","","","","","","464.3000000002794","images/straw1.png","","","learning","images/fruit_choice1.png","images/fruit_choice2.png","images/fruit_choice3.png","[0,1,2]","0","0","1","images/fruit_choice1.png","1","fruit","","straw","2","0"
"html-keyboard-response","174","729291","0.0-9.0-2.0-0.44","1905","2","2","""event"",""trial"",""time""
""fullscreenenter"",""1"",""8087""
","
","
","""event"",""trial"",""time""
""fullscreenenter"",""1"",""8087""
","
","","","","","","null","<div style=""font-size:60px;"">+</div>","null","","fixation","","","","","","","","","","","","","",""
"learning-trial","175","733299","0.0-9.0-2.0-1.44","1905","2","2","""event"",""trial"",""time""
""fullscreenenter"",""1"",""8087""
","
","
","""event"",""trial"",""time""
""fullscreenenter"",""1"",""8087""
","
","","","","","","798.6000000000931","images/apple1.png","","","learning","images/fruit_choice3.png","images/fruit_choice2.png","images/fruit_choice1.png","[2,1,0]","1","1","2","images/fruit_choice2.png","1","fruit","","apple","2","0"
"html-keyboard-response","176","733801","0.0-9.0-2.0-0.45","1905","2","2","""event"",""trial"",""time""
""fullscreenenter"",""1"",""8087""
","
","
","""event"",""trial"",""time""
""fullscreenenter"",""1"",""8087""
","
","","","","","","null","<div style=""font-size:60px;"">+</div>","null","","fixation","","","","","","","","","","","","","",""
"learning-trial","177","737808","0.0-9.0-2.0-1.45","1905","2","2","""event"",""trial"",""time""
""fullscreenenter"",""1"",""8087""
","
","
","""event"",""trial"",""time""
""fullscreenenter"",""1"",""8087""
","
","","","","","","630.1000000000931","images/banana5.png","","","learning","images/fruit_choice2.png","images/fruit_choice3.png","images/fruit_choice1.png","[1,2,0]","1","0","3","images/fruit_choice1.png","-1","fruit","","banana","2","0"
"html-keyboard-response","178","738310","0.0-9.0-2.0-0.46","1905","2","2","""event"",""trial"",""time""
""fullscreenenter"",""1"",""8087""
","
","
","""event"",""trial"",""time""
""fullscreenenter"",""1"",""8087""
","
","","","","","","null","<div style=""font-size:60px;"">+</div>","null","","fixation","","","","","","","","","","","","","",""
"learning-trial","179","742321","0.0-9.0-2.0-1.46","1905","2","2","""event"",""trial"",""time""
""fullscreenenter"",""1"",""8087""
","
","
","""event"",""trial"",""time""
""fullscreenenter"",""1"",""8087""
","
","","","","","","942.6000000000931","images/straw2.png","","","learning","images/fruit_choice1.png","images/fruit_choice3.png","images/fruit_choice2.png","[0,2,1]","2","1","1","images/fruit_choice1.png","-1","fruit","","straw","2","0"
"html-keyboard-response","180","742823","0.0-9.0-2.0-0.47","1905","2","2","""event"",""trial"",""time""
""fullscreenenter"",""1"",""8087""
","
","
","""event"",""trial"",""time""
""fullscreenenter"",""1"",""8087""
","
","","","","","","null","<div style=""font-size:60px;"">+</div>","null","","fixation","","","","","","","","","","","","","",""
"learning-trial","181","746830","0.0-9.0-2.0-1.47","1905","2","2","""event"",""trial"",""time""
""fullscreenenter"",""1"",""8087""
","
","
","""event"",""trial"",""time""
""fullscreenenter"",""1"",""8087""
","
","","","","","","261.89999999990687","images/straw2.png","","","learning","images/fruit_choice3.png","images/fruit_choice2.png","images/fruit_choice1.png","[2,1,0]","2","0","1","images/fruit_choice3.png","-1","fruit","","straw","2","0"
"html-keyboard-response","182","747332","0.0-9.0-2.0-0.48","1905","2","2","""event"",""trial"",""time""
""fullscreenenter"",""1"",""8087""
","
","
","""event"",""trial"",""time""
""fullscreenenter"",""1"",""8087""
","
","","","","","","null","<div style=""font-size:60px;"">+</div>","null","","fixation","","","","","","","","","","","","","",""
"learning-trial","183","751340","0.0-9.0-2.0-1.48","1905","2","2","""event"",""trial"",""time""
""fullscreenenter"",""1"",""8087""
","
","
","""event"",""trial"",""time""
""fullscreenenter"",""1"",""8087""
","
","","","","","","697.1000000000931","images/banana1.png","","","learning","images/fruit_choice3.png","images/fruit_choice1.png","images/fruit_choice2.png","[2,0,1]","0","1","1","images/fruit_choice3.png","-1","fruit","","banana","2","0"
"html-keyboard-response","184","751843","0.0-9.0-2.0-0.49","1905","2","2","""event"",""trial"",""time""
""fullscreenenter"",""1"",""8087""
","
","
","""event"",""trial"",""time""
""fullscreenenter"",""1"",""8087""
","
","","","","","","null","<div style=""font-size:60px;"">+</div>","null","","fixation","","","","","","","","","","","","","",""
"learning-trial","185","755851","0.0-9.0-2.0-1.49","1905","2","2","""event"",""trial"",""time""
""fullscreenenter"",""1"",""8087""
","
","
","""event"",""trial"",""time""
""fullscreenenter"",""1"",""8087""
","
","","","","","","537.5","images/apple3.png","","","learning","images/fruit_choice2.png","images/fruit_choice3.png","images/fruit_choice1.png","[1,2,0]","2","1","3","images/fruit_choice1.png","-1","fruit","","apple","2","0"
"html-keyboard-response","186","756353","0.0-9.0-2.0-0.50","1905","2","2","""event"",""trial"",""time""
""fullscreenenter"",""1"",""8087""
","
","
","""event"",""trial"",""time""
""fullscreenenter"",""1"",""8087""
","
","","","","","","null","<div style=""font-size:60px;"">+</div>","null","","fixation","","","","","","","","","","","","","",""
"learning-trial","187","760362","0.0-9.0-2.0-1.50","1905","2","2","""event"",""trial"",""time""
""fullscreenenter"",""1"",""8087""
","
","
","""event"",""trial"",""time""
""fullscreenenter"",""1"",""8087""
","
","","","","","","336.89999999990687","images/straw5.png","","","learning","images/fruit_choice1.png","images/fruit_choice3.png","images/fruit_choice2.png","[0,2,1]","1","2","2","images/fruit_choice3.png","1","fruit","","straw","2","0"
"html-keyboard-response","188","760864","0.0-9.0-2.0-0.51","1905","2","2","""event"",""trial"",""time""
""fullscreenenter"",""1"",""8087""
","
","
","""event"",""trial"",""time""
""fullscreenenter"",""1"",""8087""
","
","","","","","","null","<div style=""font-size:60px;"">+</div>","null","","fixation","","","","","","","","","","","","","",""
"learning-trial","189","764872","0.0-9.0-2.0-1.51","1905","2","2","""event"",""trial"",""time""
""fullscreenenter"",""1"",""8087""
","
","
","""event"",""trial"",""time""
""fullscreenenter"",""1"",""8087""
","
","","","","","","959.1999999997206","images/banana3.png","","","learning","images/fruit_choice1.png","images/fruit_choice3.png","images/fruit_choice2.png","[0,2,1]","2","1","1","images/fruit_choice1.png","-1","fruit","","banana","2","0"
"html-keyboard-response","190","765375","0.0-9.0-2.0-0.52","1905","2","2","""event"",""trial"",""time""
""fullscreenenter"",""1"",""8087""
","
","
","""event"",""trial"",""time""
""fullscreenenter"",""1"",""8087""
","
","","","","","","null","<div style=""font-size:60px;"">+</div>","null","","fixation","","","","","","","","","","","","","",""
"learning-trial","191","769383","0.0-9.0-2.0-1.52","1905","2","2","""event"",""trial"",""time""
""fullscreenenter"",""1"",""8087""
","
","
","""event"",""trial"",""time""
""fullscreenenter"",""1"",""8087""
","
","","","","","","791.5999999996275","images/banana5.png","","","learning","images/fruit_choice2.png","images/fruit_choice3.png","images/fruit_choice1.png","[1,2,0]","1","0","3","images/fruit_choice1.png","-1","fruit","","banana","2","0"
"html-keyboard-response","192","769886","0.0-9.0-2.0-0.53","1905","2","2","""event"",""trial"",""time""
""fullscreenenter"",""1"",""8087""
","
","
","""event"",""trial"",""time""
""fullscreenenter"",""1"",""8087""
","
","","","","","","null","<div style=""font-size:60px;"">+</div>","null","","fixation","","","","","","","","","","","","","",""
"learning-trial","193","773893","0.0-9.0-2.0-1.53","1905","2","2","""event"",""trial"",""time""
""fullscreenenter"",""1"",""8087""
","
","
","""event"",""trial"",""time""
""fullscreenenter"",""1"",""8087""
","
","","","","","","2130.399999999907","images/straw1.png","","","learning","images/fruit_choice2.png","images/fruit_choice1.png","images/fruit_choice3.png","[1,0,2]","0","1","1","images/fruit_choice2.png","-1","fruit","","straw","2","0"
"html-keyboard-response","194","774396","0.0-9.0-2.0-0.54","1905","2","2","""event"",""trial"",""time""
""fullscreenenter"",""1"",""8087""
","
","
","""event"",""trial"",""time""
""fullscreenenter"",""1"",""8087""
","
","","","","","","null","<div style=""font-size:60px;"">+</div>","null","","fixation","","","","","","","","","","","","","",""
"learning-trial","195","778405","0.0-9.0-2.0-1.54","1905","2","2","""event"",""trial"",""time""
""fullscreenenter"",""1"",""8087""
","
","
","""event"",""trial"",""time""
""fullscreenenter"",""1"",""8087""
","
","","","","","","846.6000000000931","images/banana1.png","","","learning","images/fruit_choice3.png","images/fruit_choice2.png","images/fruit_choice1.png","[2,1,0]","0","2","2","images/fruit_choice2.png","-1","fruit","","banana","2","0"
"html-keyboard-response","196","778907","0.0-9.0-2.0-0.55","1905","2","2","""event"",""trial"",""time""
""fullscreenenter"",""1"",""8087""
","
","
","""event"",""trial"",""time""
""fullscreenenter"",""1"",""8087""
","
","","","","","","null","<div style=""font-size:60px;"">+</div>","null","","fixation","","","","","","","","","","","","","",""
"learning-trial","197","782915","0.0-9.0-2.0-1.55","1905","2","2","""event"",""trial"",""time""
""fullscreenenter"",""1"",""8087""
","
","
","""event"",""trial"",""time""
""fullscreenenter"",""1"",""8087""
","
","","","","","","1018.9000000003725","images/straw1.png","","","learning","images/fruit_choice2.png","images/fruit_choice3.png","images/fruit_choice1.png","[1,2,0]","0","2","3","images/fruit_choice1.png","1","fruit","","straw","2","0"
"html-keyboard-response","198","783417","0.0-9.0-2.0-0.56","1905","2","2","""event"",""trial"",""time""
""fullscreenenter"",""1"",""8087""
","
","
","""event"",""trial"",""time""
""fullscreenenter"",""1"",""8087""
","
","","","","","","null","<div style=""font-size:60px;"">+</div>","null","","fixation","","","","","","","","","","","","","",""
"learning-trial","199","787425","0.0-9.0-2.0-1.56","1905","2","2","""event"",""trial"",""time""
""fullscreenenter"",""1"",""8087""
","
","
","""event"",""trial"",""time""
""fullscreenenter"",""1"",""8087""
","
","","","","","","387.89999999990687","images/straw1.png","","","learning","images/fruit_choice1.png","images/fruit_choice3.png","images/fruit_choice2.png","[0,2,1]","0","0","1","images/fruit_choice1.png","1","fruit","","straw","2","0"
"html-keyboard-response","200","787927","0.0-9.0-2.0-0.57","1905","2","2","""event"",""trial"",""time""
""fullscreenenter"",""1"",""8087""
","
","
","""event"",""trial"",""time""
""fullscreenenter"",""1"",""8087""
","
","","","","","","null","<div style=""font-size:60px;"">+</div>","null","","fixation","","","","","","","","","","","","","",""
"learning-trial","201","791934","0.0-9.0-2.0-1.57","1905","2","2","""event"",""trial"",""time""
""fullscreenenter"",""1"",""8087""
","
","
","""event"",""trial"",""time""
""fullscreenenter"",""1"",""8087""
","
","","","","","","696.5","images/apple2.png","","","learning","images/fruit_choice1.png","images/fruit_choice3.png","images/fruit_choice2.png","[0,2,1]","0","0","2","images/fruit_choice3.png","-1","fruit","","apple","2","0"
"html-keyboard-response","202","792436","0.0-9.0-2.0-0.58","1905","2","2","""event"",""trial"",""time""
""fullscreenenter"",""1"",""8087""
","
","
","""event"",""trial"",""time""
""fullscreenenter"",""1"",""8087""
","
","","","","","","null","<div style=""font-size:60px;"">+</div>","null","","fixation","","","","","","","","","","","","","",""
"learning-trial","203","796443","0.0-9.0-2.0-1.58","1905","2","2","""event"",""trial"",""time""
""fullscreenenter"",""1"",""8087""
","
","
","""event"",""trial"",""time""
""fullscreenenter"",""1"",""8087""
","
","","","","","","503.40000000037253","images/straw2.png","","","learning","images/fruit_choice3.png","images/fruit_choice1.png","images/fruit_choice2.png","[2,0,1]","2","0","3","images/fruit_choice2.png","-1","fruit","","straw","2","0"
"html-keyboard-response","204","796945","0.0-9.0-2.0-0.59","1905","2","2","""event"",""trial"",""time""
""fullscreenenter"",""1"",""8087""
","
","
","""event"",""trial"",""time""
""fullscreenenter"",""1"",""8087""
","
","","","","","","null","<div style=""font-size:60px;"">+</div>","null","","fixation","","","","","","","","","","","","","",""
"learning-trial","205","800956","0.0-9.0-2.0-1.59","1905","2","2","""event"",""trial"",""time""
""fullscreenenter"",""1"",""8087""
","
","
","""event"",""trial"",""time""
""fullscreenenter"",""1"",""8087""
","
","","","","","","664.6000000000931","images/straw5.png","","","learning","images/fruit_choice1.png","images/fruit_choice3.png","images/fruit_choice2.png","[0,2,1]","1","2","1","images/fruit_choice1.png","-1","fruit","","straw","2","0"
"html-keyboard-response","206","801459","0.0-9.0-2.0-0.60","1905","2","2","""event"",""trial"",""time""
""fullscreenenter"",""1"",""8087""
","
","
","""event"",""trial"",""time""
""fullscreenenter"",""1"",""8087""
","
","","","","","","null","<div style=""font-size:60px;"">+</div>","null","","fixation","","","","","","","","","","","","","",""
"learning-trial","207","805465","0.0-9.0-2.0-1.60","1905","2","2","""event"",""trial"",""time""
""fullscreenenter"",""1"",""8087""
","
","
","""event"",""trial"",""time""
""fullscreenenter"",""1"",""8087""
","
","","","","","","774.2000000001863","images/banana5.png","","","learning","images/fruit_choice2.png","images/fruit_choice1.png","images/fruit_choice3.png","[1,0,2]","1","0","2","images/fruit_choice1.png","-1","fruit","","banana","2","0"
"html-keyboard-response","208","805967","0.0-9.0-2.0-0.61","1905","2","2","""event"",""trial"",""time""
""fullscreenenter"",""1"",""8087""
","
","
","""event"",""trial"",""time""
""fullscreenenter"",""1"",""8087""
","
","","","","","","null","<div style=""font-size:60px;"">+</div>","null","","fixation","","","","","","","","","","","","","",""
"learning-trial","209","809973","0.0-9.0-2.0-1.61","1905","2","2","""event"",""trial"",""time""
""fullscreenenter"",""1"",""8087""
","
","
","""event"",""trial"",""time""
""fullscreenenter"",""1"",""8087""
","
","","","","","","742.6999999997206","images/banana1.png","","","learning","images/fruit_choice3.png","images/fruit_choice2.png","images/fruit_choice1.png","[2,1,0]","0","2","1","images/fruit_choice3.png","-1","fruit","","banana","2","0"
"html-keyboard-response","210","810475","0.0-9.0-2.0-0.62","1905","2","2","""event"",""trial"",""time""
""fullscreenenter"",""1"",""8087""
","
","
","""event"",""trial"",""time""
""fullscreenenter"",""1"",""8087""
","
","","","","","","null","<div style=""font-size:60px;"">+</div>","null","","fixation","","","","","","","","","","","","","",""
"learning-trial","211","814483","0.0-9.0-2.0-1.62","1905","2","2","""event"",""trial"",""time""
""fullscreenenter"",""1"",""8087""
","
","
","""event"",""trial"",""time""
""fullscreenenter"",""1"",""8087""
","
","","","","","","1524.9000000003725","images/banana1.png","","","learning","images/fruit_choice1.png","images/fruit_choice2.png","images/fruit_choice3.png","[0,1,2]","0","0","2","images/fruit_choice2.png","-1","fruit","","banana","2","0"
"html-keyboard-response","212","814985","0.0-9.0-2.0-0.63","1905","2","2","""event"",""trial"",""time""
""fullscreenenter"",""1"",""8087""
","
","
","""event"",""trial"",""time""
""fullscreenenter"",""1"",""8087""
","
","","","","","","null","<div style=""font-size:60px;"">+</div>","null","","fixation","","","","","","","","","","","","","",""
"learning-trial","213","818992","0.0-9.0-2.0-1.63","1905","2","2","""event"",""trial"",""time""
""fullscreenenter"",""1"",""8087""
","
","
","""event"",""trial"",""time""
""fullscreenenter"",""1"",""8087""
","
","","","","","","442.20000000018626","images/apple1.png","","","learning","images/fruit_choice1.png","images/fruit_choice2.png","images/fruit_choice3.png","[0,1,2]","1","1","3","images/fruit_choice3.png","-1","fruit","","apple","2","0"
"html-keyboard-response","214","819493","0.0-9.0-2.0-0.64","1905","2","2","""event"",""trial"",""time""
""fullscreenenter"",""1"",""8087""
","
","
","""event"",""trial"",""time""
""fullscreenenter"",""1"",""8087""
","
","","","","","","null","<div style=""font-size:60px;"">+</div>","null","","fixation","","","","","","","","","","","","","",""
"learning-trial","215","823500","0.0-9.0-2.0-1.64","1905","2","2","""event"",""trial"",""time""
""fullscreenenter"",""1"",""8087""
","
","
","""event"",""trial"",""time""
""fullscreenenter"",""1"",""8087""
","
","","","","","","902","images/straw2.png","","","learning","images/fruit_choice2.png","images/fruit_choice3.png","images/fruit_choice1.png","[1,2,0]","2","1","1","images/fruit_choice2.png","-1","fruit","","straw","2","0"
"html-keyboard-response","216","824002","0.0-9.0-2.0-0.65","1905","2","2","""event"",""trial"",""time""
""fullscreenenter"",""1"",""8087""
","
","
","""event"",""trial"",""time""
""fullscreenenter"",""1"",""8087""
","
","","","","","","null","<div style=""font-size:60px;"">+</div>","null","","fixation","","","","","","","","","","","","","",""
"learning-trial","217","828009","0.0-9.0-2.0-1.65","1905","2","2","""event"",""trial"",""time""
""fullscreenenter"",""1"",""8087""
","
","
","""event"",""trial"",""time""
""fullscreenenter"",""1"",""8087""
","
","","","","","","364.60000000009313","images/straw5.png","","","learning","images/fruit_choice1.png","images/fruit_choice3.png","images/fruit_choice2.png","[0,2,1]","1","2","2","images/fruit_choice3.png","-1","fruit","","straw","2","0"
"html-keyboard-response","218","828512","0.0-9.0-2.0-0.66","1905","2","2","""event"",""trial"",""time""
""fullscreenenter"",""1"",""8087""
","
","
","""event"",""trial"",""time""
""fullscreenenter"",""1"",""8087""
","
","","","","","","null","<div style=""font-size:60px;"">+</div>","null","","fixation","","","","","","","","","","","","","",""
"learning-trial","219","832520","0.0-9.0-2.0-1.66","1905","2","2","""event"",""trial"",""time""
""fullscreenenter"",""1"",""8087""
","
","
","""event"",""trial"",""time""
""fullscreenenter"",""1"",""8087""
","
","","","","","","1399","images/straw2.png","","","learning","images/fruit_choice1.png","images/fruit_choice2.png","images/fruit_choice3.png","[0,1,2]","2","2","2","images/fruit_choice2.png","-1","fruit","","straw","2","0"
"html-keyboard-response","220","833023","0.0-9.0-2.0-0.67","1905","2","2","""event"",""trial"",""time""
""fullscreenenter"",""1"",""8087""
","
","
","""event"",""trial"",""time""
""fullscreenenter"",""1"",""8087""
","
","","","","","","null","<div style=""font-size:60px;"">+</div>","null","","fixation","","","","","","","","","","","","","",""
"learning-trial","221","837031","0.0-9.0-2.0-1.67","1905","2","2","""event"",""trial"",""time""
""fullscreenenter"",""1"",""8087""
","
","
","""event"",""trial"",""time""
""fullscreenenter"",""1"",""8087""
","
","","","","","","789.3999999999069","images/banana5.png","","","learning","images/fruit_choice3.png","images/fruit_choice1.png","images/fruit_choice2.png","[2,0,1]","1","2","2","images/fruit_choice1.png","-1","fruit","","banana","2","0"
"html-keyboard-response","222","837534","0.0-9.0-2.0-0.68","1905","2","2","""event"",""trial"",""time""
""fullscreenenter"",""1"",""8087""
","
","
","""event"",""trial"",""time""
""fullscreenenter"",""1"",""8087""
","
","","","","","","null","<div style=""font-size:60px;"">+</div>","null","","fixation","","","","","","","","","","","","","",""
"learning-trial","223","841542","0.0-9.0-2.0-1.68","1905","2","2","""event"",""trial"",""time""
""fullscreenenter"",""1"",""8087""
","
","
","""event"",""trial"",""time""
""fullscreenenter"",""1"",""8087""
","
","","","","","","311.5","images/banana3.png","","","learning","images/fruit_choice1.png","images/fruit_choice3.png","images/fruit_choice2.png","[0,2,1]","2","1","1","images/fruit_choice1.png","-1","fruit","","banana","2","0"
"html-keyboard-response","224","842044","0.0-9.0-2.0-0.69","1905","2","2","""event"",""trial"",""time""
""fullscreenenter"",""1"",""8087""
","
","
","""event"",""trial"",""time""
""fullscreenenter"",""1"",""8087""
","
","","","","","","null","<div style=""font-size:60px;"">+</div>","null","","fixation","","","","","","","","","","","","","",""
"learning-trial","225","846050","0.0-9.0-2.0-1.69","1905","2","2","""event"",""trial"",""time""
""fullscreenenter"",""1"",""8087""
","
","
","""event"",""trial"",""time""
""fullscreenenter"",""1"",""8087""
","
","","","","","","566.0999999996275","images/apple3.png","","","learning","images/fruit_choice3.png","images/fruit_choice2.png","images/fruit_choice1.png","[2,1,0]","2","0","2","images/fruit_choice2.png","-1","fruit","","apple","2","0"
"html-keyboard-response","226","846552","0.0-9.0-2.0-0.70","1905","2","2","""event"",""trial"",""time""
""fullscreenenter"",""1"",""8087""
","
","
","""event"",""trial"",""time""
""fullscreenenter"",""1"",""8087""
","
","","","","","","null","<div style=""font-size:60px;"">+</div>","null","","fixation","","","","","","","","","","","","","",""
"learning-trial","227","850559","0.0-9.0-2.0-1.70","1905","2","2","""event"",""trial"",""time""
""fullscreenenter"",""1"",""8087""
","
","
","""event"",""trial"",""time""
""fullscreenenter"",""1"",""8087""
","
","","","","","","824","images/apple3.png","","","learning","images/fruit_choice2.png","images/fruit_choice1.png","images/fruit_choice3.png","[1,0,2]","2","2","1","images/fruit_choice2.png","-1","fruit","","apple","2","0"
"html-keyboard-response","228","851062","0.0-9.0-2.0-0.71","1905","2","2","""event"",""trial"",""time""
""fullscreenenter"",""1"",""8087""
","
","
","""event"",""trial"",""time""
""fullscreenenter"",""1"",""8087""
","
","","","","","","null","<div style=""font-size:60px;"">+</div>","null","","fixation","","","","","","","","","","","","","",""
"learning-trial","229","855069","0.0-9.0-2.0-1.71","1905","2","2","""event"",""trial"",""time""
""fullscreenenter"",""1"",""8087""
","
","
","""event"",""trial"",""time""
""fullscreenenter"",""1"",""8087""
","
","","","","","","993.6000000000931","images/apple2.png","","","learning","images/fruit_choice2.png","images/fruit_choice1.png","images/fruit_choice3.png","[1,0,2]","0","1","2","images/fruit_choice1.png","1","fruit","","apple","2","0"
"html-button-response","230","867814","0.0-9.0-3.0","1905","2","2","""event"",""trial"",""time""
""fullscreenenter"",""1"",""8087""
","
","
","""event"",""trial"",""time""
""fullscreenenter"",""1"",""8087""
","
","","","","","","12739.200000000186","<p> You have completed the round! <p> In this round, you earned -28 points! </p>","0","","break","","","","","","","","","","","","","",""
"html-button-response","231","871992","0.0-10.0","1905","2","2","""event"",""trial"",""time""
""fullscreenenter"",""1"",""8087""
","
","
","""event"",""trial"",""time""
""fullscreenenter"",""1"",""8087""
","
","","","","","","4175","<p> Now it's time to play another round. </p>","0","","transition_screen","","","","","","","","","","","","","",""
"preload","232","877999","0.0-11.0-0.0","1905","2","2","""event"",""trial"",""time""
""fullscreenenter"",""1"",""8087""
","
","
","""event"",""trial"",""time""
""fullscreenenter"",""1"",""8087""
","
","true","false","[]","[]","[]","","","","","","","","","","","","","","","","","","",""
"learning-instructions","233","889041","0.0-11.0-1.0-0.0","1905","2","2","""event"",""trial"",""time""
""fullscreenenter"",""1"",""8087""
","
","
","""event"",""trial"",""time""
""fullscreenenter"",""1"",""8087""
","
","","","","","","2631.600000000093","<p> Your goal in this round is to deliver furniture to three different buildings. </p><p> You will need to deliver many pieces of furniture. </p></div>","","0","instructions","","","","","","","","","","","","","",""
"learning-instructions","234","898899","0.0-11.0-1.0-0.1","1905","2","2","""event"",""trial"",""time""
""fullscreenenter"",""1"",""8087""
","
","
","""event"",""trial"",""time""
""fullscreenenter"",""1"",""8087""
","
","","","","","","2421.899999999907","<p> On each turn, you will see a picture of a furniture item and three different buildings.  </p><p> You need to select the building that you want to deliver the furniture to.  </p>","","0","instructions","","","","","","","","","","","","","",""
"learning-instructions","235","908342","0.0-11.0-1.0-0.2","1905","2","2","""event"",""trial"",""time""
""fullscreenenter"",""1"",""8087""
","
","
","""event"",""trial"",""time""
""fullscreenenter"",""1"",""8087""
","
","","","","","","1143.2000000001863","<p> You can select the building on the left by pressing 1, the building in the middle by pressing 2, and the building on the right by pressing 3.  </p><br><div class=""choice-instructions-grid""> <div class=""choice-option""><img src=""images/furniture_choice1.png"" class=""choice-option-img"" stage=""instructions"" position=""0"" ><div class=""choice-option-text""> Press ""1."" </div></div><div class=""choice-option""><img src=""images/furniture_choice2.png"" class=""choice-option-img"" stage=""instructions"" position=""1"" ><div class=""choice-option-text""> Press ""2."" </div></div><div class=""choice-option""><img src=""images/furniture_choice3.png"" class=""choice-option-img"" stage=""instructions"" position=""2"" ><div class=""choice-option-text""> Press ""3."" </div></div></div>","","0","instructions","","","","","","","","","","","","","",""
"learning-instructions","236","915449","0.0-11.0-1.0-0.3","1905","2","2","""event"",""trial"",""time""
""fullscreenenter"",""1"",""8087""
","
","
","""event"",""trial"",""time""
""fullscreenenter"",""1"",""8087""
","
