"trial_type","trial_index","time_elapsed","internal_node_id","subject_id","condition","task_version","interactions","blur_events","focus_events","fullscreenenter_events","fullscreenexit_events","success","timeout","failed_images","failed_audio","failed_video","rt","stimulus","response","button_pressed","task_part","left_choice","middle_choice","right_choice","choice_positions","correct_response","correct_position","key_press","option_selected","points","task_block","correct","stim_cat","block_condition","block_number"
"pavlovia","0","4","0.0-0.0","1712","1","2","""event"",""trial"",""time""
""fullscreenenter"",""1"",""111297""
","
","
","""event"",""trial"",""time""
""fullscreenenter"",""1"",""111297""
","
","","","","","","","","","","","","","","","","","","","","","","","",""
"fullscreen","1","112280","0.0-1.0","1712","1","2","""event"",""trial"",""time""
""fullscreenenter"",""1"",""111297""
","
","
","""event"",""trial"",""time""
""fullscreenenter"",""1"",""111297""
","
","true","","","","","","","","","","","","","","","","","","","","","","",""
"preload","2","117049","0.0-2.0","1712","1","2","""event"",""trial"",""time""
""fullscreenenter"",""1"",""111297""
","
","
","""event"",""trial"",""time""
""fullscreenenter"",""1"",""111297""
","
","true","false","[]","[]","[]","","","","","","","","","","","","","","","","","","",""
"audio-keyboard-response","3","120748","0.0-3.0","1712","1","2","""event"",""trial"",""time""
""fullscreenenter"",""1"",""111297""
","
","
","""event"",""trial"",""time""
""fullscreenenter"",""1"",""111297""
","
","","","","","","3696.0000000000005","audio/beep_loop.wav"," ","","","","","","","","","","","","","","","",""
"audio-button-response","4","122722","0.0-4.0","1712","1","2","""event"",""trial"",""time""
""fullscreenenter"",""1"",""111297""
","
","
","""event"",""trial"",""time""
""fullscreenenter"",""1"",""111297""
","
","","","","","","1973","audio/shark.wav","4","","","","","","","","","","","","","","","",""
"audio-button-response","5","125521","0.0-5.0","1712","1","2","""event"",""trial"",""time""
""fullscreenenter"",""1"",""111297""
","
","
","""event"",""trial"",""time""
""fullscreenenter"",""1"",""111297""
","
","","","","","","1792","audio/turtle.wav","1","","","","","","","","","","","","","","","",""
"preload","6","132193","0.0-6.0","1712","1","2","""event"",""trial"",""time""
""fullscreenenter"",""1"",""111297""
","
","
","""event"",""trial"",""time""
""fullscreenenter"",""1"",""111297""
","
","true","false","[]","[]","[]","","","","","","","","","","","","","","","","","","",""
"html-keyboard-response","7","135164","0.0-7.0","1712","1","2","""event"",""trial"",""time""
""fullscreenenter"",""1"",""111297""
","
","
","""event"",""trial"",""time""
""fullscreenenter"",""1"",""111297""
","
","","","","","","2968.7999999523163","Welcome to the experiment. Press any key to begin and to advance the instructions."," ","","","","","","","","","","","","","","","",""
"learning-instructions","8","144137","0.0-8.0-0.0-0.0","1712","1","2","""event"",""trial"",""time""
""fullscreenenter"",""1"",""111297""
","
","
","""event"",""trial"",""time""
""fullscreenenter"",""1"",""111297""
","
","","","","","","1224.7999999523163","<p> Welcome! Today you are going to play 6 different rounds of a decision-making game. </p><p> Use the mouse to click next to continue. </p>","","0","instructions","","","","","","","","","","","","","",""
"learning-instructions","9","148396","0.0-8.0-0.0-0.1","1712","1","2","""event"",""trial"",""time""
""fullscreenenter"",""1"",""111297""
","
","
","""event"",""trial"",""time""
""fullscreenenter"",""1"",""111297""
","
","","","","","","1256","<p> You will start with a practice round to learn the rules. </p>","","0","instructions","","","","","","","","","","","","","",""
"learning-instructions","10","191814","0.0-8.0-0.0-0.2","1712","1","2","""event"",""trial"",""time""
""fullscreenenter"",""1"",""111297""
","
","
","""event"",""trial"",""time""
""fullscreenenter"",""1"",""111297""
","
","","","","","","35676.799999952316","<p> Your goal in this round is to deliver sports equipment to three different parks. </p><p> You will need to deliver many types of equipment. </p></div>","","0","instructions","","","","","","","","","","","","","",""
"learning-instructions","11","203737","0.0-8.0-0.0-0.3","1712","1","2","""event"",""trial"",""time""
""fullscreenenter"",""1"",""111297""
","
","
","""event"",""trial"",""time""
""fullscreenenter"",""1"",""111297""
","
","","","","","","3403.6999999284744","<p> On each turn, you will see one piece of sports equipment and three different parks.  </p><p> You need to select which park to deliver the equipment to.  </p>","","0","instructions","","","","","","","","","","","","","",""
"learning-instructions","12","219570","0.0-8.0-0.0-0.4","1712","1","2","""event"",""trial"",""time""
""fullscreenenter"",""1"",""111297""
","
","
","""event"",""trial"",""time""
""fullscreenenter"",""1"",""111297""
","
","","","","","","2539.8000000715256","<p> You can select the park on the left by pressing the '1' key on your keyboard. <br>You can select the park in the middle by pressing the '2' key on your keyboard. <br>You can select the park on the right by pressing the '3' key on your keyboard.  </p><br><div class=""choice-instructions-grid""> <div class=""choice-option""><img src=""images/park1.png"" class=""choice-option-img"" stage=""instructions"" position=""0"" ><div class=""choice-option-text""> Press ""1."" </div></div><div class=""choice-option""><img src=""images/park2.png"" class=""choice-option-img"" stage=""instructions"" position=""1"" ><div class=""choice-option-text""> Press ""2."" </div></div><div class=""choice-option""><img src=""images/park3.png"" class=""choice-option-img"" stage=""instructions"" position=""2"" ><div class=""choice-option-text""> Press ""3."" </div></div></div>","","0","instructions","","","","","","","","","","","","","",""
"learning-instructions","13","226773","0.0-8.0-0.0-0.5","1712","1","2","""event"",""trial"",""time""
""fullscreenenter"",""1"",""111297""
","
","
","""event"",""trial"",""time""
""fullscreenenter"",""1"",""111297""
","
","","","","","","1818.5","<p> If the kids in the park you chose like the equipment, they will be very happy! </p><div style='float: center;'><img src='images/check.png' width = '200' height = '200'></img>","","0","instructions","","","","","","","","","","","","","",""
"learning-instructions","14","235351","0.0-8.0-0.0-0.6","1712","1","2","""event"",""trial"",""time""
""fullscreenenter"",""1"",""111297""
","
","
","""event"",""trial"",""time""
""fullscreenenter"",""1"",""111297""
","
","","","","","","2989.1999999284744","<p> But, if the kids in the park you chose do not like the equipment, they will be sad. </p><div style='float: center;'><img src='images/x.png' width = '200' height = '200'></img>","","0","instructions","","","","","","","","","","","","","",""
"learning-instructions","15","244450","0.0-8.0-0.0-0.7","1712","1","2","""event"",""trial"",""time""
""fullscreenenter"",""1"",""111297""
","
","
","""event"",""trial"",""time""
""fullscreenenter"",""1"",""111297""
","
","","","","","","2669.6999999284744","<p> Importantly, the kids in each park like some pieces of sports equipment more than others. </p>","","0","instructions","","","","","","","","","","","","","",""
"learning-instructions","16","252622","0.0-8.0-0.0-0.8","1712","1","2","""event"",""trial"",""time""
""fullscreenenter"",""1"",""111297""
","
","
","""event"",""trial"",""time""
""fullscreenenter"",""1"",""111297""
","
","","","","","","2121.9000000953674","<p> If you choose the best park for each piece of equipment, the kids there will usually be happy. </p>","","0","instructions","","","","","","","","","","","","","",""
"learning-instructions","17","265794","0.0-8.0-0.0-0.9","1712","1","2","""event"",""trial"",""time""
""fullscreenenter"",""1"",""111297""
","
","
","""event"",""trial"",""time""
""fullscreenenter"",""1"",""111297""
","
","","","","","","6532.200000047684","<p> However, even if you choose the best park for the equipment, the kids may sometimes be sad. </p>","","0","instructions","","","","","","","","","","","","","",""
"learning-instructions","18","279217","0.0-8.0-0.0-0.10","1712","1","2","""event"",""trial"",""time""
""fullscreenenter"",""1"",""111297""
","
","
","""event"",""trial"",""time""
""fullscreenenter"",""1"",""111297""
","
","","","","","","6194.600000023842","<p> Similarly, even if you choose the <i>wrong</i> park for the equipment, the kids may still be happy sometimes.","","0","instructions","","","","","","","","","","","","","",""
"learning-instructions","19","287371","0.0-8.0-0.0-0.11","1712","1","2","""event"",""trial"",""time""
""fullscreenenter"",""1"",""111297""
","
","
","""event"",""trial"",""time""
""fullscreenenter"",""1"",""111297""
","
","","","","","","3101.5","<p> For example, the best park for this soccer ball is this one.<div style='float: center;'><img src='images/i1.png' width = '500' height = '268'></img>","","0","instructions","","","","","","","","","","","","","",""
"learning-instructions","20","293494","0.0-8.0-0.0-0.12","1712","1","2","""event"",""trial"",""time""
""fullscreenenter"",""1"",""111297""
","
","
","""event"",""trial"",""time""
""fullscreenenter"",""1"",""111297""
","
","","","","","","835.1999999284744","<p> Let's see what happens if you choose this park for the soccer ball five times.","","0","instructions","","","","","","","","","","","","","",""
"learning-instructions","21","296231","0.0-8.0-0.0-0.13","1712","1","2","""event"",""trial"",""time""
""fullscreenenter"",""1"",""111297""
","
","
","""event"",""trial"",""time""
""fullscreenenter"",""1"",""111297""
","
","","","","","","569.6999999284744","<p> The kids are happy.<div style='float: left;'><img src='images/i2.png' width = '640' height = '360'></img>","","0","instructions","","","","","","","","","","","","","",""
"learning-instructions","22","298888","0.0-8.0-0.0-0.14","1712","1","2","""event"",""trial"",""time""
""fullscreenenter"",""1"",""111297""
","
","
","""event"",""trial"",""time""
""fullscreenenter"",""1"",""111297""
","
","","","","","","490.60000002384186","<p> The kids are happy.<div style='float: left;'><img src='images/i3.png' width = '640' height = '360'></img>","","0","instructions","","","","","","","","","","","","","",""
"learning-instructions","23","301465","0.0-8.0-0.0-0.15","1712","1","2","""event"",""trial"",""time""
""fullscreenenter"",""1"",""111297""
","
","
","""event"",""trial"",""time""
""fullscreenenter"",""1"",""111297""
","
","","","","","","406.7000000476837","<p> The kids are happy.<div style='float: left;'><img src='images/i4.png' width = '640' height = '360'></img>","","0","instructions","","","","","","","","","","","","","",""
"learning-instructions","24","304130","0.0-8.0-0.0-0.16","1712","1","2","""event"",""trial"",""time""
""fullscreenenter"",""1"",""111297""
","
","
","""event"",""trial"",""time""
""fullscreenenter"",""1"",""111297""
","
","","","","","","457.7999999523163","<p> The kids are sad.<div style='float: left;'><img src='images/i5.png' width = '640' height = '360'></img>","","0","instructions","","","","","","","","","","","","","",""
"learning-instructions","25","307268","0.0-8.0-0.0-0.17","1712","1","2","""event"",""trial"",""time""
""fullscreenenter"",""1"",""111297""
","
","
","""event"",""trial"",""time""
""fullscreenenter"",""1"",""111297""
","
","","","","","","971.8999999761581","<p> The kids are happy.<div style='float: left;'><img src='images/i6.png' width = '640' height = '360'></img>","","0","instructions","","","","","","","","","","","","","",""
"learning-instructions","26","316338","0.0-8.0-0.0-0.18","1712","1","2","""event"",""trial"",""time""
""fullscreenenter"",""1"",""111297""
","
","
","""event"",""trial"",""time""
""fullscreenenter"",""1"",""111297""
","
","","","","","","1797.5","<p> As you can see, selecting that park for the soccer ball made the kids happy most of the time, but not all the time.","","0","instructions","","","","","","","","","","","","","",""
"learning-instructions","27","325583","0.0-8.0-0.0-0.19","1712","1","2","""event"",""trial"",""time""
""fullscreenenter"",""1"",""111297""
","
","
","""event"",""trial"",""time""
""fullscreenenter"",""1"",""111297""
","
","","","","","","3246.100000023842","<p> Now let's see what happens if you choose a DIFFERENT park for the soccer ball 5 times.","","0","instructions","","","","","","","","","","","","","",""
"learning-instructions","28","328489","0.0-8.0-0.0-0.20","1712","1","2","""event"",""trial"",""time""
""fullscreenenter"",""1"",""111297""
","
","
","""event"",""trial"",""time""
""fullscreenenter"",""1"",""111297""
","
","","","","","","700.7000000476837","<p> The kids are sad.<div style='float: left;'><img src='images/i7.png' width = '640' height = '360'></img>","","0","instructions","","","","","","","","","","","","","",""
"learning-instructions","29","331409","0.0-8.0-0.0-0.21","1712","1","2","""event"",""trial"",""time""
""fullscreenenter"",""1"",""111297""
","
","
","""event"",""trial"",""time""
""fullscreenenter"",""1"",""111297""
","
","","","","","","719.1000000238419","<p> The kids are sad.<div style='float: left;'><img src='images/i8.png' width = '640' height = '360'></img>","","0","instructions","","","","","","","","","","","","","",""
"learning-instructions","30","334177","0.0-8.0-0.0-0.22","1712","1","2","""event"",""trial"",""time""
""fullscreenenter"",""1"",""111297""
","
","
","""event"",""trial"",""time""
""fullscreenenter"",""1"",""111297""
","
","","","","","","602.5","<p> The kids are happy.<div style='float: left;'><img src='images/i9.png' width = '640' height = '360'></img>","","0","instructions","","","","","","","","","","","","","",""
"learning-instructions","31","336884","0.0-8.0-0.0-0.23","1712","1","2","""event"",""trial"",""time""
""fullscreenenter"",""1"",""111297""
","
","
","""event"",""trial"",""time""
""fullscreenenter"",""1"",""111297""
","
","","","","","","503.8000000715256","<p> The kids are sad.<div style='float: left;'><img src='images/i10.png' width = '640' height = '360'></img>","","0","instructions","","","","","","","","","","","","","",""
"learning-instructions","32","339954","0.0-8.0-0.0-0.24","1712","1","2","""event"",""trial"",""time""
""fullscreenenter"",""1"",""111297""
","
","
","""event"",""trial"",""time""
""fullscreenenter"",""1"",""111297""
","
","","","","","","864.7000000476837","<p> The kids are sad.<div style='float: left;'><img src='images/i11.png' width = '640' height = '360'></img>","","0","instructions","","","","","","","","","","","","","",""
"learning-instructions","33","348475","0.0-8.0-0.0-0.25","1712","1","2","""event"",""trial"",""time""
""fullscreenenter"",""1"",""111297""
","
","
","""event"",""trial"",""time""
""fullscreenenter"",""1"",""111297""
","
","","","","","","404.8000000715256","<p> As you can see, selecting the wrong park for the soccer ball made the kids sad most of the time, but not all the time.","","0","instructions","","","","","","","","","","","","","",""
"learning-instructions","34","359091","0.0-8.0-0.0-0.26","1712","1","2","""event"",""trial"",""time""
""fullscreenenter"",""1"",""111297""
","
","
","""event"",""trial"",""time""
""fullscreenenter"",""1"",""111297""
","
","","","","","","1506.5","<p> The different pieces of equipment belong in different parks. You need to try to learn which is the best park for each piece of equipment.","","0","instructions","","","","","","","","","","","","","",""
"learning-instructions","35","376518","0.0-8.0-0.0-0.27","1712","1","2","""event"",""trial"",""time""
""fullscreenenter"",""1"",""111297""
","
","
","""event"",""trial"",""time""
""fullscreenenter"",""1"",""111297""
","
","","","","","","1041.2000000476837","<p> Try to choose the best park for each piece of equipment, because you will <b> WIN </b> 1 point for each time you make the kids happy and <b>LOSE</b> 1 point for each time you make them sad. </p><p> Remember, if you make the best choice, you will win 1 point most of the time, but not all the time. </p>","","0","instructions","","","","","","","","","","","","","",""
"learning-instructions","36","382678","0.0-8.0-0.0-0.28","1712","1","2","""event"",""trial"",""time""
""fullscreenenter"",""1"",""111297""
","
","
","""event"",""trial"",""time""
""fullscreenenter"",""1"",""111297""
","
","","","","","","679","<p> This is just a practice round, but in the real game, your bonus payment will depend on your total number of points.","","0","instructions","","","","","","","","","","","","","",""
"learning-instructions","37","394681","0.0-8.0-0.0-0.29","1712","1","2","""event"",""trial"",""time""
""fullscreenenter"",""1"",""111297""
","
","
","""event"",""trial"",""time""
""fullscreenenter"",""1"",""111297""
","
","","","","","","1679.1000000238419","<p> The position where each park appears will change throughout the game. </p><p> The position where the park appears <i> does not </i> influence how likely the kids are to be happy or sad. </p>","","0","instructions","","","","","","","","","","","","","",""
"learning-instructions","38","407356","0.0-8.0-0.0-0.30","1712","1","2","""event"",""trial"",""time""
""fullscreenenter"",""1"",""111297""
","
","
","""event"",""trial"",""time""
""fullscreenenter"",""1"",""111297""
","
","","","","","","898.8000000715256","<p> You will have 4 seconds to make each choice. Try to respond before time runs out! </p><p> You will lose 1 point each time you do not make a response. </p>","","0","instructions","","","","","","","","","","","","","",""
"learning-instructions","39","415505","0.0-8.0-0.0-0.31","1712","1","2","""event"",""trial"",""time""
""fullscreenenter"",""1"",""111297""
","
","
","""event"",""trial"",""time""
""fullscreenenter"",""1"",""111297""
","
","","","","","","1361.8000000715256","<p> Remember, you should use the 1, 2, and 3 keys to select the park for each piece of equipment. </p><br><div class=""choice-instructions-grid""> <div class=""choice-option""><img src=""images/park1.png"" class=""choice-option-img"" stage=""instructions"" position=""0"" ><div class=""choice-option-text""> Press ""1."" </div></div><div class=""choice-option""><img src=""images/park2.png"" class=""choice-option-img"" stage=""instructions"" position=""1"" ><div class=""choice-option-text""> Press ""2."" </div></div><div class=""choice-option""><img src=""images/park3.png"" class=""choice-option-img"" stage=""instructions"" position=""2"" ><div class=""choice-option-text""> Press ""3."" </div></div></div>","","0","instructions","","","","","","","","","","","","","",""
"html-button-response","40","416845","0.0-8.0-1.0","1712","1","2","""event"",""trial"",""time""
""fullscreenenter"",""1"",""111297""
","
","
","""event"",""trial"",""time""
""fullscreenenter"",""1"",""111297""
","
","","","","","","1235.5","<p> Ready to practice? </p>","0","","","","","","","","","","","","","","","",""
"html-keyboard-response","41","417448","0.0-8.0-2.0-0.0","1712","1","2","""event"",""trial"",""time""
""fullscreenenter"",""1"",""111297""
","
","
","""event"",""trial"",""time""
""fullscreenenter"",""1"",""111297""
","
","","","","","","null","<div style=""font-size:60px;"">+</div>","null","","fixation","","","","","","","","","","","","","",""
"learning-trial","42","421455","0.0-8.0-2.0-1.0","1712","1","2","""event"",""trial"",""time""
""fullscreenenter"",""1"",""111297""
","
","
","""event"",""trial"",""time""
""fullscreenenter"",""1"",""111297""
","
","","","","","","3194.7999999523163","images/racket1.png","","","practice","images/park2.png","images/park1.png","images/park3.png","[1,0,2]","1","0","1","images/park2.png","-1","practice","","","",""
"html-keyboard-response","43","421960","0.0-8.0-2.0-0.1","1712","1","2","""event"",""trial"",""time""
""fullscreenenter"",""1"",""111297""
","
","
","""event"",""trial"",""time""
""fullscreenenter"",""1"",""111297""
","
","","","","","","null","<div style=""font-size:60px;"">+</div>","null","","fixation","","","","","","","","","","","","","",""
"learning-trial","44","425965","0.0-8.0-2.0-1.1","1712","1","2","""event"",""trial"",""time""
""fullscreenenter"",""1"",""111297""
","
","
","""event"",""trial"",""time""
""fullscreenenter"",""1"",""111297""
","
","","","","","","1323","images/ball4.png","","","practice","images/park1.png","images/park2.png","images/park3.png","[0,1,2]","2","2","1","images/park1.png","-1","practice","","","",""
"html-keyboard-response","45","426466","0.0-8.0-2.0-0.2","1712","1","2","""event"",""trial"",""time""
""fullscreenenter"",""1"",""111297""
","
","
","""event"",""trial"",""time""
""fullscreenenter"",""1"",""111297""
","
","","","","","","null","<div style=""font-size:60px;"">+</div>","null","","fixation","","","","","","","","","","","","","",""
"learning-trial","46","430474","0.0-8.0-2.0-1.2","1712","1","2","""event"",""trial"",""time""
""fullscreenenter"",""1"",""111297""
","
","
","""event"",""trial"",""time""
""fullscreenenter"",""1"",""111297""
","
","","","","","","1923","images/racket1.png","","","practice","images/park3.png","images/park2.png","images/park1.png","[2,1,0]","1","1","3","images/park1.png","-1","practice","","","",""
"html-keyboard-response","47","430977","0.0-8.0-2.0-0.3","1712","1","2","""event"",""trial"",""time""
""fullscreenenter"",""1"",""111297""
","
","
","""event"",""trial"",""time""
""fullscreenenter"",""1"",""111297""
","
","","","","","","null","<div style=""font-size:60px;"">+</div>","null","","fixation","","","","","","","","","","","","","",""
"learning-trial","48","434984","0.0-8.0-2.0-1.3","1712","1","2","""event"",""trial"",""time""
""fullscreenenter"",""1"",""111297""
","
","
","""event"",""trial"",""time""
""fullscreenenter"",""1"",""111297""
","
","","","","","","1756.1999999284744","images/racket4.png","","","practice","images/park2.png","images/park3.png","images/park1.png","[1,2,0]","2","1","1","images/park2.png","-1","practice","","","",""
"html-keyboard-response","49","435489","0.0-8.0-2.0-0.4","1712","1","2","""event"",""trial"",""time""
""fullscreenenter"",""1"",""111297""
","
","
","""event"",""trial"",""time""
""fullscreenenter"",""1"",""111297""
","
","","","","","","null","<div style=""font-size:60px;"">+</div>","null","","fixation","","","","","","","","","","","","","",""
"learning-trial","50","439496","0.0-8.0-2.0-1.4","1712","1","2","""event"",""trial"",""time""
""fullscreenenter"",""1"",""111297""
","
","
","""event"",""trial"",""time""
""fullscreenenter"",""1"",""111297""
","
","","","","","","1384.5","images/racket2.png","","","practice","images/park1.png","images/park3.png","images/park2.png","[0,2,1]","1","2","2","images/park3.png","-1","practice","","","",""
"html-keyboard-response","51","439997","0.0-8.0-2.0-0.5","1712","1","2","""event"",""trial"",""time""
""fullscreenenter"",""1"",""111297""
","
","
","""event"",""trial"",""time""
""fullscreenenter"",""1"",""111297""
","
","","","","","","null","<div style=""font-size:60px;"">+</div>","null","","fixation","","","","","","","","","","","","","",""
"learning-trial","52","444000","0.0-8.0-2.0-1.5","1712","1","2","""event"",""trial"",""time""
""fullscreenenter"",""1"",""111297""
","
","
","""event"",""trial"",""time""
""fullscreenenter"",""1"",""111297""
","
","","","","","","2890.3000000715256","images/racket3.png","","","practice","images/park1.png","images/park2.png","images/park3.png","[0,1,2]","0","0","2","images/park2.png","1","practice","","","",""
"html-keyboard-response","53","444504","0.0-8.0-2.0-0.6","1712","1","2","""event"",""trial"",""time""
""fullscreenenter"",""1"",""111297""
","
","
","""event"",""trial"",""time""
""fullscreenenter"",""1"",""111297""
","
","","","","","","null","<div style=""font-size:60px;"">+</div>","null","","fixation","","","","","","","","","","","","","",""
"learning-trial","54","448510","0.0-8.0-2.0-1.6","1712","1","2","""event"",""trial"",""time""
""fullscreenenter"",""1"",""111297""
","
","
","""event"",""trial"",""time""
""fullscreenenter"",""1"",""111297""
","
","","","","","","1812.5","images/ball4.png","","","practice","images/park1.png","images/park3.png","images/park2.png","[0,2,1]","2","1","2","images/park3.png","-1","practice","","","",""
"html-keyboard-response","55","449011","0.0-8.0-2.0-0.7","1712","1","2","""event"",""trial"",""time""
""fullscreenenter"",""1"",""111297""
","
","
","""event"",""trial"",""time""
""fullscreenenter"",""1"",""111297""
","
","","","","","","null","<div style=""font-size:60px;"">+</div>","null","","fixation","","","","","","","","","","","","","",""
"learning-trial","56","453016","0.0-8.0-2.0-1.7","1712","1","2","""event"",""trial"",""time""
""fullscreenenter"",""1"",""111297""
","
","
","""event"",""trial"",""time""
""fullscreenenter"",""1"",""111297""
","
","","","","","","2539","images/racket2.png","","","practice","images/park2.png","images/park3.png","images/park1.png","[1,2,0]","1","0","3","images/park1.png","-1","practice","","","",""
"html-keyboard-response","57","453517","0.0-8.0-2.0-0.8","1712","1","2","""event"",""trial"",""time""
""fullscreenenter"",""1"",""111297""
","
","
","""event"",""trial"",""time""
""fullscreenenter"",""1"",""111297""
","
","","","","","","null","<div style=""font-size:60px;"">+</div>","null","","fixation","","","","","","","","","","","","","",""
"learning-trial","58","457523","0.0-8.0-2.0-1.8","1712","1","2","""event"",""trial"",""time""
""fullscreenenter"",""1"",""111297""
","
","
","""event"",""trial"",""time""
""fullscreenenter"",""1"",""111297""
","
","","","","","","1525.6000000238419","images/racket4.png","","","practice","images/park3.png","images/park2.png","images/park1.png","[2,1,0]","2","0","1","images/park3.png","1","practice","","","",""
"html-keyboard-response","59","458024","0.0-8.0-2.0-0.9","1712","1","2","""event"",""trial"",""time""
""fullscreenenter"",""1"",""111297""
","
","
","""event"",""trial"",""time""
""fullscreenenter"",""1"",""111297""
","
","","","","","","null","<div style=""font-size:60px;"">+</div>","null","","fixation","","","","","","","","","","","","","",""
"learning-trial","60","462029","0.0-8.0-2.0-1.9","1712","1","2","""event"",""trial"",""time""
""fullscreenenter"",""1"",""111297""
","
","
","""event"",""trial"",""time""
""fullscreenenter"",""1"",""111297""
","
","","","","","","3651.899999976158","images/racket3.png","","","practice","images/park3.png","images/park2.png","images/park1.png","[2,1,0]","0","2","2","images/park2.png","-1","practice","","","",""
"html-keyboard-response","61","462530","0.0-8.0-2.0-0.10","1712","1","2","""event"",""trial"",""time""
""fullscreenenter"",""1"",""111297""
","
","
","""event"",""trial"",""time""
""fullscreenenter"",""1"",""111297""
","
","","","","","","null","<div style=""font-size:60px;"">+</div>","null","","fixation","","","","","","","","","","","","","",""
"learning-trial","62","466534","0.0-8.0-2.0-1.10","1712","1","2","""event"",""trial"",""time""
""fullscreenenter"",""1"",""111297""
","
","
","""event"",""trial"",""time""
""fullscreenenter"",""1"",""111297""
","
","","","","","","1284.5","images/ball2.png","","","practice","images/park1.png","images/park2.png","images/park3.png","[0,1,2]","0","0","1","images/park1.png","1","practice","","","",""
"html-keyboard-response","63","467037","0.0-8.0-2.0-0.11","1712","1","2","""event"",""trial"",""time""
""fullscreenenter"",""1"",""111297""
","
","
","""event"",""trial"",""time""
""fullscreenenter"",""1"",""111297""
","
","","","","","","null","<div style=""font-size:60px;"">+</div>","null","","fixation","","","","","","","","","","","","","",""
"learning-trial","64","471043","0.0-8.0-2.0-1.11","1712","1","2","""event"",""trial"",""time""
""fullscreenenter"",""1"",""111297""
","
","
","""event"",""trial"",""time""
""fullscreenenter"",""1"",""111297""
","
","","","","","","808.3999999761581","images/ball2.png","","","practice","images/park1.png","images/park3.png","images/park2.png","[0,2,1]","0","0","1","images/park1.png","1","practice","","","",""
"html-button-response","65","474252","0.0-8.0-3.0","1712","1","2","""event"",""trial"",""time""
""fullscreenenter"",""1"",""111297""
","
","
","""event"",""trial"",""time""
""fullscreenenter"",""1"",""111297""
","
","","","","","","3206","<p> You earned -4 points in the practice round! </p>","0","","break","","","","","","","","","","","","","",""
"learning-instructions","66","484115","0.0-8.0-4.0-0.0","1712","1","2","""event"",""trial"",""time""
""fullscreenenter"",""1"",""111297""
","
","
","""event"",""trial"",""time""
""fullscreenenter"",""1"",""111297""
","
","","","","","","2146.5999999046326","<p> It's almost time to start the real game. </p><p> Before you start, we're going to ask you a few questions about how the game works. </p>","","0","instructions","","","","","","","","","","","","","",""
"preload","67","487337","0.0-8.0-5.0","1712","1","2","""event"",""trial"",""time""
""fullscreenenter"",""1"",""111297""
","
","
","""event"",""trial"",""time""
""fullscreenenter"",""1"",""111297""
","
","true","false","[]","[]","[]","","","","","","","","","","","","","","","","","","",""
"comp-q","68","494303","0.0-8.0-6.0-0.0","1712","1","2","""event"",""trial"",""time""
""fullscreenenter"",""1"",""111297""
","
","
","""event"",""trial"",""time""
""fullscreenenter"",""1"",""111297""
","
","","","","","","1513","<p> <b> True or False? </b> </p><p> If you choose the best option, you will always earn 1 point. </p>","","1","comp_question","","","","","","","","","","","true","","",""
"comp-q","69","500848","0.0-8.0-6.0-1.0","1712","1","2","""event"",""trial"",""time""
""fullscreenenter"",""1"",""111297""
","
","
","""event"",""trial"",""time""
""fullscreenenter"",""1"",""111297""
","
","","","","","","883","<p><b> That's right! </b> Sometimes you will lose 1 point, even if you choose the best option. </p>","","0","comp_answer","","","","","","","","","","","","","",""
"comp-q","70","505993","0.0-8.0-6.0-0.1","1712","1","2","""event"",""trial"",""time""
""fullscreenenter"",""1"",""111297""
","
","
","""event"",""trial"",""time""
""fullscreenenter"",""1"",""111297""
","
","","","","","","517.3999999761581","<p> <b> True or False? </b> </p><p> You will have as much time as you want to make each choice. </p>","","1","comp_question","","","","","","","","","","","true","","",""
"comp-q","71","511779","0.0-8.0-6.0-1.1","1712","1","2","""event"",""trial"",""time""
""fullscreenenter"",""1"",""111297""
","
","
","""event"",""trial"",""time""
""fullscreenenter"",""1"",""111297""
","
","","","","","","969.7999999523163","<p> <b> That's right! </b> You will only have 4 seconds to make each choice. </p>","","0","comp_answer","","","","","","","","","","","","","",""
"comp-q","72","518560","0.0-8.0-6.0-0.2","1712","1","2","""event"",""trial"",""time""
""fullscreenenter"",""1"",""111297""
","
","
","""event"",""trial"",""time""
""fullscreenenter"",""1"",""111297""
","
","","","","","","630.7000000476837","<p> <b> True or False? </b> </p><p> You should use the '1', '2', and '3' keys to make your choices. </p>","","0","comp_question","","","","","","","","","","","true","","",""
"comp-q","73","524339","0.0-8.0-6.0-1.2","1712","1","2","""event"",""trial"",""time""
""fullscreenenter"",""1"",""111297""
","
","
","""event"",""trial"",""time""
""fullscreenenter"",""1"",""111297""
","
","","","","","","937.3999999761581","<p> <b> That's right! </b> You should use the '1', '2', and '3' keys to make each choice. </p>","","0","comp_answer","","","","","","","","","","","","","",""
"learning-instructions","74","534356","0.0-8.0-7.0-0.0","1712","1","2","""event"",""trial"",""time""
""fullscreenenter"",""1"",""111297""
","
","
","""event"",""trial"",""time""
""fullscreenenter"",""1"",""111297""
","
","","","","","","1530.8999999761581","<p> It's now time to start the real game. </p>Do your best, because the points you earn in the next rounds will influence your bonus payment. </p>","","0","instructions","","","","","","","","","","","","","",""
"preload","75","562258","0.0-9.0-0.0","1712","1","2","""event"",""trial"",""time""
""fullscreenenter"",""1"",""111297""
","
","
","""event"",""trial"",""time""
""fullscreenenter"",""1"",""111297""
","
","true","false","[]","[]","[]","","","","","","","","","","","","","","","","","","",""
"learning-instructions","76","572076","0.0-9.0-1.0-0.0","1712","1","2","""event"",""trial"",""time""
""fullscreenenter"",""1"",""111297""
","
","
","""event"",""trial"",""time""
""fullscreenenter"",""1"",""111297""
","
","","","","","","1491","<p> Your goal in this round is to travel the world by putting fuel into different vehicles. </p><p> To travel, you will need to put fuel into many different vehicles. </p></div>","","0","instructions","","","","","","","","","","","","","",""
"learning-instructions","77","581571","0.0-9.0-1.0-0.1","1712","1","2","""event"",""trial"",""time""
""fullscreenenter"",""1"",""111297""
","
","
","""event"",""trial"",""time""
""fullscreenenter"",""1"",""111297""
","
","","","","","","713.8999999761581","<p> On each turn, you will see a picture of one of your vehicles and three different types of fuel.  </p><p> You need to select which kind of fuel to use.  </p>","","0","instructions","","","","","","","","","","","","","",""
"learning-instructions","78","589273","0.0-9.0-1.0-0.2","1712","1","2","""event"",""trial"",""time""
""fullscreenenter"",""1"",""111297""
","
","
","""event"",""trial"",""time""
""fullscreenenter"",""1"",""111297""
","
","","","","","","837.2999999523163","<p> You can select the fuel on the left by pressing 1, the fuel in the middle by pressing 2, and the fuel on the right by pressing 3. </p><br><div class=""choice-instructions-grid""> <div class=""choice-option""><img src=""images/vehicles_choice1.png"" class=""choice-option-img"" stage=""instructions"" position=""0"" ><div class=""choice-option-text""> Press ""1."" </div></div><div class=""choice-option""><img src=""images/vehicles_choice2.png"" class=""choice-option-img"" stage=""instructions"" position=""1"" ><div class=""choice-option-text""> Press ""2."" </div></div><div class=""choice-option""><img src=""images/vehicles_choice3.png"" class=""choice-option-img"" stage=""instructions"" position=""2"" ><div class=""choice-option-text""> Press ""3."" </div></div></div>","","0","instructions","","","","","","","","","","","","","",""
"learning-instructions","79","595279","0.0-9.0-1.0-0.3","1712","1","2","""event"",""trial"",""time""
""fullscreenenter"",""1"",""111297""
","
","
","""event"",""trial"",""time""
""fullscreenenter"",""1"",""111297""
","
","","","","","","779.0999999046326","<p> If the fuel you chose works for that vehicle, it will start, and </p><p> you will get to travel. </p><div style='float: center;'><img src='images/check.png' width = '200' height = '200'></img>","","0","instructions","","","","","","","","","","","","","",""
"learning-instructions","80","601091","0.0-9.0-1.0-0.4","1712","1","2","""event"",""trial"",""time""
""fullscreenenter"",""1"",""111297""
","
","
","""event"",""trial"",""time""
""fullscreenenter"",""1"",""111297""
","
","","","","","","1274.2000000476837","<p> But, if the fuel you chose does not work, your vehicle will not move. </p><div style='float: center;'><img src='images/x.png' width = '200' height = '200'></img>","","0","instructions","","","","","","","","","","","","","",""
"learning-instructions","81","612239","0.0-9.0-1.0-0.5","1712","1","2","""event"",""trial"",""time""
""fullscreenenter"",""1"",""111297""
","
","
","""event"",""trial"",""time""
""fullscreenenter"",""1"",""111297""
","
","","","","","","472.2000000476837","<p> Importantly, each vehicle has a fuel that works best for it. </p><p> If you choose the fuel that works best for the vehicle, it will be more likely to start. </p>","","0","instructions","","","","","","","","","","","","","",""
"learning-instructions","82","625152","0.0-9.0-1.0-0.6","1712","1","2","""event"",""trial"",""time""
""fullscreenenter"",""1"",""111297""
","
","
","""event"",""trial"",""time""
""fullscreenenter"",""1"",""111297""
","
","","","","","","2706.600000023842","<p> However, even if you choose the best fuel for the vehicle, it may still not move. </p><p> Similarly, even if you choose the <i>wrong</i> fuel, the vehicle may still start and let you travel.","","0","instructions","","","","","","","","","","","","","",""
"learning-instructions","83","638298","0.0-9.0-1.0-0.7","1712","1","2","""event"",""trial"",""time""
""fullscreenenter"",""1"",""111297""
","
","
","""event"",""trial"",""time""
""fullscreenenter"",""1"",""111297""
","
","","","","","","792.3000000715256","<p> Try to choose the best fuel for each vehicle, because you will <b> WIN </b> 1 point each time you get to travel and <b>LOSE</b> 1 point each time a vehicle does not start. </p><p> Your bonus payment will depend on your total number of points.","","0","instructions","","","","","","","","","","","","","",""
"learning-instructions","84","647246","0.0-9.0-1.0-0.8","1712","1","2","""event"",""trial"",""time""
""fullscreenenter"",""1"",""111297""
","
","
","""event"",""trial"",""time""
""fullscreenenter"",""1"",""111297""
","
","","","","","","695.2999999523163","<p> The position of each type of fuel will change throughout the round. </p><p> The fuel's position <i> does not </i> influence how likely it is to make each vehicle start. </p>","","0","instructions","","","","","","","","","","","","","",""
"learning-instructions","85","657086","0.0-9.0-1.0-0.9","1712","1","2","""event"",""trial"",""time""
""fullscreenenter"",""1"",""111297""
","
","
","""event"",""trial"",""time""
""fullscreenenter"",""1"",""111297""
","
","","","","","","551.6000000238419","<p> You will have 4 seconds to make each choice. Try to respond before time runs out! </p><p> You will lose 1 point each time you do not make a response. </p>","","0","instructions","","","","","","","","","","","","","",""
"html-keyboard-response","86","657691","0.0-9.0-2.0-0.0","1712","1","2","""event"",""trial"",""time""
""fullscreenenter"",""1"",""111297""
","
","
","""event"",""trial"",""time""
""fullscreenenter"",""1"",""111297""
","
","","","","","","null","<div style=""font-size:60px;"">+</div>","null","","fixation","","","","","","","","","","","","","",""
"learning-trial","87","661696","0.0-9.0-2.0-1.0","1712","1","2","""event"",""trial"",""time""
""fullscreenenter"",""1"",""111297""
","
","
","""event"",""trial"",""time""
""fullscreenenter"",""1"",""111297""
","
","","","","","","1339","images/train3.png","","","learning","images/vehicles_choice3.png","images/vehicles_choice2.png","images/vehicles_choice1.png","[2,1,0]","2","0","1","images/vehicles_choice3.png","-1","vehicles","","train","1","0"
"html-keyboard-response","88","662197","0.0-9.0-2.0-0.1","1712","1","2","""event"",""trial"",""time""
""fullscreenenter"",""1"",""111297""
","
","
","""event"",""trial"",""time""
""fullscreenenter"",""1"",""111297""
","
","","","","","","null","<div style=""font-size:60px;"">+</div>","null","","fixation","","","","","","","","","","","","","",""
"learning-trial","89","666201","0.0-9.0-2.0-1.1","1712","1","2","""event"",""trial"",""time""
""fullscreenenter"",""1"",""111297""
","
","
","""event"",""trial"",""time""
""fullscreenenter"",""1"",""111297""
","
","","","","","","1614.2999999523163","images/boat1.png","","","learning","images/vehicles_choice2.png","images/vehicles_choice3.png","images/vehicles_choice1.png","[1,2,0]","0","2","2","images/vehicles_choice3.png","-1","vehicles","","boat","1","0"
"html-keyboard-response","90","666707","0.0-9.0-2.0-0.2","1712","1","2","""event"",""trial"",""time""
""fullscreenenter"",""1"",""111297""
","
","
","""event"",""trial"",""time""
""fullscreenenter"",""1"",""111297""
","
","","","","","","null","<div style=""font-size:60px;"">+</div>","null","","fixation","","","","","","","","","","","","","",""
"learning-trial","91","670715","0.0-9.0-2.0-1.2","1712","1","2","""event"",""trial"",""time""
""fullscreenenter"",""1"",""111297""
","
","
","""event"",""trial"",""time""
""fullscreenenter"",""1"",""111297""
","
","","","","","","1362","images/truck5.png","","","learning","images/vehicles_choice2.png","images/vehicles_choice1.png","images/vehicles_choice3.png","[1,0,2]","1","0","1","images/vehicles_choice2.png","1","vehicles","","truck","1","0"
"html-keyboard-response","92","671216","0.0-9.0-2.0-0.3","1712","1","2","""event"",""trial"",""time""
""fullscreenenter"",""1"",""111297""
","
","
","""event"",""trial"",""time""
""fullscreenenter"",""1"",""111297""
","
","","","","","","null","<div style=""font-size:60px;"">+</div>","null","","fixation","","","","","","","","","","","","","",""
"learning-trial","93","675221","0.0-9.0-2.0-1.3","1712","1","2","""event"",""trial"",""time""
""fullscreenenter"",""1"",""111297""
","
","
","""event"",""trial"",""time""
""fullscreenenter"",""1"",""111297""
","
","","","","","","2870.7999999523163","images/train4.png","","","learning","images/vehicles_choice3.png","images/vehicles_choice1.png","images/vehicles_choice2.png","[2,0,1]","2","0","2","images/vehicles_choice1.png","-1","vehicles","","train","1","0"
"html-keyboard-response","94","675722","0.0-9.0-2.0-0.4","1712","1","2","""event"",""trial"",""time""
""fullscreenenter"",""1"",""111297""
","
","
","""event"",""trial"",""time""
""fullscreenenter"",""1"",""111297""
","
","","","","","","null","<div style=""font-size:60px;"">+</div>","null","","fixation","","","","","","","","","","","","","",""
"learning-trial","95","679727","0.0-9.0-2.0-1.4","1712","1","2","""event"",""trial"",""time""
""fullscreenenter"",""1"",""111297""
","
","
","""event"",""trial"",""time""
""fullscreenenter"",""1"",""111297""
","
","","","","","","2036","images/boat1.png","","","learning","images/vehicles_choice2.png","images/vehicles_choice1.png","images/vehicles_choice3.png","[1,0,2]","0","1","1","images/vehicles_choice2.png","-1","vehicles","","boat","1","0"
"html-keyboard-response","96","680229","0.0-9.0-2.0-0.5","1712","1","2","""event"",""trial"",""time""
""fullscreenenter"",""1"",""111297""
","
","
","""event"",""trial"",""time""
""fullscreenenter"",""1"",""111297""
","
","","","","","","null","<div style=""font-size:60px;"">+</div>","null","","fixation","","","","","","","","","","","","","",""
"learning-trial","97","684234","0.0-9.0-2.0-1.5","1712","1","2","""event"",""trial"",""time""
""fullscreenenter"",""1"",""111297""
","
","
","""event"",""trial"",""time""
""fullscreenenter"",""1"",""111297""
","
","","","","","","955.3000000715256","images/boat1.png","","","learning","images/vehicles_choice1.png","images/vehicles_choice2.png","images/vehicles_choice3.png","[0,1,2]","0","0","1","images/vehicles_choice1.png","-1","vehicles","","boat","1","0"
"html-keyboard-response","98","684736","0.0-9.0-2.0-0.6","1712","1","2","""event"",""trial"",""time""
""fullscreenenter"",""1"",""111297""
","
","
","""event"",""trial"",""time""
""fullscreenenter"",""1"",""111297""
","
","","","","","","null","<div style=""font-size:60px;"">+</div>","null","","fixation","","","","","","","","","","","","","",""
"learning-trial","99","688741","0.0-9.0-2.0-1.6","1712","1","2","""event"",""trial"",""time""
""fullscreenenter"",""1"",""111297""
","
","
","""event"",""trial"",""time""
""fullscreenenter"",""1"",""111297""
","
","","","","","","1594.5","images/truck2.png","","","learning","images/vehicles_choice1.png","images/vehicles_choice3.png","images/vehicles_choice2.png","[0,2,1]","1","2","3","images/vehicles_choice2.png","1","vehicles","","truck","1","0"
"html-keyboard-response","100","689243","0.0-9.0-2.0-0.7","1712","1","2","""event"",""trial"",""time""
""fullscreenenter"",""1"",""111297""
","
","
","""event"",""trial"",""time""
""fullscreenenter"",""1"",""111297""
","
","","","","","","null","<div style=""font-size:60px;"">+</div>","null","","fixation","","","","","","","","","","","","","",""
"learning-trial","101","693251","0.0-9.0-2.0-1.7","1712","1","2","""event"",""trial"",""time""
""fullscreenenter"",""1"",""111297""
","
","
","""event"",""trial"",""time""
""fullscreenenter"",""1"",""111297""
","
","","","","","","1897.1000000238419","images/boat1.png","","","learning","images/vehicles_choice2.png","images/vehicles_choice1.png","images/vehicles_choice3.png","[1,0,2]","0","1","3","images/vehicles_choice3.png","-1","vehicles","","boat","1","0"
"html-keyboard-response","102","693754","0.0-9.0-2.0-0.8","1712","1","2","""event"",""trial"",""time""
""fullscreenenter"",""1"",""111297""
","
","
","""event"",""trial"",""time""
""fullscreenenter"",""1"",""111297""
","
","","","","","","null","<div style=""font-size:60px;"">+</div>","null","","fixation","","","","","","","","","","","","","",""
"learning-trial","103","697760","0.0-9.0-2.0-1.8","1712","1","2","""event"",""trial"",""time""
""fullscreenenter"",""1"",""111297""
","
","
","""event"",""trial"",""time""
""fullscreenenter"",""1"",""111297""
","
","","","","","","2656.9000000953674","images/train3.png","","","learning","images/vehicles_choice3.png","images/vehicles_choice2.png","images/vehicles_choice1.png","[2,1,0]","2","0","2","images/vehicles_choice2.png","-1","vehicles","","train","1","0"
"html-keyboard-response","104","698261","0.0-9.0-2.0-0.9","1712","1","2","""event"",""trial"",""time""
""fullscreenenter"",""1"",""111297""
","
","
","""event"",""trial"",""time""
""fullscreenenter"",""1"",""111297""
","
","","","","","","null","<div style=""font-size:60px;"">+</div>","null","","fixation","","","","","","","","","","","","","",""
"learning-trial","105","702267","0.0-9.0-2.0-1.9","1712","1","2","""event"",""trial"",""time""
""fullscreenenter"",""1"",""111297""
","
","
","""event"",""trial"",""time""
""fullscreenenter"",""1"",""111297""
","
","","","","","","1529.5999999046326","images/truck5.png","","","learning","images/vehicles_choice2.png","images/vehicles_choice1.png","images/vehicles_choice3.png","[1,0,2]","1","0","1","images/vehicles_choice2.png","-1","vehicles","","truck","1","0"
"html-keyboard-response","106","702768","0.0-9.0-2.0-0.10","1712","1","2","""event"",""trial"",""time""
""fullscreenenter"",""1"",""111297""
","
","
","""event"",""trial"",""time""
""fullscreenenter"",""1"",""111297""
","
","","","","","","null","<div style=""font-size:60px;"">+</div>","null","","fixation","","","","","","","","","","","","","",""
"learning-trial","107","706771","0.0-9.0-2.0-1.10","1712","1","2","""event"",""trial"",""time""
""fullscreenenter"",""1"",""111297""
","
","
","""event"",""trial"",""time""
""fullscreenenter"",""1"",""111297""
","
","","","","","","3755.5","images/boat4.png","","","learning","images/vehicles_choice3.png","images/vehicles_choice2.png","images/vehicles_choice1.png","[2,1,0]","0","2","3","images/vehicles_choice1.png","1","vehicles","","boat","1","0"
"html-keyboard-response","108","707274","0.0-9.0-2.0-0.11","1712","1","2","""event"",""trial"",""time""
""fullscreenenter"",""1"",""111297""
","
","
","""event"",""trial"",""time""
""fullscreenenter"",""1"",""111297""
","
","","","","","","null","<div style=""font-size:60px;"">+</div>","null","","fixation","","","","","","","","","","","","","",""
"learning-trial","109","711280","0.0-9.0-2.0-1.11","1712","1","2","""event"",""trial"",""time""
""fullscreenenter"",""1"",""111297""
","
","
","""event"",""trial"",""time""
""fullscreenenter"",""1"",""111297""
","
","","","","","","1375.6000000238419","images/truck5.png","","","learning","images/vehicles_choice1.png","images/vehicles_choice3.png","images/vehicles_choice2.png","[0,2,1]","1","2","3","images/vehicles_choice2.png","1","vehicles","","truck","1","0"
"html-keyboard-response","110","711785","0.0-9.0-2.0-0.12","1712","1","2","""event"",""trial"",""time""
""fullscreenenter"",""1"",""111297""
","
","
","""event"",""trial"",""time""
""fullscreenenter"",""1"",""111297""
","
","","","","","","null","<div style=""font-size:60px;"">+</div>","null","","fixation","","","","","","","","","","","","","",""
"learning-trial","111","715792","0.0-9.0-2.0-1.12","1712","1","2","""event"",""trial"",""time""
""fullscreenenter"",""1"",""111297""
","
","
","""event"",""trial"",""time""
""fullscreenenter"",""1"",""111297""
","
","","","","","","2233.9000000953674","images/train4.png","","","learning","images/vehicles_choice3.png","images/vehicles_choice2.png","images/vehicles_choice1.png","[2,1,0]","2","0","3","images/vehicles_choice1.png","-1","vehicles","","train","1","0"
"html-keyboard-response","112","716293","0.0-9.0-2.0-0.13","1712","1","2","""event"",""trial"",""time""
""fullscreenenter"",""1"",""111297""
","
","
","""event"",""trial"",""time""
""fullscreenenter"",""1"",""111297""
","
","","","","","","null","<div style=""font-size:60px;"">+</div>","null","","fixation","","","","","","","","","","","","","",""
"learning-trial","113","720298","0.0-9.0-2.0-1.13","1712","1","2","""event"",""trial"",""time""
""fullscreenenter"",""1"",""111297""
","
","
","""event"",""trial"",""time""
""fullscreenenter"",""1"",""111297""
","
","","","","","","988.6999999284744","images/train3.png","","","learning","images/vehicles_choice3.png","images/vehicles_choice2.png","images/vehicles_choice1.png","[2,1,0]","2","0","3","images/vehicles_choice1.png","-1","vehicles","","train","1","0"
"html-keyboard-response","114","720800","0.0-9.0-2.0-0.14","1712","1","2","""event"",""trial"",""time""
""fullscreenenter"",""1"",""111297""
","
","
","""event"",""trial"",""time""
""fullscreenenter"",""1"",""111297""
","
","","","","","","null","<div style=""font-size:60px;"">+</div>","null","","fixation","","","","","","","","","","","","","",""
"learning-trial","115","724805","0.0-9.0-2.0-1.14","1712","1","2","""event"",""trial"",""time""
""fullscreenenter"",""1"",""111297""
","
","
","""event"",""trial"",""time""
""fullscreenenter"",""1"",""111297""
","
","","","","","","1265.3999999761581","images/truck1.png","","","learning","images/vehicles_choice3.png","images/vehicles_choice1.png","images/vehicles_choice2.png","[2,0,1]","1","2","3","images/vehicles_choice2.png","1","vehicles","","truck","1","0"
"html-keyboard-response","116","725306","0.0-9.0-2.0-0.15","1712","1","2","""event"",""trial"",""time""
""fullscreenenter"",""1"",""111297""
","
","
","""event"",""trial"",""time""
""fullscreenenter"",""1"",""111297""
","
","","","","","","null","<div style=""font-size:60px;"">+</div>","null","","fixation","","","","","","","","","","","","","",""
"learning-trial","117","729312","0.0-9.0-2.0-1.15","1712","1","2","""event"",""trial"",""time""
""fullscreenenter"",""1"",""111297""
","
","
","""event"",""trial"",""time""
""fullscreenenter"",""1"",""111297""
","
","","","","","","982.6000000238419","images/train3.png","","","learning","images/vehicles_choice3.png","images/vehicles_choice1.png","images/vehicles_choice2.png","[2,0,1]","2","0","1","images/vehicles_choice3.png","1","vehicles","","train","1","0"
"html-keyboard-response","118","729813","0.0-9.0-2.0-0.16","1712","1","2","""event"",""trial"",""time""
""fullscreenenter"",""1"",""111297""
","
","
","""event"",""trial"",""time""
""fullscreenenter"",""1"",""111297""
","
","","","","","","null","<div style=""font-size:60px;"">+</div>","null","","fixation","","","","","","","","","","","","","",""
"learning-trial","119","733818","0.0-9.0-2.0-1.16","1712","1","2","""event"",""trial"",""time""
""fullscreenenter"",""1"",""111297""
","
","
","""event"",""trial"",""time""
""fullscreenenter"",""1"",""111297""
","
","","","","","","2659.4000000953674","images/boat1.png","","","learning","images/vehicles_choice3.png","images/vehicles_choice2.png","images/vehicles_choice1.png","[2,1,0]","0","2","3","images/vehicles_choice1.png","1","vehicles","","boat","1","0"
"html-keyboard-response","120","734319","0.0-9.0-2.0-0.17","1712","1","2","""event"",""trial"",""time""
""fullscreenenter"",""1"",""111297""
","
","
","""event"",""trial"",""time""
""fullscreenenter"",""1"",""111297""
","
","","","","","","null","<div style=""font-size:60px;"">+</div>","null","","fixation","","","","","","","","","","","","","",""
"learning-trial","121","738325","0.0-9.0-2.0-1.17","1712","1","2","""event"",""trial"",""time""
""fullscreenenter"",""1"",""111297""
","
","
","""event"",""trial"",""time""
""fullscreenenter"",""1"",""111297""
","
","","","","","","1049.2000000476837","images/truck1.png","","","learning","images/vehicles_choice1.png","images/vehicles_choice3.png","images/vehicles_choice2.png","[0,2,1]","1","2","3","images/vehicles_choice2.png","1","vehicles","","truck","1","0"
"html-keyboard-response","122","738826","0.0-9.0-2.0-0.18","1712","1","2","""event"",""trial"",""time""
""fullscreenenter"",""1"",""111297""
","
","
","""event"",""trial"",""time""
""fullscreenenter"",""1"",""111297""
","
","","","","","","null","<div style=""font-size:60px;"">+</div>","null","","fixation","","","","","","","","","","","","","",""
"learning-trial","123","742832","0.0-9.0-2.0-1.18","1712","1","2","""event"",""trial"",""time""
""fullscreenenter"",""1"",""111297""
","
","
","""event"",""trial"",""time""
""fullscreenenter"",""1"",""111297""
","
","","","","","","1855","images/boat4.png","","","learning","images/vehicles_choice3.png","images/vehicles_choice2.png","images/vehicles_choice1.png","[2,1,0]","0","2","3","images/vehicles_choice1.png","1","vehicles","","boat","1","0"
"html-keyboard-response","124","743333","0.0-9.0-2.0-0.19","1712","1","2","""event"",""trial"",""time""
""fullscreenenter"",""1"",""111297""
","
","
","""event"",""trial"",""time""
""fullscreenenter"",""1"",""111297""
","
","","","","","","null","<div style=""font-size:60px;"">+</div>","null","","fixation","","","","","","","","","","","","","",""
"learning-trial","125","747338","0.0-9.0-2.0-1.19","1712","1","2","""event"",""trial"",""time""
""fullscreenenter"",""1"",""111297""
","
","
","""event"",""trial"",""time""
""fullscreenenter"",""1"",""111297""
","
","","","","","","1007.7999999523163","images/train5.png","","","learning","images/vehicles_choice1.png","images/vehicles_choice2.png","images/vehicles_choice3.png","[0,1,2]","2","2","1","images/vehicles_choice1.png","-1","vehicles","","train","1","0"
"html-keyboard-response","126","747841","0.0-9.0-2.0-0.20","1712","1","2","""event"",""trial"",""time""
""fullscreenenter"",""1"",""111297""
","
","
","""event"",""trial"",""time""
""fullscreenenter"",""1"",""111297""
","
","","","","","","null","<div style=""font-size:60px;"">+</div>","null","","fixation","","","","","","","","","","","","","",""
"learning-trial","127","751845","0.0-9.0-2.0-1.20","1712","1","2","""event"",""trial"",""time""
""fullscreenenter"",""1"",""111297""
","
","
","""event"",""trial"",""time""
""fullscreenenter"",""1"",""111297""
","
","","","","","","909.8999999761581","images/truck5.png","","","learning","images/vehicles_choice2.png","images/vehicles_choice1.png","images/vehicles_choice3.png","[1,0,2]","1","0","1","images/vehicles_choice2.png","1","vehicles","","truck","1","0"
"html-keyboard-response","128","752351","0.0-9.0-2.0-0.21","1712","1","2","""event"",""trial"",""time""
""fullscreenenter"",""1"",""111297""
","
","
","""event"",""trial"",""time""
""fullscreenenter"",""1"",""111297""
","
","","","","","","null","<div style=""font-size:60px;"">+</div>","null","","fixation","","","","","","","","","","","","","",""
"learning-trial","129","756356","0.0-9.0-2.0-1.21","1712","1","2","""event"",""trial"",""time""
""fullscreenenter"",""1"",""111297""
","
","
","""event"",""trial"",""time""
""fullscreenenter"",""1"",""111297""
","
","","","","","","2443.5999999046326","images/boat5.png","","","learning","images/vehicles_choice1.png","images/vehicles_choice2.png","images/vehicles_choice3.png","[0,1,2]","0","0","2","images/vehicles_choice2.png","-1","vehicles","","boat","1","0"
"html-keyboard-response","130","756858","0.0-9.0-2.0-0.22","1712","1","2","""event"",""trial"",""time""
""fullscreenenter"",""1"",""111297""
","
","
","""event"",""trial"",""time""
""fullscreenenter"",""1"",""111297""
","
","","","","","","null","<div style=""font-size:60px;"">+</div>","null","","fixation","","","","","","","","","","","","","",""
"learning-trial","131","760863","0.0-9.0-2.0-1.22","1712","1","2","""event"",""trial"",""time""
""fullscreenenter"",""1"",""111297""
","
","
","""event"",""trial"",""time""
""fullscreenenter"",""1"",""111297""
","
","","","","","","1083.6999999284744","images/boat5.png","","","learning","images/vehicles_choice3.png","images/vehicles_choice1.png","images/vehicles_choice2.png","[2,0,1]","0","1","2","images/vehicles_choice1.png","1","vehicles","","boat","1","0"
"html-keyboard-response","132","761365","0.0-9.0-2.0-0.23","1712","1","2","""event"",""trial"",""time""
""fullscreenenter"",""1"",""111297""
","
","
","""event"",""trial"",""time""
""fullscreenenter"",""1"",""111297""
","
","","","","","","null","<div style=""font-size:60px;"">+</div>","null","","fixation","","","","","","","","","","","","","",""
"learning-trial","133","765370","0.0-9.0-2.0-1.23","1712","1","2","""event"",""trial"",""time""
""fullscreenenter"",""1"",""111297""
","
","
","""event"",""trial"",""time""
""fullscreenenter"",""1"",""111297""
","
","","","","","","1235.7000000476837","images/train4.png","","","learning","images/vehicles_choice3.png","images/vehicles_choice2.png","images/vehicles_choice1.png","[2,1,0]","2","0","1","images/vehicles_choice3.png","1","vehicles","","train","1","0"
"html-keyboard-response","134","765871","0.0-9.0-2.0-0.24","1712","1","2","""event"",""trial"",""time""
""fullscreenenter"",""1"",""111297""
","
","
","""event"",""trial"",""time""
""fullscreenenter"",""1"",""111297""
","
","","","","","","null","<div style=""font-size:60px;"">+</div>","null","","fixation","","","","","","","","","","","","","",""
"learning-trial","135","769876","0.0-9.0-2.0-1.24","1712","1","2","""event"",""trial"",""time""
""fullscreenenter"",""1"",""111297""
","
","
","""event"",""trial"",""time""
""fullscreenenter"",""1"",""111297""
","
","","","","","","903","images/truck2.png","","","learning","images/vehicles_choice1.png","images/vehicles_choice2.png","images/vehicles_choice3.png","[0,1,2]","1","1","2","images/vehicles_choice2.png","1","vehicles","","truck","1","0"
"html-keyboard-response","136","770378","0.0-9.0-2.0-0.25","1712","1","2","""event"",""trial"",""time""
""fullscreenenter"",""1"",""111297""
","
","
","""event"",""trial"",""time""
""fullscreenenter"",""1"",""111297""
","
","","","","","","null","<div style=""font-size:60px;"">+</div>","null","","fixation","","","","","","","","","","","","","",""
"learning-trial","137","774384","0.0-9.0-2.0-1.25","1712","1","2","""event"",""trial"",""time""
""fullscreenenter"",""1"",""111297""
","
","
","""event"",""trial"",""time""
""fullscreenenter"",""1"",""111297""
","
","","","","","","986.1000000238419","images/boat4.png","","","learning","images/vehicles_choice2.png","images/vehicles_choice1.png","images/vehicles_choice3.png","[1,0,2]","0","1","2","images/vehicles_choice1.png","1","vehicles","","boat","1","0"
"html-keyboard-response","138","774890","0.0-9.0-2.0-0.26","1712","1","2","""event"",""trial"",""time""
""fullscreenenter"",""1"",""111297""
","
","
","""event"",""trial"",""time""
""fullscreenenter"",""1"",""111297""
","
","","","","","","null","<div style=""font-size:60px;"">+</div>","null","","fixation","","","","","","","","","","","","","",""
"learning-trial","139","778895","0.0-9.0-2.0-1.26","1712","1","2","""event"",""trial"",""time""
""fullscreenenter"",""1"",""111297""
","
","
","""event"",""trial"",""time""
""fullscreenenter"",""1"",""111297""
","
","","","","","","949.8999999761581","images/train4.png","","","learning","images/vehicles_choice1.png","images/vehicles_choice2.png","images/vehicles_choice3.png","[0,1,2]","2","2","3","images/vehicles_choice3.png","1","vehicles","","train","1","0"
"html-keyboard-response","140","779396","0.0-9.0-2.0-0.27","1712","1","2","""event"",""trial"",""time""
""fullscreenenter"",""1"",""111297""
","
","
","""event"",""trial"",""time""
""fullscreenenter"",""1"",""111297""
","
","","","","","","null","<div style=""font-size:60px;"">+</div>","null","","fixation","","","","","","","","","","","","","",""
"learning-trial","141","783404","0.0-9.0-2.0-1.27","1712","1","2","""event"",""trial"",""time""
""fullscreenenter"",""1"",""111297""
","
","
","""event"",""trial"",""time""
""fullscreenenter"",""1"",""111297""
","
","","","","","","912.4000000953674","images/truck5.png","","","learning","images/vehicles_choice3.png","images/vehicles_choice2.png","images/vehicles_choice1.png","[2,1,0]","1","1","2","images/vehicles_choice2.png","1","vehicles","","truck","1","0"
"html-keyboard-response","142","783908","0.0-9.0-2.0-0.28","1712","1","2","""event"",""trial"",""time""
""fullscreenenter"",""1"",""111297""
","
","
","""event"",""trial"",""time""
""fullscreenenter"",""1"",""111297""
","
","","","","","","null","<div style=""font-size:60px;"">+</div>","null","","fixation","","","","","","","","","","","","","",""
"learning-trial","143","787912","0.0-9.0-2.0-1.28","1712","1","2","""event"",""trial"",""time""
""fullscreenenter"",""1"",""111297""
","
","
","""event"",""trial"",""time""
""fullscreenenter"",""1"",""111297""
","
","","","","","","1510.7000000476837","images/train4.png","","","learning","images/vehicles_choice1.png","images/vehicles_choice3.png","images/vehicles_choice2.png","[0,2,1]","2","1","2","images/vehicles_choice3.png","1","vehicles","","train","1","0"
"html-keyboard-response","144","788415","0.0-9.0-2.0-0.29","1712","1","2","""event"",""trial"",""time""
""fullscreenenter"",""1"",""111297""
","
","
","""event"",""trial"",""time""
""fullscreenenter"",""1"",""111297""
","
","","","","","","null","<div style=""font-size:60px;"">+</div>","null","","fixation","","","","","","","","","","","","","",""
"learning-trial","145","792420","0.0-9.0-2.0-1.29","1712","1","2","""event"",""trial"",""time""
""fullscreenenter"",""1"",""111297""
","
","
","""event"",""trial"",""time""
""fullscreenenter"",""1"",""111297""
","
","","","","","","2304.5","images/boat4.png","","","learning","images/vehicles_choice2.png","images/vehicles_choice1.png","images/vehicles_choice3.png","[1,0,2]","0","1","2","images/vehicles_choice1.png","1","vehicles","","boat","1","0"
"html-keyboard-response","146","792921","0.0-9.0-2.0-0.30","1712","1","2","""event"",""trial"",""time""
""fullscreenenter"",""1"",""111297""
","
","
","""event"",""trial"",""time""
""fullscreenenter"",""1"",""111297""
","
","","","","","","null","<div style=""font-size:60px;"">+</div>","null","","fixation","","","","","","","","","","","","","",""
"learning-trial","147","796930","0.0-9.0-2.0-1.30","1712","1","2","""event"",""trial"",""time""
""fullscreenenter"",""1"",""111297""
","
","
","""event"",""trial"",""time""
""fullscreenenter"",""1"",""111297""
","
","","","","","","996.6000000238419","images/truck2.png","","","learning","images/vehicles_choice1.png","images/vehicles_choice3.png","images/vehicles_choice2.png","[0,2,1]","1","2","3","images/vehicles_choice2.png","-1","vehicles","","truck","1","0"
"html-keyboard-response","148","797433","0.0-9.0-2.0-0.31","1712","1","2","""event"",""trial"",""time""
""fullscreenenter"",""1"",""111297""
","
","
","""event"",""trial"",""time""
""fullscreenenter"",""1"",""111297""
","
","","","","","","null","<div style=""font-size:60px;"">+</div>","null","","fixation","","","","","","","","","","","","","",""
"learning-trial","149","801439","0.0-9.0-2.0-1.31","1712","1","2","""event"",""trial"",""time""
""fullscreenenter"",""1"",""111297""
","
","
","""event"",""trial"",""time""
""fullscreenenter"",""1"",""111297""
","
","","","","","","664.6999999284744","images/truck2.png","","","learning","images/vehicles_choice1.png","images/vehicles_choice3.png","images/vehicles_choice2.png","[0,2,1]","1","2","3","images/vehicles_choice2.png","1","vehicles","","truck","1","0"
"html-keyboard-response","150","801940","0.0-9.0-2.0-0.32","1712","1","2","""event"",""trial"",""time""
""fullscreenenter"",""1"",""111297""
","
","
","""event"",""trial"",""time""
""fullscreenenter"",""1"",""111297""
","
","","","","","","null","<div style=""font-size:60px;"">+</div>","null","","fixation","","","","","","","","","","","","","",""
"learning-trial","151","805946","0.0-9.0-2.0-1.32","1712","1","2","""event"",""trial"",""time""
""fullscreenenter"",""1"",""111297""
","
","
","""event"",""trial"",""time""
""fullscreenenter"",""1"",""111297""
","
","","","","","","1841.7000000476837","images/train3.png","","","learning","images/vehicles_choice1.png","images/vehicles_choice2.png","images/vehicles_choice3.png","[0,1,2]","2","2","3","images/vehicles_choice3.png","1","vehicles","","train","1","0"
"html-keyboard-response","152","806447","0.0-9.0-2.0-0.33","1712","1","2","""event"",""trial"",""time""
""fullscreenenter"",""1"",""111297""
","
","
","""event"",""trial"",""time""
""fullscreenenter"",""1"",""111297""
","
","","","","","","null","<div style=""font-size:60px;"">+</div>","null","","fixation","","","","","","","","","","","","","",""
"learning-trial","153","810452","0.0-9.0-2.0-1.33","1712","1","2","""event"",""trial"",""time""
""fullscreenenter"",""1"",""111297""
","
","
","""event"",""trial"",""time""
""fullscreenenter"",""1"",""111297""
","
","","","","","","1030.2000000476837","images/boat4.png","","","learning","images/vehicles_choice2.png","images/vehicles_choice1.png","images/vehicles_choice3.png","[1,0,2]","0","1","2","images/vehicles_choice1.png","1","vehicles","","boat","1","0"
"html-keyboard-response","154","810953","0.0-9.0-2.0-0.34","1712","1","2","""event"",""trial"",""time""
""fullscreenenter"",""1"",""111297""
","
","
","""event"",""trial"",""time""
""fullscreenenter"",""1"",""111297""
","
","","","","","","null","<div style=""font-size:60px;"">+</div>","null","","fixation","","","","","","","","","","","","","",""
"learning-trial","155","814959","0.0-9.0-2.0-1.34","1712","1","2","""event"",""trial"",""time""
""fullscreenenter"",""1"",""111297""
","
","
","""event"",""trial"",""time""
""fullscreenenter"",""1"",""111297""
","
","","","","","","1090","images/train4.png","","","learning","images/vehicles_choice2.png","images/vehicles_choice3.png","images/vehicles_choice1.png","[1,2,0]","2","1","2","images/vehicles_choice3.png","1","vehicles","","train","1","0"
"html-keyboard-response","156","815460","0.0-9.0-2.0-0.35","1712","1","2","""event"",""trial"",""time""
""fullscreenenter"",""1"",""111297""
","
","
","""event"",""trial"",""time""
""fullscreenenter"",""1"",""111297""
","
","","","","","","null","<div style=""font-size:60px;"">+</div>","null","","fixation","","","","","","","","","","","","","",""
"learning-trial","157","819465","0.0-9.0-2.0-1.35","1712","1","2","""event"",""trial"",""time""
""fullscreenenter"",""1"",""111297""
","
","
","""event"",""trial"",""time""
""fullscreenenter"",""1"",""111297""
","
","","","","","","1924.6999999284744","images/train3.png","","","learning","images/vehicles_choice3.png","images/vehicles_choice2.png","images/vehicles_choice1.png","[2,1,0]","2","0","1","images/vehicles_choice3.png","1","vehicles","","train","1","0"
"html-keyboard-response","158","819967","0.0-9.0-2.0-0.36","1712","1","2","""event"",""trial"",""time""
""fullscreenenter"",""1"",""111297""
","
","
","""event"",""trial"",""time""
""fullscreenenter"",""1"",""111297""
","
","","","","","","null","<div style=""font-size:60px;"">+</div>","null","","fixation","","","","","","","","","","","","","",""
"learning-trial","159","823972","0.0-9.0-2.0-1.36","1712","1","2","""event"",""trial"",""time""
""fullscreenenter"",""1"",""111297""
","
","
","""event"",""trial"",""time""
""fullscreenenter"",""1"",""111297""
","
","","","","","","1428.7000000476837","images/train4.png","","","learning","images/vehicles_choice1.png","images/vehicles_choice3.png","images/vehicles_choice2.png","[0,2,1]","2","1","2","images/vehicles_choice3.png","1","vehicles","","train","1","0"
"html-keyboard-response","160","824473","0.0-9.0-2.0-0.37","1712","1","2","""event"",""trial"",""time""
""fullscreenenter"",""1"",""111297""
","
","
","""event"",""trial"",""time""
""fullscreenenter"",""1"",""111297""
","
","","","","","","null","<div style=""font-size:60px;"">+</div>","null","","fixation","","","","","","","","","","","","","",""
"learning-trial","161","828479","0.0-9.0-2.0-1.37","1712","1","2","""event"",""trial"",""time""
""fullscreenenter"",""1"",""111297""
","
","
","""event"",""trial"",""time""
""fullscreenenter"",""1"",""111297""
","
","","","","","","940.7000000476837","images/truck1.png","","","learning","images/vehicles_choice2.png","images/vehicles_choice1.png","images/vehicles_choice3.png","[1,0,2]","1","0","1","images/vehicles_choice2.png","1","vehicles","","truck","1","0"
"html-keyboard-response","162","828983","0.0-9.0-2.0-0.38","1712","1","2","""event"",""trial"",""time""
""fullscreenenter"",""1"",""111297""
","
","
","""event"",""trial"",""time""
""fullscreenenter"",""1"",""111297""
","
","","","","","","null","<div style=""font-size:60px;"">+</div>","null","","fixation","","","","","","","","","","","","","",""
"learning-trial","163","832991","0.0-9.0-2.0-1.38","1712","1","2","""event"",""trial"",""time""
""fullscreenenter"",""1"",""111297""
","
","
","""event"",""trial"",""time""
""fullscreenenter"",""1"",""111297""
","
","","","","","","1172.8999999761581","images/train5.png","","","learning","images/vehicles_choice2.png","images/vehicles_choice3.png","images/vehicles_choice1.png","[1,2,0]","2","1","2","images/vehicles_choice3.png","1","vehicles","","train","1","0"
"html-keyboard-response","164","833492","0.0-9.0-2.0-0.39","1712","1","2","""event"",""trial"",""time""
""fullscreenenter"",""1"",""111297""
","
","
","""event"",""trial"",""time""
""fullscreenenter"",""1"",""111297""
","
","","","","","","null","<div style=""font-size:60px;"">+</div>","null","","fixation","","","","","","","","","","","","","",""
"learning-trial","165","837497","0.0-9.0-2.0-1.39","1712","1","2","""event"",""trial"",""time""
""fullscreenenter"",""1"",""111297""
","
","
","""event"",""trial"",""time""
""fullscreenenter"",""1"",""111297""
","
","","","","","","940.6000000238419","images/truck2.png","","","learning","images/vehicles_choice3.png","images/vehicles_choice2.png","images/vehicles_choice1.png","[2,1,0]","1","1","2","images/vehicles_choice2.png","1","vehicles","","truck","1","0"
"html-keyboard-response","166","837998","0.0-9.0-2.0-0.40","1712","1","2","""event"",""trial"",""time""
""fullscreenenter"",""1"",""111297""
","
","
","""event"",""trial"",""time""
""fullscreenenter"",""1"",""111297""
","
","","","","","","null","<div style=""font-size:60px;"">+</div>","null","","fixation","","","","","","","","","","","","","",""
"learning-trial","167","842004","0.0-9.0-2.0-1.40","1712","1","2","""event"",""trial"",""time""
""fullscreenenter"",""1"",""111297""
","
","
","""event"",""trial"",""time""
""fullscreenenter"",""1"",""111297""
","
","","","","","","1592.3999999761581","images/train5.png","","","learning","images/vehicles_choice1.png","images/vehicles_choice2.png","images/vehicles_choice3.png","[0,1,2]","2","2","3","images/vehicles_choice3.png","1","vehicles","","train","1","0"
"html-keyboard-response","168","842505","0.0-9.0-2.0-0.41","1712","1","2","""event"",""trial"",""time""
""fullscreenenter"",""1"",""111297""
","
","
","""event"",""trial"",""time""
""fullscreenenter"",""1"",""111297""
","
","","","","","","null","<div style=""font-size:60px;"">+</div>","null","","fixation","","","","","","","","","","","","","",""
"learning-trial","169","846510","0.0-9.0-2.0-1.41","1712","1","2","""event"",""trial"",""time""
""fullscreenenter"",""1"",""111297""
","
","
","""event"",""trial"",""time""
""fullscreenenter"",""1"",""111297""
","
","","","","","","992.8999999761581","images/truck2.png","","","learning","images/vehicles_choice1.png","images/vehicles_choice2.png","images/vehicles_choice3.png","[0,1,2]","1","1","2","images/vehicles_choice2.png","1","vehicles","","truck","1","0"
"html-keyboard-response","170","847012","0.0-9.0-2.0-0.42","1712","1","2","""event"",""trial"",""time""
""fullscreenenter"",""1"",""111297""
","
","
","""event"",""trial"",""time""
""fullscreenenter"",""1"",""111297""
","
","","","","","","null","<div style=""font-size:60px;"">+</div>","null","","fixation","","","","","","","","","","","","","",""
"learning-trial","171","851017","0.0-9.0-2.0-1.42","1712","1","2","""event"",""trial"",""time""
""fullscreenenter"",""1"",""111297""
","
","
","""event"",""trial"",""time""
""fullscreenenter"",""1"",""111297""
","
","","","","","","956.5","images/boat5.png","","","learning","images/vehicles_choice2.png","images/vehicles_choice3.png","images/vehicles_choice1.png","[1,2,0]","0","2","3","images/vehicles_choice1.png","1","vehicles","","boat","1","0"
"html-keyboard-response","172","851518","0.0-9.0-2.0-0.43","1712","1","2","""event"",""trial"",""time""
""fullscreenenter"",""1"",""111297""
","
","
","""event"",""trial"",""time""
""fullscreenenter"",""1"",""111297""
","
","","","","","","null","<div style=""font-size:60px;"">+</div>","null","","fixation","","","","","","","","","","","","","",""
"learning-trial","173","855524","0.0-9.0-2.0-1.43","1712","1","2","""event"",""trial"",""time""
""fullscreenenter"",""1"",""111297""
","
","
","""event"",""trial"",""time""
""fullscreenenter"",""1"",""111297""
","
","","","","","","1107.9000000953674","images/truck1.png","","","learning","images/vehicles_choice2.png","images/vehicles_choice1.png","images/vehicles_choice3.png","[1,0,2]","1","0","1","images/vehicles_choice2.png","1","vehicles","","truck","1","0"
"html-keyboard-response","174","856025","0.0-9.0-2.0-0.44","1712","1","2","""event"",""trial"",""time""
""fullscreenenter"",""1"",""111297""
","
","
","""event"",""trial"",""time""
""fullscreenenter"",""1"",""111297""
","
","","","","","","null","<div style=""font-size:60px;"">+</div>","null","","fixation","","","","","","","","","","","","","",""
"learning-trial","175","860030","0.0-9.0-2.0-1.44","1712","1","2","""event"",""trial"",""time""
""fullscreenenter"",""1"",""111297""
","
","
","""event"",""trial"",""time""
""fullscreenenter"",""1"",""111297""
","
","","","","","","938.7999999523163","images/truck2.png","","","learning","images/vehicles_choice1.png","images/vehicles_choice2.png","images/vehicles_choice3.png","[0,1,2]","1","1","2","images/vehicles_choice2.png","1","vehicles","","truck","1","0"
"html-keyboard-response","176","860531","0.0-9.0-2.0-0.45","1712","1","2","""event"",""trial"",""time""
""fullscreenenter"",""1"",""111297""
","
","
","""event"",""trial"",""time""
""fullscreenenter"",""1"",""111297""
","
","","","","","","null","<div style=""font-size:60px;"">+</div>","null","","fixation","","","","","","","","","","","","","",""
"learning-trial","177","864537","0.0-9.0-2.0-1.45","1712","1","2","""event"",""trial"",""time""
""fullscreenenter"",""1"",""111297""
","
","
","""event"",""trial"",""time""
""fullscreenenter"",""1"",""111297""
","
","","","","","","1343.7000000476837","images/train5.png","","","learning","images/vehicles_choice1.png","images/vehicles_choice2.png","images/vehicles_choice3.png","[0,1,2]","2","2","3","images/vehicles_choice3.png","1","vehicles","","train","1","0"
"html-keyboard-response","178","865038","0.0-9.0-2.0-0.46","1712","1","2","""event"",""trial"",""time""
""fullscreenenter"",""1"",""111297""
","
","
","""event"",""trial"",""time""
""fullscreenenter"",""1"",""111297""
","
","","","","","","null","<div style=""font-size:60px;"">+</div>","null","","fixation","","","","","","","","","","","","","",""
"learning-trial","179","869043","0.0-9.0-2.0-1.46","1712","1","2","""event"",""trial"",""time""
""fullscreenenter"",""1"",""111297""
","
","
","""event"",""trial"",""time""
""fullscreenenter"",""1"",""111297""
","
","","","","","","800.3999999761581","images/boat1.png","","","learning","images/vehicles_choice1.png","images/vehicles_choice2.png","images/vehicles_choice3.png","[0,1,2]","0","0","1","images/vehicles_choice1.png","1","vehicles","","boat","1","0"
"html-keyboard-response","180","869545","0.0-9.0-2.0-0.47","1712","1","2","""event"",""trial"",""time""
""fullscreenenter"",""1"",""111297""
","
","
","""event"",""trial"",""time""
""fullscreenenter"",""1"",""111297""
","
","","","","","","null","<div style=""font-size:60px;"">+</div>","null","","fixation","","","","","","","","","","","","","",""
"learning-trial","181","873550","0.0-9.0-2.0-1.47","1712","1","2","""event"",""trial"",""time""
""fullscreenenter"",""1"",""111297""
","
","
","""event"",""trial"",""time""
""fullscreenenter"",""1"",""111297""
","
","","","","","","903.2999999523163","images/train4.png","","","learning","images/vehicles_choice3.png","images/vehicles_choice2.png","images/vehicles_choice1.png","[2,1,0]","2","0","1","images/vehicles_choice3.png","1","vehicles","","train","1","0"
"html-keyboard-response","182","874056","0.0-9.0-2.0-0.48","1712","1","2","""event"",""trial"",""time""
""fullscreenenter"",""1"",""111297""
","
","
","""event"",""trial"",""time""
""fullscreenenter"",""1"",""111297""
","
","","","","","","null","<div style=""font-size:60px;"">+</div>","null","","fixation","","","","","","","","","","","","","",""
"learning-trial","183","878062","0.0-9.0-2.0-1.48","1712","1","2","""event"",""trial"",""time""
""fullscreenenter"",""1"",""111297""
","
","
","""event"",""trial"",""time""
""fullscreenenter"",""1"",""111297""
","
","","","","","","1779.6000000238419","images/boat5.png","","","learning","images/vehicles_choice2.png","images/vehicles_choice3.png","images/vehicles_choice1.png","[1,2,0]","0","2","3","images/vehicles_choice1.png","1","vehicles","","boat","1","0"
"html-keyboard-response","184","878563","0.0-9.0-2.0-0.49","1712","1","2","""event"",""trial"",""time""
""fullscreenenter"",""1"",""111297""
","
","
","""event"",""trial"",""time""
""fullscreenenter"",""1"",""111297""
","
","","","","","","null","<div style=""font-size:60px;"">+</div>","null","","fixation","","","","","","","","","","","","","",""
"learning-trial","185","882569","0.0-9.0-2.0-1.49","1712","1","2","""event"",""trial"",""time""
""fullscreenenter"",""1"",""111297""
","
","
","""event"",""trial"",""time""
""fullscreenenter"",""1"",""111297""
","
","","","","","","1301","images/truck1.png","","","learning","images/vehicles_choice1.png","images/vehicles_choice3.png","images/vehicles_choice2.png","[0,2,1]","1","2","3","images/vehicles_choice2.png","-1","vehicles","","truck","1","0"
"html-keyboard-response","186","883070","0.0-9.0-2.0-0.50","1712","1","2","""event"",""trial"",""time""
""fullscreenenter"",""1"",""111297""
","
","
","""event"",""trial"",""time""
""fullscreenenter"",""1"",""111297""
","
","","","","","","null","<div style=""font-size:60px;"">+</div>","null","","fixation","","","","","","","","","","","","","",""
"learning-trial","187","887075","0.0-9.0-2.0-1.50","1712","1","2","""event"",""trial"",""time""
""fullscreenenter"",""1"",""111297""
","
","
","""event"",""trial"",""time""
""fullscreenenter"",""1"",""111297""
","
","","","","","","1074.7000000476837","images/train5.png","","","learning","images/vehicles_choice1.png","images/vehicles_choice3.png","images/vehicles_choice2.png","[0,2,1]","2","1","2","images/vehicles_choice3.png","1","vehicles","","train","1","0"
"html-keyboard-response","188","887576","0.0-9.0-2.0-0.51","1712","1","2","""event"",""trial"",""time""
""fullscreenenter"",""1"",""111297""
","
","
","""event"",""trial"",""time""
""fullscreenenter"",""1"",""111297""
","
","","","","","","null","<div style=""font-size:60px;"">+</div>","null","","fixation","","","","","","","","","","","","","",""
"learning-trial","189","891582","0.0-9.0-2.0-1.51","1712","1","2","""event"",""trial"",""time""
""fullscreenenter"",""1"",""111297""
","
","
","""event"",""trial"",""time""
""fullscreenenter"",""1"",""111297""
","
","","","","","","807.8999999761581","images/train5.png","","","learning","images/vehicles_choice1.png","images/vehicles_choice2.png","images/vehicles_choice3.png","[0,1,2]","2","2","3","images/vehicles_choice3.png","1","vehicles","","train","1","0"
"html-keyboard-response","190","892083","0.0-9.0-2.0-0.52","1712","1","2","""event"",""trial"",""time""
""fullscreenenter"",""1"",""111297""
","
","
","""event"",""trial"",""time""
""fullscreenenter"",""1"",""111297""
","
","","","","","","null","<div style=""font-size:60px;"">+</div>","null","","fixation","","","","","","","","","","","","","",""
"learning-trial","191","896091","0.0-9.0-2.0-1.52","1712","1","2","""event"",""trial"",""time""
""fullscreenenter"",""1"",""111297""
","
","
","""event"",""trial"",""time""
""fullscreenenter"",""1"",""111297""
","
","","","","","","854.3999999761581","images/boat5.png","","","learning","images/vehicles_choice3.png","images/vehicles_choice1.png","images/vehicles_choice2.png","[2,0,1]","0","1","2","images/vehicles_choice1.png","-1","vehicles","","boat","1","0"
"html-keyboard-response","192","896595","0.0-9.0-2.0-0.53","1712","1","2","""event"",""trial"",""time""
""fullscreenenter"",""1"",""111297""
","
","
","""event"",""trial"",""time""
""fullscreenenter"",""1"",""111297""
","
","","","","","","null","<div style=""font-size:60px;"">+</div>","null","","fixation","","","","","","","","","","","","","",""
"learning-trial","193","900600","0.0-9.0-2.0-1.53","1712","1","2","""event"",""trial"",""time""
""fullscreenenter"",""1"",""111297""
","
","
","""event"",""trial"",""time""
""fullscreenenter"",""1"",""111297""
","
","","","","","","870.5999999046326","images/train5.png","","","learning","images/vehicles_choice1.png","images/vehicles_choice2.png","images/vehicles_choice3.png","[0,1,2]","2","2","3","images/vehicles_choice3.png","1","vehicles","","train","1","0"
"html-keyboard-response","194","901102","0.0-9.0-2.0-0.54","1712","1","2","""event"",""trial"",""time""
""fullscreenenter"",""1"",""111297""
","
","
","""event"",""trial"",""time""
""fullscreenenter"",""1"",""111297""
","
","","","","","","null","<div style=""font-size:60px;"">+</div>","null","","fixation","","","","","","","","","","","","","",""
"learning-trial","195","905107","0.0-9.0-2.0-1.54","1712","1","2","""event"",""trial"",""time""
""fullscreenenter"",""1"",""111297""
","
","
","""event"",""trial"",""time""
""fullscreenenter"",""1"",""111297""
","
","","","","","","700.8999999761581","images/truck1.png","","","learning","images/vehicles_choice2.png","images/vehicles_choice1.png","images/vehicles_choice3.png","[1,0,2]","1","0","1","images/vehicles_choice2.png","1","vehicles","","truck","1","0"
"html-keyboard-response","196","905608","0.0-9.0-2.0-0.55","1712","1","2","""event"",""trial"",""time""
""fullscreenenter"",""1"",""111297""
","
","
","""event"",""trial"",""time""
""fullscreenenter"",""1"",""111297""
","
","","","","","","null","<div style=""font-size:60px;"">+</div>","null","","fixation","","","","","","","","","","","","","",""
"learning-trial","197","909614","0.0-9.0-2.0-1.55","1712","1","2","""event"",""trial"",""time""
""fullscreenenter"",""1"",""111297""
","
","
","""event"",""trial"",""time""
""fullscreenenter"",""1"",""111297""
","
","","","","","","883.1000000238419","images/boat1.png","","","learning","images/vehicles_choice2.png","images/vehicles_choice1.png","images/vehicles_choice3.png","[1,0,2]","0","1","2","images/vehicles_choice1.png","1","vehicles","","boat","1","0"
"html-keyboard-response","198","910115","0.0-9.0-2.0-0.56","1712","1","2","""event"",""trial"",""time""
""fullscreenenter"",""1"",""111297""
","
","
","""event"",""trial"",""time""
""fullscreenenter"",""1"",""111297""
","
","","","","","","null","<div style=""font-size:60px;"">+</div>","null","","fixation","","","","","","","","","","","","","",""
"learning-trial","199","914120","0.0-9.0-2.0-1.56","1712","1","2","""event"",""trial"",""time""
""fullscreenenter"",""1"",""111297""
","
","
","""event"",""trial"",""time""
""fullscreenenter"",""1"",""111297""
","
","","","","","","915.5","images/truck5.png","","","learning","images/vehicles_choice1.png","images/vehicles_choice2.png","images/vehicles_choice3.png","[0,1,2]","1","1","2","images/vehicles_choice2.png","1","vehicles","","truck","1","0"
"html-keyboard-response","200","914621","0.0-9.0-2.0-0.57","1712","1","2","""event"",""trial"",""time""
""fullscreenenter"",""1"",""111297""
","
","
","""event"",""trial"",""time""
""fullscreenenter"",""1"",""111297""
","
","","","","","","null","<div style=""font-size:60px;"">+</div>","null","","fixation","","","","","","","","","","","","","",""
"learning-trial","201","918627","0.0-9.0-2.0-1.57","1712","1","2","""event"",""trial"",""time""
""fullscreenenter"",""1"",""111297""
","
","
","""event"",""trial"",""time""
""fullscreenenter"",""1"",""111297""
","
","","","","","","815.3999999761581","images/boat1.png","","","learning","images/vehicles_choice3.png","images/vehicles_choice2.png","images/vehicles_choice1.png","[2,1,0]","0","2","3","images/vehicles_choice1.png","-1","vehicles","","boat","1","0"
"html-keyboard-response","202","919128","0.0-9.0-2.0-0.58","1712","1","2","""event"",""trial"",""time""
""fullscreenenter"",""1"",""111297""
","
","
","""event"",""trial"",""time""
""fullscreenenter"",""1"",""111297""
","
","","","","","","null","<div style=""font-size:60px;"">+</div>","null","","fixation","","","","","","","","","","","","","",""
"learning-trial","203","923135","0.0-9.0-2.0-1.58","1712","1","2","""event"",""trial"",""time""
""fullscreenenter"",""1"",""111297""
","
","
","""event"",""trial"",""time""
""fullscreenenter"",""1"",""111297""
","
","","","","","","864","images/truck5.png","","","learning","images/vehicles_choice1.png","images/vehicles_choice2.png","images/vehicles_choice3.png","[0,1,2]","1","1","2","images/vehicles_choice2.png","1","vehicles","","truck","1","0"
"html-keyboard-response","204","923640","0.0-9.0-2.0-0.59","1712","1","2","""event"",""trial"",""time""
""fullscreenenter"",""1"",""111297""
","
","
","""event"",""trial"",""time""
""fullscreenenter"",""1"",""111297""
","
","","","","","","null","<div style=""font-size:60px;"">+</div>","null","","fixation","","","","","","","","","","","","","",""
"learning-trial","205","927646","0.0-9.0-2.0-1.59","1712","1","2","""event"",""trial"",""time""
""fullscreenenter"",""1"",""111297""
","
","
","""event"",""trial"",""time""
""fullscreenenter"",""1"",""111297""
","
","","","","","","1097.7999999523163","images/train3.png","","","learning","images/vehicles_choice1.png","images/vehicles_choice3.png","images/vehicles_choice2.png","[0,2,1]","2","1","2","images/vehicles_choice3.png","1","vehicles","","train","1","0"
"html-keyboard-response","206","928149","0.0-9.0-2.0-0.60","1712","1","2","""event"",""trial"",""time""
""fullscreenenter"",""1"",""111297""
","
","
","""event"",""trial"",""time""
""fullscreenenter"",""1"",""111297""
","
","","","","","","null","<div style=""font-size:60px;"">+</div>","null","","fixation","","","","","","","","","","","","","",""
"learning-trial","207","932152","0.0-9.0-2.0-1.60","1712","1","2","""event"",""trial"",""time""
""fullscreenenter"",""1"",""111297""
","
","
","""event"",""trial"",""time""
""fullscreenenter"",""1"",""111297""
","
","","","","","","792.3999999761581","images/truck1.png","","","learning","images/vehicles_choice1.png","images/vehicles_choice2.png","images/vehicles_choice3.png","[0,1,2]","1","1","2","images/vehicles_choice2.png","1","vehicles","","truck","1","0"
"html-keyboard-response","208","932658","0.0-9.0-2.0-0.61","1712","1","2","""event"",""trial"",""time""
""fullscreenenter"",""1"",""111297""
","
","
","""event"",""trial"",""time""
""fullscreenenter"",""1"",""111297""
","
","","","","","","null","<div style=""font-size:60px;"">+</div>","null","","fixation","","","","","","","","","","","","","",""
"learning-trial","209","936663","0.0-9.0-2.0-1.61","1712","1","2","""event"",""trial"",""time""
""fullscreenenter"",""1"",""111297""
","
","
","""event"",""trial"",""time""
""fullscreenenter"",""1"",""111297""
","
","","","","","","1349.8999999761581","images/boat4.png","","","learning","images/vehicles_choice1.png","images/vehicles_choice3.png","images/vehicles_choice2.png","[0,2,1]","0","0","1","images/vehicles_choice1.png","1","vehicles","","boat","1","0"
"html-keyboard-response","210","937165","0.0-9.0-2.0-0.62","1712","1","2","""event"",""trial"",""time""
""fullscreenenter"",""1"",""111297""
","
","
","""event"",""trial"",""time""
""fullscreenenter"",""1"",""111297""
","
","","","","","","null","<div style=""font-size:60px;"">+</div>","null","","fixation","","","","","","","","","","","","","",""
"learning-trial","211","941168","0.0-9.0-2.0-1.62","1712","1","2","""event"",""trial"",""time""
""fullscreenenter"",""1"",""111297""
","
","
","""event"",""trial"",""time""
""fullscreenenter"",""1"",""111297""
","
","","","","","","1370.2000000476837","images/boat5.png","","","learning","images/vehicles_choice2.png","images/vehicles_choice1.png","images/vehicles_choice3.png","[1,0,2]","0","1","3","images/vehicles_choice3.png","-1","vehicles","","boat","1","0"
"html-keyboard-response","212","941672","0.0-9.0-2.0-0.63","1712","1","2","""event"",""trial"",""time""
""fullscreenenter"",""1"",""111297""
","
","
","""event"",""trial"",""time""
""fullscreenenter"",""1"",""111297""
","
","","","","","","null","<div style=""font-size:60px;"">+</div>","null","","fixation","","","","","","","","","","","","","",""
"learning-trial","213","945677","0.0-9.0-2.0-1.63","1712","1","2","""event"",""trial"",""time""
""fullscreenenter"",""1"",""111297""
","
","
","""event"",""trial"",""time""
""fullscreenenter"",""1"",""111297""
","
","","","","","","1349.5","images/truck1.png","","","learning","images/vehicles_choice2.png","images/vehicles_choice1.png","images/vehicles_choice3.png","[1,0,2]","1","0","1","images/vehicles_choice2.png","1","vehicles","","truck","1","0"
"html-keyboard-response","214","946182","0.0-9.0-2.0-0.64","1712","1","2","""event"",""trial"",""time""
""fullscreenenter"",""1"",""111297""
","
","
","""event"",""trial"",""time""
""fullscreenenter"",""1"",""111297""
","
","","","","","","null","<div style=""font-size:60px;"">+</div>","null","","fixation","","","","","","","","","","","","","",""
"learning-trial","215","950189","0.0-9.0-2.0-1.64","1712","1","2","""event"",""trial"",""time""
""fullscreenenter"",""1"",""111297""
","
","
","""event"",""trial"",""time""
""fullscreenenter"",""1"",""111297""
","
","","","","","","1145","images/boat4.png","","","learning","images/vehicles_choice1.png","images/vehicles_choice2.png","images/vehicles_choice3.png","[0,1,2]","0","0","1","images/vehicles_choice1.png","1","vehicles","","boat","1","0"
"html-keyboard-response","216","950694","0.0-9.0-2.0-0.65","1712","1","2","""event"",""trial"",""time""
""fullscreenenter"",""1"",""111297""
","
","
","""event"",""trial"",""time""
""fullscreenenter"",""1"",""111297""
","
","","","","","","null","<div style=""font-size:60px;"">+</div>","null","","fixation","","","","","","","","","","","","","",""
"learning-trial","217","954701","0.0-9.0-2.0-1.65","1712","1","2","""event"",""trial"",""time""
""fullscreenenter"",""1"",""111297""
","
","
","""event"",""trial"",""time""
""fullscreenenter"",""1"",""111297""
","
","","","","","","972.8000000715256","images/train5.png","","","learning","images/vehicles_choice1.png","images/vehicles_choice3.png","images/vehicles_choice2.png","[0,2,1]","2","1","2","images/vehicles_choice3.png","1","vehicles","","train","1","0"
"html-keyboard-response","218","955202","0.0-9.0-2.0-0.66","1712","1","2","""event"",""trial"",""time""
""fullscreenenter"",""1"",""111297""
","
","
","""event"",""trial"",""time""
""fullscreenenter"",""1"",""111297""
","
","","","","","","null","<div style=""font-size:60px;"">+</div>","null","","fixation","","","","","","","","","","","","","",""
"learning-trial","219","959208","0.0-9.0-2.0-1.66","1712","1","2","""event"",""trial"",""time""
""fullscreenenter"",""1"",""111297""
","
","
","""event"",""trial"",""time""
""fullscreenenter"",""1"",""111297""
","
","","","","","","1424","images/boat5.png","","","learning","images/vehicles_choice3.png","images/vehicles_choice2.png","images/vehicles_choice1.png","[2,1,0]","0","2","2","images/vehicles_choice2.png","-1","vehicles","","boat","1","0"
"html-keyboard-response","220","959709","0.0-9.0-2.0-0.67","1712","1","2","""event"",""trial"",""time""
""fullscreenenter"",""1"",""111297""
","
","
","""event"",""trial"",""time""
""fullscreenenter"",""1"",""111297""
","
","","","","","","null","<div style=""font-size:60px;"">+</div>","null","","fixation","","","","","","","","","","","","","",""
"learning-trial","221","963714","0.0-9.0-2.0-1.67","1712","1","2","""event"",""trial"",""time""
""fullscreenenter"",""1"",""111297""
","
","
","""event"",""trial"",""time""
""fullscreenenter"",""1"",""111297""
","
","","","","","","1382.3000000715256","images/truck5.png","","","learning","images/vehicles_choice1.png","images/vehicles_choice3.png","images/vehicles_choice2.png","[0,2,1]","1","2","3","images/vehicles_choice2.png","1","vehicles","","truck","1","0"
"html-keyboard-response","222","964215","0.0-9.0-2.0-0.68","1712","1","2","""event"",""trial"",""time""
""fullscreenenter"",""1"",""111297""
","
","
","""event"",""trial"",""time""
""fullscreenenter"",""1"",""111297""
","
","","","","","","null","<div style=""font-size:60px;"">+</div>","null","","fixation","","","","","","","","","","","","","",""
"learning-trial","223","968221","0.0-9.0-2.0-1.68","1712","1","2","""event"",""trial"",""time""
""fullscreenenter"",""1"",""111297""
","
","
","""event"",""trial"",""time""
""fullscreenenter"",""1"",""111297""
","
","","","","","","944.8999999761581","images/train3.png","","","learning","images/vehicles_choice3.png","images/vehicles_choice1.png","images/vehicles_choice2.png","[2,0,1]","2","0","1","images/vehicles_choice3.png","1","vehicles","","train","1","0"
"html-keyboard-response","224","968722","0.0-9.0-2.0-0.69","1712","1","2","""event"",""trial"",""time""
""fullscreenenter"",""1"",""111297""
","
","
","""event"",""trial"",""time""
""fullscreenenter"",""1"",""111297""
","
","","","","","","null","<div style=""font-size:60px;"">+</div>","null","","fixation","","","","","","","","","","","","","",""
"learning-trial","225","972725","0.0-9.0-2.0-1.69","1712","1","2","""event"",""trial"",""time""
""fullscreenenter"",""1"",""111297""
","
","
","""event"",""trial"",""time""
""fullscreenenter"",""1"",""111297""
","
","","","","","","841.8999999761581","images/truck2.png","","","learning","images/vehicles_choice3.png","images/vehicles_choice1.png","images/vehicles_choice2.png","[2,0,1]","1","2","3","images/vehicles_choice2.png","1","vehicles","","truck","1","0"
"html-keyboard-response","226","973229","0.0-9.0-2.0-0.70","1712","1","2","""event"",""trial"",""time""
""fullscreenenter"",""1"",""111297""
","
","
","""event"",""trial"",""time""
""fullscreenenter"",""1"",""111297""
","
","","","","","","null","<div style=""font-size:60px;"">+</div>","null","","fixation","","","","","","","","","","","","","",""
"learning-trial","227","977234","0.0-9.0-2.0-1.70","1712","1","2","""event"",""trial"",""time""
""fullscreenenter"",""1"",""111297""
","
","
","""event"",""trial"",""time""
""fullscreenenter"",""1"",""111297""
","
","","","","","","1603.8000000715256","images/boat5.png","","","learning","images/vehicles_choice1.png","images/vehicles_choice3.png","images/vehicles_choice2.png","[0,2,1]","0","0","1","images/vehicles_choice1.png","1","vehicles","","boat","1","0"
"html-keyboard-response","228","977735","0.0-9.0-2.0-0.71","1712","1","2","""event"",""trial"",""time""
""fullscreenenter"",""1"",""111297""
","
","
","""event"",""trial"",""time""
""fullscreenenter"",""1"",""111297""
","
","","","","","","null","<div style=""font-size:60px;"">+</div>","null","","fixation","","","","","","","","","","","","","",""
"learning-trial","229","981741","0.0-9.0-2.0-1.71","1712","1","2","""event"",""trial"",""time""
""fullscreenenter"",""1"",""111297""
","
","
","""event"",""trial"",""time""
""fullscreenenter"",""1"",""111297""
","
","","","","","","1381.8999999761581","images/boat4.png","","","learning","images/vehicles_choice2.png","images/vehicles_choice1.png","images/vehicles_choice3.png","[1,0,2]","0","1","2","images/vehicles_choice1.png","1","vehicles","","boat","1","0"
"html-button-response","230","984272","0.0-9.0-3.0","1712","1","2","""event"",""trial"",""time""
""fullscreenenter"",""1"",""111297""
","
","
","""event"",""trial"",""time""
""fullscreenenter"",""1"",""111297""
","
","","","","","","2529.2000000476837","<p> You have completed the round! <p> In this round, you earned 36 points! </p>","0","","break","","","","","","","","","","","","","",""
"html-button-response","231","985443","0.0-10.0","1712","1","2","""event"",""trial"",""time""
""fullscreenenter"",""1"",""111297""
","
","
","""event"",""trial"",""time""
""fullscreenenter"",""1"",""111297""
","
","","","","","","1169.7999999523163","<p> Now it's time to play another round. </p>","0","","transition_screen","","","","","","","","","","","","","",""
"preload","232","993032","0.0-11.0-0.0","1712","1","2","""event"",""trial"",""time""
""fullscreenenter"",""1"",""111297""
","
","
","""event"",""trial"",""time""
""fullscreenenter"",""1"",""111297""
","
","true","false","[]","[]","[]","","","","","","","","","","","","","","","","","","",""
"learning-instructions","233","1000650","0.0-11.0-1.0-0.0","1712","1","2","""event"",""trial"",""time""
""fullscreenenter"",""1"",""111297""
","
","
","""event"",""trial"",""time""
""fullscreenenter"",""1"",""111297""
","
","","","","","","1089.8999999761581","<p> Your goal in this round is to buy different types of fruits. </p><p> You will try to purchase many fruits from different stores. </p></div>","","0","instructions","","","","","","","","","","","","","",""
"learning-instructions","234","1009860","0.0-11.0-1.0-0.1","1712","1","2","""event"",""trial"",""time""
""fullscreenenter"",""1"",""111297""
","
","
","""event"",""trial"",""time""
""fullscreenenter"",""1"",""111297""
","
