"trial_type","trial_index","time_elapsed","internal_node_id","subject_id","condition","task_version","interactions","blur_events","focus_events","fullscreenenter_events","fullscreenexit_events","success","timeout","failed_images","failed_audio","failed_video","rt","stimulus","response","button_pressed","task_part","left_choice","middle_choice","right_choice","choice_positions","correct_response","correct_position","key_press","option_selected","points","task_block","correct","stim_cat","block_condition","block_number"
"pavlovia","0","8","0.0-0.0","1439","2","2","""event"",""trial"",""time""
""fullscreenenter"",""1"",""25119""
","
","
","""event"",""trial"",""time""
""fullscreenenter"",""1"",""25119""
","
","","","","","","","","","","","","","","","","","","","","","","","",""
"fullscreen","1","26096","0.0-1.0","1439","2","2","""event"",""trial"",""time""
""fullscreenenter"",""1"",""25119""
","
","
","""event"",""trial"",""time""
""fullscreenenter"",""1"",""25119""
","
","true","","","","","","","","","","","","","","","","","","","","","","",""
"preload","2","33504","0.0-2.0","1439","2","2","""event"",""trial"",""time""
""fullscreenenter"",""1"",""25119""
","
","
","""event"",""trial"",""time""
""fullscreenenter"",""1"",""25119""
","
","true","false","[]","[]","[]","","","","","","","","","","","","","","","","","","",""
"audio-keyboard-response","3","38297","0.0-3.0","1439","2","2","""event"",""trial"",""time""
""fullscreenenter"",""1"",""25119""
","
","
","""event"",""trial"",""time""
""fullscreenenter"",""1"",""25119""
","
","","","","","","4789.333333333333","audio/beep_loop.wav"," ","","","","","","","","","","","","","","","",""
"audio-button-response","4","41575","0.0-4.0","1439","2","2","""event"",""trial"",""time""
""fullscreenenter"",""1"",""25119""
","
","
","""event"",""trial"",""time""
""fullscreenenter"",""1"",""25119""
","
","","","","","","3251","audio/shark.wav","4","","","","","","","","","","","","","","","",""
"audio-button-response","5","44539","0.0-5.0","1439","2","2","""event"",""trial"",""time""
""fullscreenenter"",""1"",""25119""
","
","
","""event"",""trial"",""time""
""fullscreenenter"",""1"",""25119""
","
","","","","","","1939","audio/turtle.wav","1","","","","","","","","","","","","","","","",""
"preload","6","52379","0.0-6.0","1439","2","2","""event"",""trial"",""time""
""fullscreenenter"",""1"",""25119""
","
","
","""event"",""trial"",""time""
""fullscreenenter"",""1"",""25119""
","
","true","false","[]","[]","[]","","","","","","","","","","","","","","","","","","",""
"html-keyboard-response","7","56352","0.0-7.0","1439","2","2","""event"",""trial"",""time""
""fullscreenenter"",""1"",""25119""
","
","
","""event"",""trial"",""time""
""fullscreenenter"",""1"",""25119""
","
","","","","","","3969.4000000059605","Welcome to the experiment. Press any key to begin and to advance the instructions.","f","","","","","","","","","","","","","","","",""
"learning-instructions","8","65499","0.0-8.0-0.0-0.0","1439","2","2","""event"",""trial"",""time""
""fullscreenenter"",""1"",""25119""
","
","
","""event"",""trial"",""time""
""fullscreenenter"",""1"",""25119""
","
","","","","","","1387.199999988079","<p> Welcome! Today you are going to play 6 different rounds of a decision-making game. </p><p> Use the mouse to click next to continue. </p>","","0","instructions","","","","","","","","","","","","","",""
"learning-instructions","9","70057","0.0-8.0-0.0-0.1","1439","2","2","""event"",""trial"",""time""
""fullscreenenter"",""1"",""25119""
","
","
","""event"",""trial"",""time""
""fullscreenenter"",""1"",""25119""
","
","","","","","","1547.0999999940395","<p> You will start with a practice round to learn the rules. </p>","","0","instructions","","","","","","","","","","","","","",""
"learning-instructions","10","78901","0.0-8.0-0.0-0.2","1439","2","2","""event"",""trial"",""time""
""fullscreenenter"",""1"",""25119""
","
","
","""event"",""trial"",""time""
""fullscreenenter"",""1"",""25119""
","
","","","","","","1089.699999988079","<p> Your goal in this round is to deliver sports equipment to three different parks. </p><p> You will need to deliver many types of equipment. </p></div>","","0","instructions","","","","","","","","","","","","","",""
"learning-instructions","11","94040","0.0-8.0-0.0-0.3","1439","2","2","""event"",""trial"",""time""
""fullscreenenter"",""1"",""25119""
","
","
","""event"",""trial"",""time""
""fullscreenenter"",""1"",""25119""
","
","","","","","","6648.699999988079","<p> On each turn, you will see one piece of sports equipment and three different parks.  </p><p> You need to select which park to deliver the equipment to.  </p>","","0","instructions","","","","","","","","","","","","","",""
"learning-instructions","12","119040","0.0-8.0-0.0-0.4","1439","2","2","""event"",""trial"",""time""
""fullscreenenter"",""1"",""25119""
","
","
","""event"",""trial"",""time""
""fullscreenenter"",""1"",""25119""
","
","","","","","","11706.800000011921","<p> You can select the park on the left by pressing the '1' key on your keyboard. <br>You can select the park in the middle by pressing the '2' key on your keyboard. <br>You can select the park on the right by pressing the '3' key on your keyboard.  </p><br><div class=""choice-instructions-grid""> <div class=""choice-option""><img src=""images/park1.png"" class=""choice-option-img"" stage=""instructions"" position=""0"" ><div class=""choice-option-text""> Press ""1."" </div></div><div class=""choice-option""><img src=""images/park2.png"" class=""choice-option-img"" stage=""instructions"" position=""1"" ><div class=""choice-option-text""> Press ""2."" </div></div><div class=""choice-option""><img src=""images/park3.png"" class=""choice-option-img"" stage=""instructions"" position=""2"" ><div class=""choice-option-text""> Press ""3."" </div></div></div>","","0","instructions","","","","","","","","","","","","","",""
"learning-instructions","13","126282","0.0-8.0-0.0-0.5","1439","2","2","""event"",""trial"",""time""
""fullscreenenter"",""1"",""25119""
","
","
","""event"",""trial"",""time""
""fullscreenenter"",""1"",""25119""
","
","","","","","","1839.5","<p> If the kids in the park you chose like the equipment, they will be very happy! </p><div style='float: center;'><img src='images/check.png' width = '200' height = '200'></img>","","0","instructions","","","","","","","","","","","","","",""
"learning-instructions","14","133322","0.0-8.0-0.0-0.6","1439","2","2","""event"",""trial"",""time""
""fullscreenenter"",""1"",""25119""
","
","
","""event"",""trial"",""time""
""fullscreenenter"",""1"",""25119""
","
","","","","","","1441.8999999761581","<p> But, if the kids in the park you chose do not like the equipment, they will be sad. </p><div style='float: center;'><img src='images/x.png' width = '200' height = '200'></img>","","0","instructions","","","","","","","","","","","","","",""
"learning-instructions","15","141238","0.0-8.0-0.0-0.7","1439","2","2","""event"",""trial"",""time""
""fullscreenenter"",""1"",""25119""
","
","
","""event"",""trial"",""time""
""fullscreenenter"",""1"",""25119""
","
","","","","","","1487.7999999821186","<p> Importantly, the kids in each park like some pieces of sports equipment more than others. </p>","","0","instructions","","","","","","","","","","","","","",""
"learning-instructions","16","148800","0.0-8.0-0.0-0.8","1439","2","2","""event"",""trial"",""time""
""fullscreenenter"",""1"",""25119""
","
","
","""event"",""trial"",""time""
""fullscreenenter"",""1"",""25119""
","
","","","","","","1498.9000000059605","<p> If you choose the best park for each piece of equipment, the kids there will usually be happy. </p>","","0","instructions","","","","","","","","","","","","","",""
"learning-instructions","17","156898","0.0-8.0-0.0-0.9","1439","2","2","""event"",""trial"",""time""
""fullscreenenter"",""1"",""25119""
","
","
","""event"",""trial"",""time""
""fullscreenenter"",""1"",""25119""
","
","","","","","","1437.8999999761581","<p> However, even if you choose the best park for the equipment, the kids may sometimes be sad. </p>","","0","instructions","","","","","","","","","","","","","",""
"learning-instructions","18","165622","0.0-8.0-0.0-0.10","1439","2","2","""event"",""trial"",""time""
""fullscreenenter"",""1"",""25119""
","
","
","""event"",""trial"",""time""
""fullscreenenter"",""1"",""25119""
","
","","","","","","1481.4000000059605","<p> Similarly, even if you choose the <i>wrong</i> park for the equipment, the kids may still be happy sometimes.","","0","instructions","","","","","","","","","","","","","",""
"learning-instructions","19","172224","0.0-8.0-0.0-0.11","1439","2","2","""event"",""trial"",""time""
""fullscreenenter"",""1"",""25119""
","
","
","""event"",""trial"",""time""
""fullscreenenter"",""1"",""25119""
","
","","","","","","1533.5","<p> For example, the best park for this soccer ball is this one.<div style='float: center;'><img src='images/i1.png' width = '500' height = '268'></img>","","0","instructions","","","","","","","","","","","","","",""
"learning-instructions","20","179147","0.0-8.0-0.0-0.12","1439","2","2","""event"",""trial"",""time""
""fullscreenenter"",""1"",""25119""
","
","
","""event"",""trial"",""time""
""fullscreenenter"",""1"",""25119""
","
","","","","","","1615.7999999821186","<p> Let's see what happens if you choose this park for the soccer ball five times.","","0","instructions","","","","","","","","","","","","","",""
"learning-instructions","21","182919","0.0-8.0-0.0-0.13","1439","2","2","""event"",""trial"",""time""
""fullscreenenter"",""1"",""25119""
","
","
","""event"",""trial"",""time""
""fullscreenenter"",""1"",""25119""
","
","","","","","","1598.2000000178814","<p> The kids are happy.<div style='float: left;'><img src='images/i2.png' width = '640' height = '360'></img>","","0","instructions","","","","","","","","","","","","","",""
"learning-instructions","22","185723","0.0-8.0-0.0-0.14","1439","2","2","""event"",""trial"",""time""
""fullscreenenter"",""1"",""25119""
","
","
","""event"",""trial"",""time""
""fullscreenenter"",""1"",""25119""
","
","","","","","","622.3000000119209","<p> The kids are happy.<div style='float: left;'><img src='images/i3.png' width = '640' height = '360'></img>","","0","instructions","","","","","","","","","","","","","",""
"learning-instructions","23","188505","0.0-8.0-0.0-0.15","1439","2","2","""event"",""trial"",""time""
""fullscreenenter"",""1"",""25119""
","
","
","""event"",""trial"",""time""
""fullscreenenter"",""1"",""25119""
","
","","","","","","604.9000000059605","<p> The kids are happy.<div style='float: left;'><img src='images/i4.png' width = '640' height = '360'></img>","","0","instructions","","","","","","","","","","","","","",""
"learning-instructions","24","191625","0.0-8.0-0.0-0.16","1439","2","2","""event"",""trial"",""time""
""fullscreenenter"",""1"",""25119""
","
","
","""event"",""trial"",""time""
""fullscreenenter"",""1"",""25119""
","
","","","","","","905.1999999880791","<p> The kids are sad.<div style='float: left;'><img src='images/i5.png' width = '640' height = '360'></img>","","0","instructions","","","","","","","","","","","","","",""
"learning-instructions","25","195743","0.0-8.0-0.0-0.17","1439","2","2","""event"",""trial"",""time""
""fullscreenenter"",""1"",""25119""
","
","
","""event"",""trial"",""time""
""fullscreenenter"",""1"",""25119""
","
","","","","","","1952.0999999940395","<p> The kids are happy.<div style='float: left;'><img src='images/i6.png' width = '640' height = '360'></img>","","0","instructions","","","","","","","","","","","","","",""
"learning-instructions","26","204269","0.0-8.0-0.0-0.18","1439","2","2","""event"",""trial"",""time""
""fullscreenenter"",""1"",""25119""
","
","
","""event"",""trial"",""time""
""fullscreenenter"",""1"",""25119""
","
","","","","","","1247.5","<p> As you can see, selecting that park for the soccer ball made the kids happy most of the time, but not all the time.","","0","instructions","","","","","","","","","","","","","",""
"learning-instructions","27","211327","0.0-8.0-0.0-0.19","1439","2","2","""event"",""trial"",""time""
""fullscreenenter"",""1"",""25119""
","
","
","""event"",""trial"",""time""
""fullscreenenter"",""1"",""25119""
","
","","","","","","1045","<p> Now let's see what happens if you choose a DIFFERENT park for the soccer ball 5 times.","","0","instructions","","","","","","","","","","","","","",""
"learning-instructions","28","214562","0.0-8.0-0.0-0.20","1439","2","2","""event"",""trial"",""time""
""fullscreenenter"",""1"",""25119""
","
","
","""event"",""trial"",""time""
""fullscreenenter"",""1"",""25119""
","
","","","","","","1019.7000000178814","<p> The kids are sad.<div style='float: left;'><img src='images/i7.png' width = '640' height = '360'></img>","","0","instructions","","","","","","","","","","","","","",""
"learning-instructions","29","217296","0.0-8.0-0.0-0.21","1439","2","2","""event"",""trial"",""time""
""fullscreenenter"",""1"",""25119""
","
","
","""event"",""trial"",""time""
""fullscreenenter"",""1"",""25119""
","
","","","","","","535.0999999940395","<p> The kids are sad.<div style='float: left;'><img src='images/i8.png' width = '640' height = '360'></img>","","0","instructions","","","","","","","","","","","","","",""
"learning-instructions","30","220345","0.0-8.0-0.0-0.22","1439","2","2","""event"",""trial"",""time""
""fullscreenenter"",""1"",""25119""
","
","
","""event"",""trial"",""time""
""fullscreenenter"",""1"",""25119""
","
","","","","","","882.9000000059605","<p> The kids are happy.<div style='float: left;'><img src='images/i9.png' width = '640' height = '360'></img>","","0","instructions","","","","","","","","","","","","","",""
"learning-instructions","31","223409","0.0-8.0-0.0-0.23","1439","2","2","""event"",""trial"",""time""
""fullscreenenter"",""1"",""25119""
","
","
","""event"",""trial"",""time""
""fullscreenenter"",""1"",""25119""
","
","","","","","","857.6999999880791","<p> The kids are sad.<div style='float: left;'><img src='images/i10.png' width = '640' height = '360'></img>","","0","instructions","","","","","","","","","","","","","",""
"learning-instructions","32","226743","0.0-8.0-0.0-0.24","1439","2","2","""event"",""trial"",""time""
""fullscreenenter"",""1"",""25119""
","
","
","""event"",""trial"",""time""
""fullscreenenter"",""1"",""25119""
","
","","","","","","1120.300000011921","<p> The kids are sad.<div style='float: left;'><img src='images/i11.png' width = '640' height = '360'></img>","","0","instructions","","","","","","","","","","","","","",""
"learning-instructions","33","238120","0.0-8.0-0.0-0.25","1439","2","2","""event"",""trial"",""time""
""fullscreenenter"",""1"",""25119""
","
","
","""event"",""trial"",""time""
""fullscreenenter"",""1"",""25119""
","
","","","","","","3250.7000000178814","<p> As you can see, selecting the wrong park for the soccer ball made the kids sad most of the time, but not all the time.","","0","instructions","","","","","","","","","","","","","",""
"learning-instructions","34","248147","0.0-8.0-0.0-0.26","1439","2","2","""event"",""trial"",""time""
""fullscreenenter"",""1"",""25119""
","
","
","""event"",""trial"",""time""
""fullscreenenter"",""1"",""25119""
","
","","","","","","895","<p> The different pieces of equipment belong in different parks. You need to try to learn which is the best park for each piece of equipment.","","0","instructions","","","","","","","","","","","","","",""
"learning-instructions","35","266765","0.0-8.0-0.0-0.27","1439","2","2","""event"",""trial"",""time""
""fullscreenenter"",""1"",""25119""
","
","
","""event"",""trial"",""time""
""fullscreenenter"",""1"",""25119""
","
","","","","","","2225.399999976158","<p> Try to choose the best park for each piece of equipment, because you will <b> WIN </b> 1 point for each time you make the kids happy and <b>LOSE</b> 1 point for each time you make them sad. </p><p> Remember, if you make the best choice, you will win 1 point most of the time, but not all the time. </p>","","0","instructions","","","","","","","","","","","","","",""
"learning-instructions","36","273438","0.0-8.0-0.0-0.28","1439","2","2","""event"",""trial"",""time""
""fullscreenenter"",""1"",""25119""
","
","
","""event"",""trial"",""time""
""fullscreenenter"",""1"",""25119""
","
","","","","","","1186.800000011921","<p> This is just a practice round, but in the real game, your bonus payment will depend on your total number of points.","","0","instructions","","","","","","","","","","","","","",""
"learning-instructions","37","285416","0.0-8.0-0.0-0.29","1439","2","2","""event"",""trial"",""time""
""fullscreenenter"",""1"",""25119""
","
","
","""event"",""trial"",""time""
""fullscreenenter"",""1"",""25119""
","
","","","","","","1645.0999999940395","<p> The position where each park appears will change throughout the game. </p><p> The position where the park appears <i> does not </i> influence how likely the kids are to be happy or sad. </p>","","0","instructions","","","","","","","","","","","","","",""
"learning-instructions","38","296777","0.0-8.0-0.0-0.30","1439","2","2","""event"",""trial"",""time""
""fullscreenenter"",""1"",""25119""
","
","
","""event"",""trial"",""time""
""fullscreenenter"",""1"",""25119""
","
","","","","","","984.6999999880791","<p> You will have 4 seconds to make each choice. Try to respond before time runs out! </p><p> You will lose 1 point each time you do not make a response. </p>","","0","instructions","","","","","","","","","","","","","",""
"learning-instructions","39","307685","0.0-8.0-0.0-0.31","1439","2","2","""event"",""trial"",""time""
""fullscreenenter"",""1"",""25119""
","
","
","""event"",""trial"",""time""
""fullscreenenter"",""1"",""25119""
","
","","","","","","4111.5","<p> Remember, you should use the 1, 2, and 3 keys to select the park for each piece of equipment. </p><br><div class=""choice-instructions-grid""> <div class=""choice-option""><img src=""images/park1.png"" class=""choice-option-img"" stage=""instructions"" position=""0"" ><div class=""choice-option-text""> Press ""1."" </div></div><div class=""choice-option""><img src=""images/park2.png"" class=""choice-option-img"" stage=""instructions"" position=""1"" ><div class=""choice-option-text""> Press ""2."" </div></div><div class=""choice-option""><img src=""images/park3.png"" class=""choice-option-img"" stage=""instructions"" position=""2"" ><div class=""choice-option-text""> Press ""3."" </div></div></div>","","0","instructions","","","","","","","","","","","","","",""
"html-button-response","40","309439","0.0-8.0-1.0","1439","2","2","""event"",""trial"",""time""
""fullscreenenter"",""1"",""25119""
","
","
","""event"",""trial"",""time""
""fullscreenenter"",""1"",""25119""
","
","","","","","","1641","<p> Ready to practice? </p>","0","","","","","","","","","","","","","","","",""
"html-keyboard-response","41","310070","0.0-8.0-2.0-0.0","1439","2","2","""event"",""trial"",""time""
""fullscreenenter"",""1"",""25119""
","
","
","""event"",""trial"",""time""
""fullscreenenter"",""1"",""25119""
","
","","","","","","null","<div style=""font-size:60px;"">+</div>","null","","fixation","","","","","","","","","","","","","",""
"learning-trial","42","314081","0.0-8.0-2.0-1.0","1439","2","2","""event"",""trial"",""time""
""fullscreenenter"",""1"",""25119""
","
","
","""event"",""trial"",""time""
""fullscreenenter"",""1"",""25119""
","
","","","","","","null","images/racket2.png","","","practice","images/park2.png","images/park1.png","images/park3.png","[1,0,2]","0","1","null","null","-1","practice","","","",""
"html-keyboard-response","43","314585","0.0-8.0-2.0-0.1","1439","2","2","""event"",""trial"",""time""
""fullscreenenter"",""1"",""25119""
","
","
","""event"",""trial"",""time""
""fullscreenenter"",""1"",""25119""
","
","","","","","","null","<div style=""font-size:60px;"">+</div>","null","","fixation","","","","","","","","","","","","","",""
"learning-trial","44","318599","0.0-8.0-2.0-1.1","1439","2","2","""event"",""trial"",""time""
""fullscreenenter"",""1"",""25119""
","
","
","""event"",""trial"",""time""
""fullscreenenter"",""1"",""25119""
","
","","","","","","null","images/ball4.png","","","practice","images/park1.png","images/park3.png","images/park2.png","[0,2,1]","1","2","null","null","-1","practice","","","",""
"html-keyboard-response","45","319119","0.0-8.0-2.0-0.2","1439","2","2","""event"",""trial"",""time""
""fullscreenenter"",""1"",""25119""
","
","
","""event"",""trial"",""time""
""fullscreenenter"",""1"",""25119""
","
","","","","","","null","<div style=""font-size:60px;"">+</div>","null","","fixation","","","","","","","","","","","","","",""
"learning-trial","46","323125","0.0-8.0-2.0-1.2","1439","2","2","""event"",""trial"",""time""
""fullscreenenter"",""1"",""25119""
","
","
","""event"",""trial"",""time""
""fullscreenenter"",""1"",""25119""
","
","","","","","","null","images/ball2.png","","","practice","images/park2.png","images/park1.png","images/park3.png","[1,0,2]","1","0","null","null","-1","practice","","","",""
"html-keyboard-response","47","323628","0.0-8.0-2.0-0.3","1439","2","2","""event"",""trial"",""time""
""fullscreenenter"",""1"",""25119""
","
","
","""event"",""trial"",""time""
""fullscreenenter"",""1"",""25119""
","
","","","","","","null","<div style=""font-size:60px;"">+</div>","null","","fixation","","","","","","","","","","","","","",""
"learning-trial","48","327632","0.0-8.0-2.0-1.3","1439","2","2","""event"",""trial"",""time""
""fullscreenenter"",""1"",""25119""
","
","
","""event"",""trial"",""time""
""fullscreenenter"",""1"",""25119""
","
","","","","","","null","images/ball2.png","","","practice","images/park3.png","images/park2.png","images/park1.png","[2,1,0]","1","1","null","null","-1","practice","","","",""
"html-keyboard-response","49","328134","0.0-8.0-2.0-0.4","1439","2","2","""event"",""trial"",""time""
""fullscreenenter"",""1"",""25119""
","
","
","""event"",""trial"",""time""
""fullscreenenter"",""1"",""25119""
","
","","","","","","null","<div style=""font-size:60px;"">+</div>","null","","fixation","","","","","","","","","","","","","",""
"learning-trial","50","332137","0.0-8.0-2.0-1.4","1439","2","2","""event"",""trial"",""time""
""fullscreenenter"",""1"",""25119""
","
","
","""event"",""trial"",""time""
""fullscreenenter"",""1"",""25119""
","
","","","","","","null","images/racket1.png","","","practice","images/park1.png","images/park2.png","images/park3.png","[0,1,2]","2","2","null","null","-1","practice","","","",""
"html-keyboard-response","51","332639","0.0-8.0-2.0-0.5","1439","2","2","""event"",""trial"",""time""
""fullscreenenter"",""1"",""25119""
","
","
","""event"",""trial"",""time""
""fullscreenenter"",""1"",""25119""
","
","","","","","","null","<div style=""font-size:60px;"">+</div>","null","","fixation","","","","","","","","","","","","","",""
"learning-trial","52","336649","0.0-8.0-2.0-1.5","1439","2","2","""event"",""trial"",""time""
""fullscreenenter"",""1"",""25119""
","
","
","""event"",""trial"",""time""
""fullscreenenter"",""1"",""25119""
","
","","","","","","null","images/ball4.png","","","practice","images/park1.png","images/park3.png","images/park2.png","[0,2,1]","1","2","null","null","-1","practice","","","",""
"html-keyboard-response","53","337150","0.0-8.0-2.0-0.6","1439","2","2","""event"",""trial"",""time""
""fullscreenenter"",""1"",""25119""
","
","
","""event"",""trial"",""time""
""fullscreenenter"",""1"",""25119""
","
","","","","","","null","<div style=""font-size:60px;"">+</div>","null","","fixation","","","","","","","","","","","","","",""
"learning-trial","54","341154","0.0-8.0-2.0-1.6","1439","2","2","""event"",""trial"",""time""
""fullscreenenter"",""1"",""25119""
","
","
","""event"",""trial"",""time""
""fullscreenenter"",""1"",""25119""
","
","","","","","","null","images/racket2.png","","","practice","images/park2.png","images/park3.png","images/park1.png","[1,2,0]","0","2","null","null","-1","practice","","","",""
"html-keyboard-response","55","341657","0.0-8.0-2.0-0.7","1439","2","2","""event"",""trial"",""time""
""fullscreenenter"",""1"",""25119""
","
","
","""event"",""trial"",""time""
""fullscreenenter"",""1"",""25119""
","
","","","","","","null","<div style=""font-size:60px;"">+</div>","null","","fixation","","","","","","","","","","","","","",""
"learning-trial","56","345665","0.0-8.0-2.0-1.7","1439","2","2","""event"",""trial"",""time""
""fullscreenenter"",""1"",""25119""
","
","
","""event"",""trial"",""time""
""fullscreenenter"",""1"",""25119""
","
","","","","","","null","images/racket1.png","","","practice","images/park2.png","images/park3.png","images/park1.png","[1,2,0]","2","1","null","null","-1","practice","","","",""
"html-keyboard-response","57","346171","0.0-8.0-2.0-0.8","1439","2","2","""event"",""trial"",""time""
""fullscreenenter"",""1"",""25119""
","
","
","""event"",""trial"",""time""
""fullscreenenter"",""1"",""25119""
","
","","","","","","null","<div style=""font-size:60px;"">+</div>","null","","fixation","","","","","","","","","","","","","",""
"learning-trial","58","350177","0.0-8.0-2.0-1.8","1439","2","2","""event"",""trial"",""time""
""fullscreenenter"",""1"",""25119""
","
","
","""event"",""trial"",""time""
""fullscreenenter"",""1"",""25119""
","
","","","","","","null","images/racket3.png","","","practice","images/park3.png","images/park1.png","images/park2.png","[2,0,1]","0","1","null","null","-1","practice","","","",""
"html-keyboard-response","59","350680","0.0-8.0-2.0-0.9","1439","2","2","""event"",""trial"",""time""
""fullscreenenter"",""1"",""25119""
","
","
","""event"",""trial"",""time""
""fullscreenenter"",""1"",""25119""
","
","","","","","","null","<div style=""font-size:60px;"">+</div>","null","","fixation","","","","","","","","","","","","","",""
"learning-trial","60","354695","0.0-8.0-2.0-1.9","1439","2","2","""event"",""trial"",""time""
""fullscreenenter"",""1"",""25119""
","
","
","""event"",""trial"",""time""
""fullscreenenter"",""1"",""25119""
","
","","","","","","null","images/ball3.png","","","practice","images/park1.png","images/park2.png","images/park3.png","[0,1,2]","2","2","null","null","-1","practice","","","",""
"html-keyboard-response","61","355198","0.0-8.0-2.0-0.10","1439","2","2","""event"",""trial"",""time""
""fullscreenenter"",""1"",""25119""
","
","
","""event"",""trial"",""time""
""fullscreenenter"",""1"",""25119""
","
","","","","","","null","<div style=""font-size:60px;"">+</div>","null","","fixation","","","","","","","","","","","","","",""
"learning-trial","62","359203","0.0-8.0-2.0-1.10","1439","2","2","""event"",""trial"",""time""
""fullscreenenter"",""1"",""25119""
","
","
","""event"",""trial"",""time""
""fullscreenenter"",""1"",""25119""
","
","","","","","","null","images/ball3.png","","","practice","images/park2.png","images/park1.png","images/park3.png","[1,0,2]","2","2","null","null","-1","practice","","","",""
"html-keyboard-response","63","359706","0.0-8.0-2.0-0.11","1439","2","2","""event"",""trial"",""time""
""fullscreenenter"",""1"",""25119""
","
","
","""event"",""trial"",""time""
""fullscreenenter"",""1"",""25119""
","
","","","","","","null","<div style=""font-size:60px;"">+</div>","null","","fixation","","","","","","","","","","","","","",""
"learning-trial","64","363712","0.0-8.0-2.0-1.11","1439","2","2","""event"",""trial"",""time""
""fullscreenenter"",""1"",""25119""
","
","
","""event"",""trial"",""time""
""fullscreenenter"",""1"",""25119""
","
","","","","","","null","images/racket3.png","","","practice","images/park1.png","images/park2.png","images/park3.png","[0,1,2]","0","0","null","null","-1","practice","","","",""
"html-button-response","65","366601","0.0-8.0-3.0","1439","2","2","""event"",""trial"",""time""
""fullscreenenter"",""1"",""25119""
","
","
","""event"",""trial"",""time""
""fullscreenenter"",""1"",""25119""
","
","","","","","","2883.7000000178814","<p> You earned -12 points in the practice round! </p>","0","","break","","","","","","","","","","","","","",""
"learning-instructions","66","378504","0.0-8.0-4.0-0.0","1439","2","2","""event"",""trial"",""time""
""fullscreenenter"",""1"",""25119""
","
","
","""event"",""trial"",""time""
""fullscreenenter"",""1"",""25119""
","
","","","","","","4154.4000000059605","<p> It's almost time to start the real game. </p><p> Before you start, we're going to ask you a few questions about how the game works. </p>","","0","instructions","","","","","","","","","","","","","",""
"preload","67","380245","0.0-8.0-5.0","1439","2","2","""event"",""trial"",""time""
""fullscreenenter"",""1"",""25119""
","
","
","""event"",""trial"",""time""
""fullscreenenter"",""1"",""25119""
","
","true","false","[]","[]","[]","","","","","","","","","","","","","","","","","","",""
"comp-q","68","394295","0.0-8.0-6.0-0.0","1439","2","2","""event"",""trial"",""time""
""fullscreenenter"",""1"",""25119""
","
","
","""event"",""trial"",""time""
""fullscreenenter"",""1"",""25119""
","
","","","","","","8591.59999999404","<p> <b> True or False? </b> </p><p> If you choose the best option, you will always earn 1 point. </p>","","1","comp_question","","","","","","","","","","","true","","",""
"comp-q","69","401674","0.0-8.0-6.0-1.0","1439","2","2","""event"",""trial"",""time""
""fullscreenenter"",""1"",""25119""
","
","
","""event"",""trial"",""time""
""fullscreenenter"",""1"",""25119""
","
","","","","","","1712.2999999821186","<p><b> That's right! </b> Sometimes you will lose 1 point, even if you choose the best option. </p>","","0","comp_answer","","","","","","","","","","","","","",""
"comp-q","70","407732","0.0-8.0-6.0-0.1","1439","2","2","""event"",""trial"",""time""
""fullscreenenter"",""1"",""25119""
","
","
","""event"",""trial"",""time""
""fullscreenenter"",""1"",""25119""
","
","","","","","","1421.199999988079","<p> <b> True or False? </b> </p><p> You will have as much time as you want to make each choice. </p>","","1","comp_question","","","","","","","","","","","true","","",""
"comp-q","71","413875","0.0-8.0-6.0-1.1","1439","2","2","""event"",""trial"",""time""
""fullscreenenter"",""1"",""25119""
","
","
","""event"",""trial"",""time""
""fullscreenenter"",""1"",""25119""
","
","","","","","","1313.5999999940395","<p> <b> That's right! </b> You will only have 4 seconds to make each choice. </p>","","0","comp_answer","","","","","","","","","","","","","",""
"comp-q","72","421632","0.0-8.0-6.0-0.2","1439","2","2","""event"",""trial"",""time""
""fullscreenenter"",""1"",""25119""
","
","
","""event"",""trial"",""time""
""fullscreenenter"",""1"",""25119""
","
","","","","","","1598.5","<p> <b> True or False? </b> </p><p> You should use the '1', '2', and '3' keys to make your choices. </p>","","0","comp_question","","","","","","","","","","","true","","",""
"comp-q","73","428903","0.0-8.0-6.0-1.2","1439","2","2","""event"",""trial"",""time""
""fullscreenenter"",""1"",""25119""
","
","
","""event"",""trial"",""time""
""fullscreenenter"",""1"",""25119""
","
","","","","","","2421.2000000178814","<p> <b> That's right! </b> You should use the '1', '2', and '3' keys to make each choice. </p>","","0","comp_answer","","","","","","","","","","","","","",""
"learning-instructions","74","438230","0.0-8.0-7.0-0.0","1439","2","2","""event"",""trial"",""time""
""fullscreenenter"",""1"",""25119""
","
","
","""event"",""trial"",""time""
""fullscreenenter"",""1"",""25119""
","
","","","","","","829.5","<p> It's now time to start the real game. </p>Do your best, because the points you earn in the next rounds will influence your bonus payment. </p>","","0","instructions","","","","","","","","","","","","","",""
"preload","75","441104","0.0-9.0-0.0","1439","2","2","""event"",""trial"",""time""
""fullscreenenter"",""1"",""25119""
","
","
","""event"",""trial"",""time""
""fullscreenenter"",""1"",""25119""
","
","true","false","[]","[]","[]","","","","","","","","","","","","","","","","","","",""
"learning-instructions","76","449206","0.0-9.0-1.0-0.0","1439","2","2","""event"",""trial"",""time""
""fullscreenenter"",""1"",""25119""
","
","
","""event"",""trial"",""time""
""fullscreenenter"",""1"",""25119""
","
","","","","","","1646","<p> Your goal in this round is to feed all of your pets with the foods they like. </p><p> You will need to feed many pets. </p></div>","","0","instructions","","","","","","","","","","","","","",""
"learning-instructions","77","458864","0.0-9.0-1.0-0.1","1439","2","2","""event"",""trial"",""time""
""fullscreenenter"",""1"",""25119""
","
","
","""event"",""trial"",""time""
""fullscreenenter"",""1"",""25119""
","
","","","","","","1663.3999999761581","<p> On each turn, you will see a picture of one of your pets and three different types of foods.  </p><p> You need to select the food that you want to give to your pet.  </p>","","0","instructions","","","","","","","","","","","","","",""
"learning-instructions","78","467254","0.0-9.0-1.0-0.2","1439","2","2","""event"",""trial"",""time""
""fullscreenenter"",""1"",""25119""
","
","
","""event"",""trial"",""time""
""fullscreenenter"",""1"",""25119""
","
","","","","","","1681.3999999761581","<p> You can select the food on the left by pressing 1, the food in the middle by pressing 2, and the food on the right by pressing 3. </p><br><div class=""choice-instructions-grid""> <div class=""choice-option""><img src=""images/pets_choice1.png"" class=""choice-option-img"" stage=""instructions"" position=""0"" ><div class=""choice-option-text""> Press ""1."" </div></div><div class=""choice-option""><img src=""images/pets_choice2.png"" class=""choice-option-img"" stage=""instructions"" position=""1"" ><div class=""choice-option-text""> Press ""2."" </div></div><div class=""choice-option""><img src=""images/pets_choice3.png"" class=""choice-option-img"" stage=""instructions"" position=""2"" ><div class=""choice-option-text""> Press ""3."" </div></div></div>","","0","instructions","","","","","","","","","","","","","",""
"learning-instructions","79","472902","0.0-9.0-1.0-0.3","1439","2","2","""event"",""trial"",""time""
""fullscreenenter"",""1"",""25119""
","
","
","""event"",""trial"",""time""
""fullscreenenter"",""1"",""25119""
","
","","","","","","1612.2000000178814","<p> If your pet likes the food you chose, it will be very happy! </p><div style='float: center;'><img src='images/check.png' width = '200' height = '200'></img>","","0","instructions","","","","","","","","","","","","","",""
"learning-instructions","80","478598","0.0-9.0-1.0-0.4","1439","2","2","""event"",""trial"",""time""
""fullscreenenter"",""1"",""25119""
","
","
","""event"",""trial"",""time""
""fullscreenenter"",""1"",""25119""
","
","","","","","","1266.2000000178814","<p> But, if your pet does not like the food you chose, it will feel sick. </p><div style='float: center;'><img src='images/x.png' width = '200' height = '200'></img>","","0","instructions","","","","","","","","","","","","","",""
"learning-instructions","81","488028","0.0-9.0-1.0-0.5","1439","2","2","""event"",""trial"",""time""
""fullscreenenter"",""1"",""25119""
","
","
","""event"",""trial"",""time""
""fullscreenenter"",""1"",""25119""
","
","","","","","","1766.0999999940395","<p> Importantly, each pet has a food that it prefers. </p><p> If you choose the food that the pet prefers, it will be more likely to be happy! </p>","","0","instructions","","","","","","","","","","","","","",""
"learning-instructions","82","499125","0.0-9.0-1.0-0.6","1439","2","2","""event"",""trial"",""time""
""fullscreenenter"",""1"",""25119""
","
","
","""event"",""trial"",""time""
""fullscreenenter"",""1"",""25119""
","
","","","","","","1462.699999988079","<p> However, even if you choose the food the pet prefers, it may still feel sick sometimes. </p><p> Similarly, even if you choose the <i>wrong</i> food, it may still feel happy.","","0","instructions","","","","","","","","","","","","","",""
"learning-instructions","83","513097","0.0-9.0-1.0-0.7","1439","2","2","""event"",""trial"",""time""
""fullscreenenter"",""1"",""25119""
","
","
","""event"",""trial"",""time""
""fullscreenenter"",""1"",""25119""
","
","","","","","","1166","<p> Try to choose the food each pet prefers, because you will <b> WIN </b> 1 point each time the pet is happy and <b>LOSE</b>  1 point each time the pet feels sick. </p><p> Your bonus payment will depend on your total number of points.","","0","instructions","","","","","","","","","","","","","",""
"learning-instructions","84","523921","0.0-9.0-1.0-0.8","1439","2","2","""event"",""trial"",""time""
""fullscreenenter"",""1"",""25119""
","
","
","""event"",""trial"",""time""
""fullscreenenter"",""1"",""25119""
","
","","","","","","2210.2999999821186","<p> The position of each food will change throughout the round. </p><p> The food's position <i> does not </i> influence how likely the pet is to feel happy or sick. </p>","","0","instructions","","","","","","","","","","","","","",""
"learning-instructions","85","534202","0.0-9.0-1.0-0.9","1439","2","2","""event"",""trial"",""time""
""fullscreenenter"",""1"",""25119""
","
","
","""event"",""trial"",""time""
""fullscreenenter"",""1"",""25119""
","
","","","","","","980","<p> You will have 4 seconds to make each choice. Try to respond before time runs out! </p><p> You will lose 1 point each time you do not make a response. </p>","","0","instructions","","","","","","","","","","","","","",""
"html-keyboard-response","86","534819","0.0-9.0-2.0-0.0","1439","2","2","""event"",""trial"",""time""
""fullscreenenter"",""1"",""25119""
","
","
","""event"",""trial"",""time""
""fullscreenenter"",""1"",""25119""
","
","","","","","","null","<div style=""font-size:60px;"">+</div>","null","","fixation","","","","","","","","","","","","","",""
"learning-trial","87","538839","0.0-9.0-2.0-1.0","1439","2","2","""event"",""trial"",""time""
""fullscreenenter"",""1"",""25119""
","
","
","""event"",""trial"",""time""
""fullscreenenter"",""1"",""25119""
","
","","","","","","2564.4000000059605","images/rabbit5.png","","","learning","images/pets_choice1.png","images/pets_choice2.png","images/pets_choice3.png","[0,1,2]","2","2","2","images/pets_choice2.png","-1","pets","","rabbit","2","0"
"html-keyboard-response","88","539348","0.0-9.0-2.0-0.1","1439","2","2","""event"",""trial"",""time""
""fullscreenenter"",""1"",""25119""
","
","
","""event"",""trial"",""time""
""fullscreenenter"",""1"",""25119""
","
","","","","","","null","<div style=""font-size:60px;"">+</div>","null","","fixation","","","","","","","","","","","","","",""
"learning-trial","89","543351","0.0-9.0-2.0-1.1","1439","2","2","""event"",""trial"",""time""
""fullscreenenter"",""1"",""25119""
","
","
","""event"",""trial"",""time""
""fullscreenenter"",""1"",""25119""
","
","","","","","","1414.6000000238419","images/rabbit2.png","","","learning","images/pets_choice2.png","images/pets_choice1.png","images/pets_choice3.png","[1,0,2]","0","1","1","images/pets_choice2.png","-1","pets","","rabbit","2","0"
"html-keyboard-response","90","543857","0.0-9.0-2.0-0.2","1439","2","2","""event"",""trial"",""time""
""fullscreenenter"",""1"",""25119""
","
","
","""event"",""trial"",""time""
""fullscreenenter"",""1"",""25119""
","
","","","","","","null","<div style=""font-size:60px;"">+</div>","null","","fixation","","","","","","","","","","","","","",""
"learning-trial","91","547864","0.0-9.0-2.0-1.2","1439","2","2","""event"",""trial"",""time""
""fullscreenenter"",""1"",""25119""
","
","
","""event"",""trial"",""time""
""fullscreenenter"",""1"",""25119""
","
","","","","","","2035.1000000238419","images/feline5.png","","","learning","images/pets_choice3.png","images/pets_choice1.png","images/pets_choice2.png","[2,0,1]","0","1","1","images/pets_choice3.png","-1","pets","","feline","2","0"
"html-keyboard-response","92","548378","0.0-9.0-2.0-0.3","1439","2","2","""event"",""trial"",""time""
""fullscreenenter"",""1"",""25119""
","
","
","""event"",""trial"",""time""
""fullscreenenter"",""1"",""25119""
","
","","","","","","null","<div style=""font-size:60px;"">+</div>","null","","fixation","","","","","","","","","","","","","",""
"learning-trial","93","552387","0.0-9.0-2.0-1.3","1439","2","2","""event"",""trial"",""time""
""fullscreenenter"",""1"",""25119""
","
","
","""event"",""trial"",""time""
""fullscreenenter"",""1"",""25119""
","
","","","","","","1649.9000000059605","images/dog5.png","","","learning","images/pets_choice3.png","images/pets_choice1.png","images/pets_choice2.png","[2,0,1]","1","2","2","images/pets_choice1.png","-1","pets","","dog","2","0"
"html-keyboard-response","94","552907","0.0-9.0-2.0-0.4","1439","2","2","""event"",""trial"",""time""
""fullscreenenter"",""1"",""25119""
","
","
","""event"",""trial"",""time""
""fullscreenenter"",""1"",""25119""
","
","","","","","","null","<div style=""font-size:60px;"">+</div>","null","","fixation","","","","","","","","","","","","","",""
"learning-trial","95","556914","0.0-9.0-2.0-1.4","1439","2","2","""event"",""trial"",""time""
""fullscreenenter"",""1"",""25119""
","
","
","""event"",""trial"",""time""
""fullscreenenter"",""1"",""25119""
","
","","","","","","2154.5999999940395","images/dog2.png","","","learning","images/pets_choice2.png","images/pets_choice3.png","images/pets_choice1.png","[1,2,0]","0","2","3","images/pets_choice1.png","1","pets","","dog","2","0"
"html-keyboard-response","96","557418","0.0-9.0-2.0-0.5","1439","2","2","""event"",""trial"",""time""
""fullscreenenter"",""1"",""25119""
","
","
","""event"",""trial"",""time""
""fullscreenenter"",""1"",""25119""
","
","","","","","","null","<div style=""font-size:60px;"">+</div>","null","","fixation","","","","","","","","","","","","","",""
"learning-trial","97","561433","0.0-9.0-2.0-1.5","1439","2","2","""event"",""trial"",""time""
""fullscreenenter"",""1"",""25119""
","
","
","""event"",""trial"",""time""
""fullscreenenter"",""1"",""25119""
","
","","","","","","2115.199999988079","images/rabbit2.png","","","learning","images/pets_choice1.png","images/pets_choice3.png","images/pets_choice2.png","[0,2,1]","0","0","3","images/pets_choice2.png","-1","pets","","rabbit","2","0"
"html-keyboard-response","98","561947","0.0-9.0-2.0-0.6","1439","2","2","""event"",""trial"",""time""
""fullscreenenter"",""1"",""25119""
","
","
","""event"",""trial"",""time""
""fullscreenenter"",""1"",""25119""
","
","","","","","","null","<div style=""font-size:60px;"">+</div>","null","","fixation","","","","","","","","","","","","","",""
"learning-trial","99","565952","0.0-9.0-2.0-1.6","1439","2","2","""event"",""trial"",""time""
""fullscreenenter"",""1"",""25119""
","
","
","""event"",""trial"",""time""
""fullscreenenter"",""1"",""25119""
","
","","","","","","437.19999998807907","images/dog2.png","","","learning","images/pets_choice2.png","images/pets_choice1.png","images/pets_choice3.png","[1,0,2]","0","1","2","images/pets_choice1.png","1","pets","","dog","2","0"
"html-keyboard-response","100","566455","0.0-9.0-2.0-0.7","1439","2","2","""event"",""trial"",""time""
""fullscreenenter"",""1"",""25119""
","
","
","""event"",""trial"",""time""
""fullscreenenter"",""1"",""25119""
","
","","","","","","null","<div style=""font-size:60px;"">+</div>","null","","fixation","","","","","","","","","","","","","",""
"learning-trial","101","570462","0.0-9.0-2.0-1.7","1439","2","2","""event"",""trial"",""time""
""fullscreenenter"",""1"",""25119""
","
","
","""event"",""trial"",""time""
""fullscreenenter"",""1"",""25119""
","
","","","","","","1026.5999999940395","images/rabbit5.png","","","learning","images/pets_choice3.png","images/pets_choice1.png","images/pets_choice2.png","[2,0,1]","2","0","1","images/pets_choice3.png","-1","pets","","rabbit","2","0"
"html-keyboard-response","102","570963","0.0-9.0-2.0-0.8","1439","2","2","""event"",""trial"",""time""
""fullscreenenter"",""1"",""25119""
","
","
","""event"",""trial"",""time""
""fullscreenenter"",""1"",""25119""
","
","","","","","","null","<div style=""font-size:60px;"">+</div>","null","","fixation","","","","","","","","","","","","","",""
"learning-trial","103","574969","0.0-9.0-2.0-1.8","1439","2","2","""event"",""trial"",""time""
""fullscreenenter"",""1"",""25119""
","
","
","""event"",""trial"",""time""
""fullscreenenter"",""1"",""25119""
","
","","","","","","1151.300000011921","images/feline4.png","","","learning","images/pets_choice2.png","images/pets_choice3.png","images/pets_choice1.png","[1,2,0]","2","1","2","images/pets_choice3.png","1","pets","","feline","2","0"
"html-keyboard-response","104","575472","0.0-9.0-2.0-0.9","1439","2","2","""event"",""trial"",""time""
""fullscreenenter"",""1"",""25119""
","
","
","""event"",""trial"",""time""
""fullscreenenter"",""1"",""25119""
","
","","","","","","null","<div style=""font-size:60px;"">+</div>","null","","fixation","","","","","","","","","","","","","",""
"learning-trial","105","579479","0.0-9.0-2.0-1.9","1439","2","2","""event"",""trial"",""time""
""fullscreenenter"",""1"",""25119""
","
","
","""event"",""trial"",""time""
""fullscreenenter"",""1"",""25119""
","
","","","","","","3254.0999999940395","images/dog4.png","","","learning","images/pets_choice1.png","images/pets_choice2.png","images/pets_choice3.png","[0,1,2]","2","2","1","images/pets_choice1.png","-1","pets","","dog","2","0"
"html-keyboard-response","106","579981","0.0-9.0-2.0-0.10","1439","2","2","""event"",""trial"",""time""
""fullscreenenter"",""1"",""25119""
","
","
","""event"",""trial"",""time""
""fullscreenenter"",""1"",""25119""
","
","","","","","","null","<div style=""font-size:60px;"">+</div>","null","","fixation","","","","","","","","","","","","","",""
"learning-trial","107","583988","0.0-9.0-2.0-1.10","1439","2","2","""event"",""trial"",""time""
""fullscreenenter"",""1"",""25119""
","
","
","""event"",""trial"",""time""
""fullscreenenter"",""1"",""25119""
","
","","","","","","846.7999999821186","images/dog5.png","","","learning","images/pets_choice2.png","images/pets_choice1.png","images/pets_choice3.png","[1,0,2]","1","0","3","images/pets_choice3.png","-1","pets","","dog","2","0"
"html-keyboard-response","108","584491","0.0-9.0-2.0-0.11","1439","2","2","""event"",""trial"",""time""
""fullscreenenter"",""1"",""25119""
","
","
","""event"",""trial"",""time""
""fullscreenenter"",""1"",""25119""
","
","","","","","","null","<div style=""font-size:60px;"">+</div>","null","","fixation","","","","","","","","","","","","","",""
"learning-trial","109","588495","0.0-9.0-2.0-1.11","1439","2","2","""event"",""trial"",""time""
""fullscreenenter"",""1"",""25119""
","
","
","""event"",""trial"",""time""
""fullscreenenter"",""1"",""25119""
","
","","","","","","593.1999999880791","images/dog5.png","","","learning","images/pets_choice3.png","images/pets_choice2.png","images/pets_choice1.png","[2,1,0]","1","1","2","images/pets_choice2.png","1","pets","","dog","2","0"
"html-keyboard-response","110","588996","0.0-9.0-2.0-0.12","1439","2","2","""event"",""trial"",""time""
""fullscreenenter"",""1"",""25119""
","
","
","""event"",""trial"",""time""
""fullscreenenter"",""1"",""25119""
","
","","","","","","null","<div style=""font-size:60px;"">+</div>","null","","fixation","","","","","","","","","","","","","",""
"learning-trial","111","593004","0.0-9.0-2.0-1.12","1439","2","2","""event"",""trial"",""time""
""fullscreenenter"",""1"",""25119""
","
","
","""event"",""trial"",""time""
""fullscreenenter"",""1"",""25119""
","
","","","","","","2087.9000000059605","images/rabbit4.png","","","learning","images/pets_choice1.png","images/pets_choice3.png","images/pets_choice2.png","[0,2,1]","1","2","2","images/pets_choice3.png","-1","pets","","rabbit","2","0"
"html-keyboard-response","112","593506","0.0-9.0-2.0-0.13","1439","2","2","""event"",""trial"",""time""
""fullscreenenter"",""1"",""25119""
","
","
","""event"",""trial"",""time""
""fullscreenenter"",""1"",""25119""
","
","","","","","","null","<div style=""font-size:60px;"">+</div>","null","","fixation","","","","","","","","","","","","","",""
"learning-trial","113","597513","0.0-9.0-2.0-1.13","1439","2","2","""event"",""trial"",""time""
""fullscreenenter"",""1"",""25119""
","
","
","""event"",""trial"",""time""
""fullscreenenter"",""1"",""25119""
","
","","","","","","1844.5","images/feline3.png","","","learning","images/pets_choice3.png","images/pets_choice2.png","images/pets_choice1.png","[2,1,0]","1","1","3","images/pets_choice1.png","-1","pets","","feline","2","0"
"html-keyboard-response","114","598015","0.0-9.0-2.0-0.14","1439","2","2","""event"",""trial"",""time""
""fullscreenenter"",""1"",""25119""
","
","
","""event"",""trial"",""time""
""fullscreenenter"",""1"",""25119""
","
","","","","","","null","<div style=""font-size:60px;"">+</div>","null","","fixation","","","","","","","","","","","","","",""
"learning-trial","115","602020","0.0-9.0-2.0-1.14","1439","2","2","""event"",""trial"",""time""
""fullscreenenter"",""1"",""25119""
","
","
","""event"",""trial"",""time""
""fullscreenenter"",""1"",""25119""
","
","","","","","","1811.5","images/dog2.png","","","learning","images/pets_choice1.png","images/pets_choice2.png","images/pets_choice3.png","[0,1,2]","0","0","1","images/pets_choice1.png","1","pets","","dog","2","0"
"html-keyboard-response","116","602522","0.0-9.0-2.0-0.15","1439","2","2","""event"",""trial"",""time""
""fullscreenenter"",""1"",""25119""
","
","
","""event"",""trial"",""time""
""fullscreenenter"",""1"",""25119""
","
","","","","","","null","<div style=""font-size:60px;"">+</div>","null","","fixation","","","","","","","","","","","","","",""
"learning-trial","117","606530","0.0-9.0-2.0-1.15","1439","2","2","""event"",""trial"",""time""
""fullscreenenter"",""1"",""25119""
","
","
","""event"",""trial"",""time""
""fullscreenenter"",""1"",""25119""
","
","","","","","","2412.5","images/feline5.png","","","learning","images/pets_choice1.png","images/pets_choice3.png","images/pets_choice2.png","[0,2,1]","0","0","2","images/pets_choice3.png","1","pets","","feline","2","0"
"html-keyboard-response","118","607032","0.0-9.0-2.0-0.16","1439","2","2","""event"",""trial"",""time""
""fullscreenenter"",""1"",""25119""
","
","
","""event"",""trial"",""time""
""fullscreenenter"",""1"",""25119""
","
","","","","","","null","<div style=""font-size:60px;"">+</div>","null","","fixation","","","","","","","","","","","","","",""
"learning-trial","119","611034","0.0-9.0-2.0-1.16","1439","2","2","""event"",""trial"",""time""
""fullscreenenter"",""1"",""25119""
","
","
","""event"",""trial"",""time""
""fullscreenenter"",""1"",""25119""
","
","","","","","","2193.199999988079","images/dog4.png","","","learning","images/pets_choice1.png","images/pets_choice2.png","images/pets_choice3.png","[0,1,2]","2","2","2","images/pets_choice2.png","1","pets","","dog","2","0"
"html-keyboard-response","120","611535","0.0-9.0-2.0-0.17","1439","2","2","""event"",""trial"",""time""
""fullscreenenter"",""1"",""25119""
","
","
","""event"",""trial"",""time""
""fullscreenenter"",""1"",""25119""
","
","","","","","","null","<div style=""font-size:60px;"">+</div>","null","","fixation","","","","","","","","","","","","","",""
"learning-trial","121","615542","0.0-9.0-2.0-1.17","1439","2","2","""event"",""trial"",""time""
""fullscreenenter"",""1"",""25119""
","
","
","""event"",""trial"",""time""
""fullscreenenter"",""1"",""25119""
","
","","","","","","1311.9000000059605","images/feline5.png","","","learning","images/pets_choice3.png","images/pets_choice1.png","images/pets_choice2.png","[2,0,1]","0","1","1","images/pets_choice3.png","-1","pets","","feline","2","0"
"html-keyboard-response","122","616045","0.0-9.0-2.0-0.18","1439","2","2","""event"",""trial"",""time""
""fullscreenenter"",""1"",""25119""
","
","
","""event"",""trial"",""time""
""fullscreenenter"",""1"",""25119""
","
","","","","","","null","<div style=""font-size:60px;"">+</div>","null","","fixation","","","","","","","","","","","","","",""
"learning-trial","123","620054","0.0-9.0-2.0-1.18","1439","2","2","""event"",""trial"",""time""
""fullscreenenter"",""1"",""25119""
","
","
","""event"",""trial"",""time""
""fullscreenenter"",""1"",""25119""
","
","","","","","","840.3999999761581","images/rabbit5.png","","","learning","images/pets_choice2.png","images/pets_choice3.png","images/pets_choice1.png","[1,2,0]","2","1","3","images/pets_choice1.png","-1","pets","","rabbit","2","0"
"html-keyboard-response","124","620557","0.0-9.0-2.0-0.19","1439","2","2","""event"",""trial"",""time""
""fullscreenenter"",""1"",""25119""
","
","
","""event"",""trial"",""time""
""fullscreenenter"",""1"",""25119""
","
","","","","","","null","<div style=""font-size:60px;"">+</div>","null","","fixation","","","","","","","","","","","","","",""
"learning-trial","125","624563","0.0-9.0-2.0-1.19","1439","2","2","""event"",""trial"",""time""
""fullscreenenter"",""1"",""25119""
","
","
","""event"",""trial"",""time""
""fullscreenenter"",""1"",""25119""
","
","","","","","","780.0999999940395","images/rabbit2.png","","","learning","images/pets_choice1.png","images/pets_choice3.png","images/pets_choice2.png","[0,2,1]","0","0","2","images/pets_choice3.png","1","pets","","rabbit","2","0"
"html-keyboard-response","126","625065","0.0-9.0-2.0-0.20","1439","2","2","""event"",""trial"",""time""
""fullscreenenter"",""1"",""25119""
","
","
","""event"",""trial"",""time""
""fullscreenenter"",""1"",""25119""
","
","","","","","","null","<div style=""font-size:60px;"">+</div>","null","","fixation","","","","","","","","","","","","","",""
"learning-trial","127","629071","0.0-9.0-2.0-1.20","1439","2","2","""event"",""trial"",""time""
""fullscreenenter"",""1"",""25119""
","
","
","""event"",""trial"",""time""
""fullscreenenter"",""1"",""25119""
","
","","","","","","597.9000000059605","images/feline3.png","","","learning","images/pets_choice2.png","images/pets_choice1.png","images/pets_choice3.png","[1,0,2]","1","0","2","images/pets_choice1.png","-1","pets","","feline","2","0"
"html-keyboard-response","128","629574","0.0-9.0-2.0-0.21","1439","2","2","""event"",""trial"",""time""
""fullscreenenter"",""1"",""25119""
","
","
","""event"",""trial"",""time""
""fullscreenenter"",""1"",""25119""
","
","","","","","","null","<div style=""font-size:60px;"">+</div>","null","","fixation","","","","","","","","","","","","","",""
"learning-trial","129","633581","0.0-9.0-2.0-1.21","1439","2","2","""event"",""trial"",""time""
""fullscreenenter"",""1"",""25119""
","
","
","""event"",""trial"",""time""
""fullscreenenter"",""1"",""25119""
","
","","","","","","1136.3999999761581","images/rabbit5.png","","","learning","images/pets_choice3.png","images/pets_choice2.png","images/pets_choice1.png","[2,1,0]","2","0","2","images/pets_choice2.png","-1","pets","","rabbit","2","0"
"html-keyboard-response","130","634083","0.0-9.0-2.0-0.22","1439","2","2","""event"",""trial"",""time""
""fullscreenenter"",""1"",""25119""
","
","
","""event"",""trial"",""time""
""fullscreenenter"",""1"",""25119""
","
","","","","","","null","<div style=""font-size:60px;"">+</div>","null","","fixation","","","","","","","","","","","","","",""
"learning-trial","131","638090","0.0-9.0-2.0-1.22","1439","2","2","""event"",""trial"",""time""
""fullscreenenter"",""1"",""25119""
","
","
","""event"",""trial"",""time""
""fullscreenenter"",""1"",""25119""
","
","","","","","","1122.9000000059605","images/rabbit5.png","","","learning","images/pets_choice1.png","images/pets_choice2.png","images/pets_choice3.png","[0,1,2]","2","2","1","images/pets_choice1.png","-1","pets","","rabbit","2","0"
"html-keyboard-response","132","638593","0.0-9.0-2.0-0.23","1439","2","2","""event"",""trial"",""time""
""fullscreenenter"",""1"",""25119""
","
","
","""event"",""trial"",""time""
""fullscreenenter"",""1"",""25119""
","
","","","","","","null","<div style=""font-size:60px;"">+</div>","null","","fixation","","","","","","","","","","","","","",""
"learning-trial","133","642600","0.0-9.0-2.0-1.23","1439","2","2","""event"",""trial"",""time""
""fullscreenenter"",""1"",""25119""
","
","
","""event"",""trial"",""time""
""fullscreenenter"",""1"",""25119""
","
","","","","","","2694.600000023842","images/feline4.png","","","learning","images/pets_choice2.png","images/pets_choice3.png","images/pets_choice1.png","[1,2,0]","2","1","3","images/pets_choice1.png","-1","pets","","feline","2","0"
"html-keyboard-response","134","643103","0.0-9.0-2.0-0.24","1439","2","2","""event"",""trial"",""time""
""fullscreenenter"",""1"",""25119""
","
","
","""event"",""trial"",""time""
""fullscreenenter"",""1"",""25119""
","
","","","","","","null","<div style=""font-size:60px;"">+</div>","null","","fixation","","","","","","","","","","","","","",""
"learning-trial","135","647113","0.0-9.0-2.0-1.24","1439","2","2","""event"",""trial"",""time""
""fullscreenenter"",""1"",""25119""
","
","
","""event"",""trial"",""time""
""fullscreenenter"",""1"",""25119""
","
","","","","","","3267.5999999940395","images/feline5.png","","","learning","images/pets_choice1.png","images/pets_choice3.png","images/pets_choice2.png","[0,2,1]","0","0","1","images/pets_choice1.png","1","pets","","feline","2","0"
"html-keyboard-response","136","647615","0.0-9.0-2.0-0.25","1439","2","2","""event"",""trial"",""time""
""fullscreenenter"",""1"",""25119""
","
","
","""event"",""trial"",""time""
""fullscreenenter"",""1"",""25119""
","
","","","","","","null","<div style=""font-size:60px;"">+</div>","null","","fixation","","","","","","","","","","","","","",""
"learning-trial","137","651624","0.0-9.0-2.0-1.25","1439","2","2","""event"",""trial"",""time""
""fullscreenenter"",""1"",""25119""
","
","
","""event"",""trial"",""time""
""fullscreenenter"",""1"",""25119""
","
","","","","","","1574","images/feline5.png","","","learning","images/pets_choice3.png","images/pets_choice1.png","images/pets_choice2.png","[2,0,1]","0","1","3","images/pets_choice2.png","-1","pets","","feline","2","0"
"html-keyboard-response","138","652126","0.0-9.0-2.0-0.26","1439","2","2","""event"",""trial"",""time""
""fullscreenenter"",""1"",""25119""
","
","
","""event"",""trial"",""time""
""fullscreenenter"",""1"",""25119""
","
","","","","","","null","<div style=""font-size:60px;"">+</div>","null","","fixation","","","","","","","","","","","","","",""
"learning-trial","139","656133","0.0-9.0-2.0-1.26","1439","2","2","""event"",""trial"",""time""
""fullscreenenter"",""1"",""25119""
","
","
","""event"",""trial"",""time""
""fullscreenenter"",""1"",""25119""
","
","","","","","","2391.5","images/rabbit2.png","","","learning","images/pets_choice1.png","images/pets_choice2.png","images/pets_choice3.png","[0,1,2]","0","0","2","images/pets_choice2.png","-1","pets","","rabbit","2","0"
"html-keyboard-response","140","656636","0.0-9.0-2.0-0.27","1439","2","2","""event"",""trial"",""time""
""fullscreenenter"",""1"",""25119""
","
","
","""event"",""trial"",""time""
""fullscreenenter"",""1"",""25119""
","
","","","","","","null","<div style=""font-size:60px;"">+</div>","null","","fixation","","","","","","","","","","","","","",""
"learning-trial","141","660643","0.0-9.0-2.0-1.27","1439","2","2","""event"",""trial"",""time""
""fullscreenenter"",""1"",""25119""
","
","
","""event"",""trial"",""time""
""fullscreenenter"",""1"",""25119""
","
","","","","","","1077.4000000059605","images/dog5.png","","","learning","images/pets_choice3.png","images/pets_choice2.png","images/pets_choice1.png","[2,1,0]","1","1","3","images/pets_choice1.png","-1","pets","","dog","2","0"
"html-keyboard-response","142","661146","0.0-9.0-2.0-0.28","1439","2","2","""event"",""trial"",""time""
""fullscreenenter"",""1"",""25119""
","
","
","""event"",""trial"",""time""
""fullscreenenter"",""1"",""25119""
","
","","","","","","null","<div style=""font-size:60px;"">+</div>","null","","fixation","","","","","","","","","","","","","",""
"learning-trial","143","665155","0.0-9.0-2.0-1.28","1439","2","2","""event"",""trial"",""time""
""fullscreenenter"",""1"",""25119""
","
","
","""event"",""trial"",""time""
""fullscreenenter"",""1"",""25119""
","
","","","","","","406.09999999403954","images/feline5.png","","","learning","images/pets_choice2.png","images/pets_choice3.png","images/pets_choice1.png","[1,2,0]","0","2","1","images/pets_choice2.png","-1","pets","","feline","2","0"
"html-keyboard-response","144","665657","0.0-9.0-2.0-0.29","1439","2","2","""event"",""trial"",""time""
""fullscreenenter"",""1"",""25119""
","
","
","""event"",""trial"",""time""
""fullscreenenter"",""1"",""25119""
","
","","","","","","null","<div style=""font-size:60px;"">+</div>","null","","fixation","","","","","","","","","","","","","",""
"learning-trial","145","669668","0.0-9.0-2.0-1.29","1439","2","2","""event"",""trial"",""time""
""fullscreenenter"",""1"",""25119""
","
","
","""event"",""trial"",""time""
""fullscreenenter"",""1"",""25119""
","
","","","","","","1347.5999999940395","images/feline3.png","","","learning","images/pets_choice3.png","images/pets_choice1.png","images/pets_choice2.png","[2,0,1]","1","2","2","images/pets_choice1.png","-1","pets","","feline","2","0"
"html-keyboard-response","146","670171","0.0-9.0-2.0-0.30","1439","2","2","""event"",""trial"",""time""
""fullscreenenter"",""1"",""25119""
","
","
","""event"",""trial"",""time""
""fullscreenenter"",""1"",""25119""
","
","","","","","","null","<div style=""font-size:60px;"">+</div>","null","","fixation","","","","","","","","","","","","","",""
"learning-trial","147","674174","0.0-9.0-2.0-1.30","1439","2","2","""event"",""trial"",""time""
""fullscreenenter"",""1"",""25119""
","
","
","""event"",""trial"",""time""
""fullscreenenter"",""1"",""25119""
","
","","","","","","377.19999998807907","images/feline3.png","","","learning","images/pets_choice1.png","images/pets_choice3.png","images/pets_choice2.png","[0,2,1]","1","2","2","images/pets_choice3.png","1","pets","","feline","2","0"
"html-keyboard-response","148","674676","0.0-9.0-2.0-0.31","1439","2","2","""event"",""trial"",""time""
""fullscreenenter"",""1"",""25119""
","
","
","""event"",""trial"",""time""
""fullscreenenter"",""1"",""25119""
","
","","","","","","null","<div style=""font-size:60px;"">+</div>","null","","fixation","","","","","","","","","","","","","",""
"learning-trial","149","678684","0.0-9.0-2.0-1.31","1439","2","2","""event"",""trial"",""time""
""fullscreenenter"",""1"",""25119""
","
","
","""event"",""trial"",""time""
""fullscreenenter"",""1"",""25119""
","
","","","","","","2081.9000000059605","images/dog2.png","","","learning","images/pets_choice2.png","images/pets_choice3.png","images/pets_choice1.png","[1,2,0]","0","2","3","images/pets_choice1.png","1","pets","","dog","2","0"
"html-keyboard-response","150","679186","0.0-9.0-2.0-0.32","1439","2","2","""event"",""trial"",""time""
""fullscreenenter"",""1"",""25119""
","
","
","""event"",""trial"",""time""
""fullscreenenter"",""1"",""25119""
","
","","","","","","null","<div style=""font-size:60px;"">+</div>","null","","fixation","","","","","","","","","","","","","",""
"learning-trial","151","683189","0.0-9.0-2.0-1.32","1439","2","2","""event"",""trial"",""time""
""fullscreenenter"",""1"",""25119""
","
","
","""event"",""trial"",""time""
""fullscreenenter"",""1"",""25119""
","
","","","","","","1736.4000000059605","images/feline4.png","","","learning","images/pets_choice1.png","images/pets_choice2.png","images/pets_choice3.png","[0,1,2]","2","2","2","images/pets_choice2.png","-1","pets","","feline","2","0"
"html-keyboard-response","152","683692","0.0-9.0-2.0-0.33","1439","2","2","""event"",""trial"",""time""
""fullscreenenter"",""1"",""25119""
","
","
","""event"",""trial"",""time""
""fullscreenenter"",""1"",""25119""
","
","","","","","","null","<div style=""font-size:60px;"">+</div>","null","","fixation","","","","","","","","","","","","","",""
"learning-trial","153","687700","0.0-9.0-2.0-1.33","1439","2","2","""event"",""trial"",""time""
""fullscreenenter"",""1"",""25119""
","
","
","""event"",""trial"",""time""
""fullscreenenter"",""1"",""25119""
","
","","","","","","1010.5999999940395","images/rabbit5.png","","","learning","images/pets_choice3.png","images/pets_choice2.png","images/pets_choice1.png","[2,1,0]","2","0","1","images/pets_choice3.png","-1","pets","","rabbit","2","0"
"html-keyboard-response","154","688201","0.0-9.0-2.0-0.34","1439","2","2","""event"",""trial"",""time""
""fullscreenenter"",""1"",""25119""
","
","
","""event"",""trial"",""time""
""fullscreenenter"",""1"",""25119""
","
","","","","","","null","<div style=""font-size:60px;"">+</div>","null","","fixation","","","","","","","","","","","","","",""
"learning-trial","155","692209","0.0-9.0-2.0-1.34","1439","2","2","""event"",""trial"",""time""
""fullscreenenter"",""1"",""25119""
","
","
","""event"",""trial"",""time""
""fullscreenenter"",""1"",""25119""
","
","","","","","","1438.2000000178814","images/feline5.png","","","learning","images/pets_choice3.png","images/pets_choice2.png","images/pets_choice1.png","[2,1,0]","0","2","3","images/pets_choice1.png","1","pets","","feline","2","0"
"html-keyboard-response","156","692713","0.0-9.0-2.0-0.35","1439","2","2","""event"",""trial"",""time""
""fullscreenenter"",""1"",""25119""
","
","
","""event"",""trial"",""time""
""fullscreenenter"",""1"",""25119""
","
","","","","","","null","<div style=""font-size:60px;"">+</div>","null","","fixation","","","","","","","","","","","","","",""
"learning-trial","157","696719","0.0-9.0-2.0-1.35","1439","2","2","""event"",""trial"",""time""
""fullscreenenter"",""1"",""25119""
","
","
","""event"",""trial"",""time""
""fullscreenenter"",""1"",""25119""
","
","","","","","","974.2999999821186","images/dog2.png","","","learning","images/pets_choice2.png","images/pets_choice3.png","images/pets_choice1.png","[1,2,0]","0","2","2","images/pets_choice3.png","-1","pets","","dog","2","0"
"html-keyboard-response","158","697221","0.0-9.0-2.0-0.36","1439","2","2","""event"",""trial"",""time""
""fullscreenenter"",""1"",""25119""
","
","
","""event"",""trial"",""time""
""fullscreenenter"",""1"",""25119""
","
","","","","","","null","<div style=""font-size:60px;"">+</div>","null","","fixation","","","","","","","","","","","","","",""
"learning-trial","159","701228","0.0-9.0-2.0-1.36","1439","2","2","""event"",""trial"",""time""
""fullscreenenter"",""1"",""25119""
","
","
","""event"",""trial"",""time""
""fullscreenenter"",""1"",""25119""
","
","","","","","","537","images/dog5.png","","","learning","images/pets_choice1.png","images/pets_choice3.png","images/pets_choice2.png","[0,2,1]","1","2","1","images/pets_choice1.png","-1","pets","","dog","2","0"
"html-keyboard-response","160","701731","0.0-9.0-2.0-0.37","1439","2","2","""event"",""trial"",""time""
""fullscreenenter"",""1"",""25119""
","
","
","""event"",""trial"",""time""
""fullscreenenter"",""1"",""25119""
","
","","","","","","null","<div style=""font-size:60px;"">+</div>","null","","fixation","","","","","","","","","","","","","",""
"learning-trial","161","705737","0.0-9.0-2.0-1.37","1439","2","2","""event"",""trial"",""time""
""fullscreenenter"",""1"",""25119""
","
","
","""event"",""trial"",""time""
""fullscreenenter"",""1"",""25119""
","
","","","","","","1596.7000000178814","images/dog2.png","","","learning","images/pets_choice1.png","images/pets_choice2.png","images/pets_choice3.png","[0,1,2]","0","0","3","images/pets_choice3.png","-1","pets","","dog","2","0"
"html-keyboard-response","162","706238","0.0-9.0-2.0-0.38","1439","2","2","""event"",""trial"",""time""
""fullscreenenter"",""1"",""25119""
","
","
","""event"",""trial"",""time""
""fullscreenenter"",""1"",""25119""
","
","","","","","","null","<div style=""font-size:60px;"">+</div>","null","","fixation","","","","","","","","","","","","","",""
"learning-trial","163","710242","0.0-9.0-2.0-1.38","1439","2","2","""event"",""trial"",""time""
""fullscreenenter"",""1"",""25119""
","
","
","""event"",""trial"",""time""
""fullscreenenter"",""1"",""25119""
","
","","","","","","838","images/feline3.png","","","learning","images/pets_choice2.png","images/pets_choice3.png","images/pets_choice1.png","[1,2,0]","1","0","1","images/pets_choice2.png","1","pets","","feline","2","0"
"html-keyboard-response","164","710745","0.0-9.0-2.0-0.39","1439","2","2","""event"",""trial"",""time""
""fullscreenenter"",""1"",""25119""
","
","
","""event"",""trial"",""time""
""fullscreenenter"",""1"",""25119""
","
","","","","","","null","<div style=""font-size:60px;"">+</div>","null","","fixation","","","","","","","","","","","","","",""
"learning-trial","165","714752","0.0-9.0-2.0-1.39","1439","2","2","""event"",""trial"",""time""
""fullscreenenter"",""1"",""25119""
","
","
","""event"",""trial"",""time""
""fullscreenenter"",""1"",""25119""
","
","","","","","","575.3000000119209","images/rabbit4.png","","","learning","images/pets_choice3.png","images/pets_choice2.png","images/pets_choice1.png","[2,1,0]","1","1","3","images/pets_choice1.png","-1","pets","","rabbit","2","0"
"html-keyboard-response","166","715257","0.0-9.0-2.0-0.40","1439","2","2","""event"",""trial"",""time""
""fullscreenenter"",""1"",""25119""
","
","
","""event"",""trial"",""time""
""fullscreenenter"",""1"",""25119""
","
","","","","","","null","<div style=""font-size:60px;"">+</div>","null","","fixation","","","","","","","","","","","","","",""
"learning-trial","167","719266","0.0-9.0-2.0-1.40","1439","2","2","""event"",""trial"",""time""
""fullscreenenter"",""1"",""25119""
","
","
","""event"",""trial"",""time""
""fullscreenenter"",""1"",""25119""
","
","","","","","","3542.0999999940395","images/rabbit2.png","","","learning","images/pets_choice1.png","images/pets_choice3.png","images/pets_choice2.png","[0,2,1]","0","0","2","images/pets_choice3.png","-1","pets","","rabbit","2","0"
"html-keyboard-response","168","719770","0.0-9.0-2.0-0.41","1439","2","2","""event"",""trial"",""time""
""fullscreenenter"",""1"",""25119""
","
","
","""event"",""trial"",""time""
""fullscreenenter"",""1"",""25119""
","
","","","","","","null","<div style=""font-size:60px;"">+</div>","null","","fixation","","","","","","","","","","","","","",""
"learning-trial","169","723776","0.0-9.0-2.0-1.41","1439","2","2","""event"",""trial"",""time""
""fullscreenenter"",""1"",""25119""
","
","
","""event"",""trial"",""time""
""fullscreenenter"",""1"",""25119""
","
","","","","","","1215.4000000059605","images/rabbit4.png","","","learning","images/pets_choice1.png","images/pets_choice2.png","images/pets_choice3.png","[0,1,2]","1","1","1","images/pets_choice1.png","-1","pets","","rabbit","2","0"
"html-keyboard-response","170","724278","0.0-9.0-2.0-0.42","1439","2","2","""event"",""trial"",""time""
""fullscreenenter"",""1"",""25119""
","
","
","""event"",""trial"",""time""
""fullscreenenter"",""1"",""25119""
","
","","","","","","null","<div style=""font-size:60px;"">+</div>","null","","fixation","","","","","","","","","","","","","",""
"learning-trial","171","728283","0.0-9.0-2.0-1.42","1439","2","2","""event"",""trial"",""time""
""fullscreenenter"",""1"",""25119""
","
","
","""event"",""trial"",""time""
""fullscreenenter"",""1"",""25119""
","
","","","","","","394.89999997615814","images/rabbit4.png","","","learning","images/pets_choice1.png","images/pets_choice2.png","images/pets_choice3.png","[0,1,2]","1","1","2","images/pets_choice2.png","1","pets","","rabbit","2","0"
"html-keyboard-response","172","728786","0.0-9.0-2.0-0.43","1439","2","2","""event"",""trial"",""time""
""fullscreenenter"",""1"",""25119""
","
","
","""event"",""trial"",""time""
""fullscreenenter"",""1"",""25119""
","
","","","","","","null","<div style=""font-size:60px;"">+</div>","null","","fixation","","","","","","","","","","","","","",""
"learning-trial","173","732792","0.0-9.0-2.0-1.43","1439","2","2","""event"",""trial"",""time""
""fullscreenenter"",""1"",""25119""
","
","
","""event"",""trial"",""time""
""fullscreenenter"",""1"",""25119""
","
","","","","","","576.9000000059605","images/dog4.png","","","learning","images/pets_choice3.png","images/pets_choice2.png","images/pets_choice1.png","[2,1,0]","2","0","2","images/pets_choice2.png","-1","pets","","dog","2","0"
"html-keyboard-response","174","733293","0.0-9.0-2.0-0.44","1439","2","2","""event"",""trial"",""time""
""fullscreenenter"",""1"",""25119""
","
","
","""event"",""trial"",""time""
""fullscreenenter"",""1"",""25119""
","
","","","","","","null","<div style=""font-size:60px;"">+</div>","null","","fixation","","","","","","","","","","","","","",""
"learning-trial","175","737303","0.0-9.0-2.0-1.44","1439","2","2","""event"",""trial"",""time""
""fullscreenenter"",""1"",""25119""
","
","
","""event"",""trial"",""time""
""fullscreenenter"",""1"",""25119""
","
","","","","","","505","images/feline4.png","","","learning","images/pets_choice1.png","images/pets_choice2.png","images/pets_choice3.png","[0,1,2]","2","2","1","images/pets_choice1.png","-1","pets","","feline","2","0"
"html-keyboard-response","176","737805","0.0-9.0-2.0-0.45","1439","2","2","""event"",""trial"",""time""
""fullscreenenter"",""1"",""25119""
","
","
","""event"",""trial"",""time""
""fullscreenenter"",""1"",""25119""
","
","","","","","","null","<div style=""font-size:60px;"">+</div>","null","","fixation","","","","","","","","","","","","","",""
"learning-trial","177","741810","0.0-9.0-2.0-1.45","1439","2","2","""event"",""trial"",""time""
""fullscreenenter"",""1"",""25119""
","
","
","""event"",""trial"",""time""
""fullscreenenter"",""1"",""25119""
","
","","","","","","434.80000001192093","images/feline4.png","","","learning","images/pets_choice3.png","images/pets_choice1.png","images/pets_choice2.png","[2,0,1]","2","0","2","images/pets_choice1.png","-1","pets","","feline","2","0"
"html-keyboard-response","178","742313","0.0-9.0-2.0-0.46","1439","2","2","""event"",""trial"",""time""
""fullscreenenter"",""1"",""25119""
","
","
","""event"",""trial"",""time""
""fullscreenenter"",""1"",""25119""
","
","","","","","","null","<div style=""font-size:60px;"">+</div>","null","","fixation","","","","","","","","","","","","","",""
"learning-trial","179","746330","0.0-9.0-2.0-1.46","1439","2","2","""event"",""trial"",""time""
""fullscreenenter"",""1"",""25119""
","
","
","""event"",""trial"",""time""
""fullscreenenter"",""1"",""25119""
","
","","","","","","1234.5999999940395","images/rabbit4.png","","","learning","images/pets_choice1.png","images/pets_choice2.png","images/pets_choice3.png","[0,1,2]","1","1","3","images/pets_choice3.png","-1","pets","","rabbit","2","0"
"html-keyboard-response","180","746833","0.0-9.0-2.0-0.47","1439","2","2","""event"",""trial"",""time""
""fullscreenenter"",""1"",""25119""
","
","
","""event"",""trial"",""time""
""fullscreenenter"",""1"",""25119""
","
","","","","","","null","<div style=""font-size:60px;"">+</div>","null","","fixation","","","","","","","","","","","","","",""
"learning-trial","181","750837","0.0-9.0-2.0-1.47","1439","2","2","""event"",""trial"",""time""
""fullscreenenter"",""1"",""25119""
","
","
","""event"",""trial"",""time""
""fullscreenenter"",""1"",""25119""
","
","","","","","","331.09999999403954","images/dog2.png","","","learning","images/pets_choice3.png","images/pets_choice2.png","images/pets_choice1.png","[2,1,0]","0","2","1","images/pets_choice3.png","-1","pets","","dog","2","0"
"html-keyboard-response","182","751341","0.0-9.0-2.0-0.48","1439","2","2","""event"",""trial"",""time""
""fullscreenenter"",""1"",""25119""
","
","
","""event"",""trial"",""time""
""fullscreenenter"",""1"",""25119""
","
","","","","","","null","<div style=""font-size:60px;"">+</div>","null","","fixation","","","","","","","","","","","","","",""
"learning-trial","183","755348","0.0-9.0-2.0-1.48","1439","2","2","""event"",""trial"",""time""
""fullscreenenter"",""1"",""25119""
","
","
","""event"",""trial"",""time""
""fullscreenenter"",""1"",""25119""
","
","","","","","","992.8000000119209","images/feline4.png","","","learning","images/pets_choice1.png","images/pets_choice3.png","images/pets_choice2.png","[0,2,1]","2","1","2","images/pets_choice3.png","1","pets","","feline","2","0"
"html-keyboard-response","184","755850","0.0-9.0-2.0-0.49","1439","2","2","""event"",""trial"",""time""
""fullscreenenter"",""1"",""25119""
","
","
","""event"",""trial"",""time""
""fullscreenenter"",""1"",""25119""
","
","","","","","","null","<div style=""font-size:60px;"">+</div>","null","","fixation","","","","","","","","","","","","","",""
"learning-trial","185","759854","0.0-9.0-2.0-1.49","1439","2","2","""event"",""trial"",""time""
""fullscreenenter"",""1"",""25119""
","
","
","""event"",""trial"",""time""
""fullscreenenter"",""1"",""25119""
","
","","","","","","569.7999999821186","images/rabbit5.png","","","learning","images/pets_choice1.png","images/pets_choice2.png","images/pets_choice3.png","[0,1,2]","2","2","3","images/pets_choice3.png","1","pets","","rabbit","2","0"
"html-keyboard-response","186","760356","0.0-9.0-2.0-0.50","1439","2","2","""event"",""trial"",""time""
""fullscreenenter"",""1"",""25119""
","
","
","""event"",""trial"",""time""
""fullscreenenter"",""1"",""25119""
","
","","","","","","null","<div style=""font-size:60px;"">+</div>","null","","fixation","","","","","","","","","","","","","",""
"learning-trial","187","764360","0.0-9.0-2.0-1.50","1439","2","2","""event"",""trial"",""time""
""fullscreenenter"",""1"",""25119""
","
","
","""event"",""trial"",""time""
""fullscreenenter"",""1"",""25119""
","
","","","","","","1848.1000000238419","images/dog5.png","","","learning","images/pets_choice3.png","images/pets_choice1.png","images/pets_choice2.png","[2,0,1]","1","2","2","images/pets_choice1.png","-1","pets","","dog","2","0"
"html-keyboard-response","188","764862","0.0-9.0-2.0-0.51","1439","2","2","""event"",""trial"",""time""
""fullscreenenter"",""1"",""25119""
","
","
","""event"",""trial"",""time""
""fullscreenenter"",""1"",""25119""
","
","","","","","","null","<div style=""font-size:60px;"">+</div>","null","","fixation","","","","","","","","","","","","","",""
"learning-trial","189","768868","0.0-9.0-2.0-1.51","1439","2","2","""event"",""trial"",""time""
""fullscreenenter"",""1"",""25119""
","
","
","""event"",""trial"",""time""
""fullscreenenter"",""1"",""25119""
","
","","","","","","655","images/dog5.png","","","learning","images/pets_choice2.png","images/pets_choice1.png","images/pets_choice3.png","[1,0,2]","1","0","1","images/pets_choice2.png","1","pets","","dog","2","0"
"html-keyboard-response","190","769369","0.0-9.0-2.0-0.52","1439","2","2","""event"",""trial"",""time""
""fullscreenenter"",""1"",""25119""
","
","
","""event"",""trial"",""time""
""fullscreenenter"",""1"",""25119""
","
","","","","","","null","<div style=""font-size:60px;"">+</div>","null","","fixation","","","","","","","","","","","","","",""
"learning-trial","191","773376","0.0-9.0-2.0-1.52","1439","2","2","""event"",""trial"",""time""
""fullscreenenter"",""1"",""25119""
","
","
","""event"",""trial"",""time""
""fullscreenenter"",""1"",""25119""
","
","","","","","","423.40000000596046","images/dog5.png","","","learning","images/pets_choice3.png","images/pets_choice1.png","images/pets_choice2.png","[2,0,1]","1","2","3","images/pets_choice2.png","1","pets","","dog","2","0"
"html-keyboard-response","192","773879","0.0-9.0-2.0-0.53","1439","2","2","""event"",""trial"",""time""
""fullscreenenter"",""1"",""25119""
","
","
","""event"",""trial"",""time""
""fullscreenenter"",""1"",""25119""
","
","","","","","","null","<div style=""font-size:60px;"">+</div>","null","","fixation","","","","","","","","","","","","","",""
"learning-trial","193","777885","0.0-9.0-2.0-1.53","1439","2","2","""event"",""trial"",""time""
""fullscreenenter"",""1"",""25119""
","
","
","""event"",""trial"",""time""
""fullscreenenter"",""1"",""25119""
","
","","","","","","534.5","images/rabbit4.png","","","learning","images/pets_choice2.png","images/pets_choice1.png","images/pets_choice3.png","[1,0,2]","1","0","2","images/pets_choice1.png","-1","pets","","rabbit","2","0"
"html-keyboard-response","194","778388","0.0-9.0-2.0-0.54","1439","2","2","""event"",""trial"",""time""
""fullscreenenter"",""1"",""25119""
","
","
","""event"",""trial"",""time""
""fullscreenenter"",""1"",""25119""
","
","","","","","","null","<div style=""font-size:60px;"">+</div>","null","","fixation","","","","","","","","","","","","","",""
"learning-trial","195","782396","0.0-9.0-2.0-1.54","1439","2","2","""event"",""trial"",""time""
""fullscreenenter"",""1"",""25119""
","
","
","""event"",""trial"",""time""
""fullscreenenter"",""1"",""25119""
","
","","","","","","674","images/dog2.png","","","learning","images/pets_choice1.png","images/pets_choice3.png","images/pets_choice2.png","[0,2,1]","0","0","1","images/pets_choice1.png","1","pets","","dog","2","0"
"html-keyboard-response","196","782900","0.0-9.0-2.0-0.55","1439","2","2","""event"",""trial"",""time""
""fullscreenenter"",""1"",""25119""
","
","
","""event"",""trial"",""time""
""fullscreenenter"",""1"",""25119""
","
","","","","","","null","<div style=""font-size:60px;"">+</div>","null","","fixation","","","","","","","","","","","","","",""
"learning-trial","197","786906","0.0-9.0-2.0-1.55","1439","2","2","""event"",""trial"",""time""
""fullscreenenter"",""1"",""25119""
","
","
","""event"",""trial"",""time""
""fullscreenenter"",""1"",""25119""
","
","","","","","","1533.800000011921","images/feline4.png","","","learning","images/pets_choice2.png","images/pets_choice1.png","images/pets_choice3.png","[1,0,2]","2","2","3","images/pets_choice3.png","1","pets","","feline","2","0"
"html-keyboard-response","198","787409","0.0-9.0-2.0-0.56","1439","2","2","""event"",""trial"",""time""
""fullscreenenter"",""1"",""25119""
","
","
","""event"",""trial"",""time""
""fullscreenenter"",""1"",""25119""
","
","","","","","","null","<div style=""font-size:60px;"">+</div>","null","","fixation","","","","","","","","","","","","","",""
"learning-trial","199","791411","0.0-9.0-2.0-1.56","1439","2","2","""event"",""trial"",""time""
""fullscreenenter"",""1"",""25119""
","
","
","""event"",""trial"",""time""
""fullscreenenter"",""1"",""25119""
","
","","","","","","706.5999999940395","images/rabbit5.png","","","learning","images/pets_choice2.png","images/pets_choice3.png","images/pets_choice1.png","[1,2,0]","2","1","1","images/pets_choice2.png","-1","pets","","rabbit","2","0"
"html-keyboard-response","200","791914","0.0-9.0-2.0-0.57","1439","2","2","""event"",""trial"",""time""
""fullscreenenter"",""1"",""25119""
","
","
","""event"",""trial"",""time""
""fullscreenenter"",""1"",""25119""
","
","","","","","","null","<div style=""font-size:60px;"">+</div>","null","","fixation","","","","","","","","","","","","","",""
"learning-trial","201","795920","0.0-9.0-2.0-1.57","1439","2","2","""event"",""trial"",""time""
""fullscreenenter"",""1"",""25119""
","
","
","""event"",""trial"",""time""
""fullscreenenter"",""1"",""25119""
","
","","","","","","438.10000002384186","images/feline3.png","","","learning","images/pets_choice1.png","images/pets_choice3.png","images/pets_choice2.png","[0,2,1]","1","2","3","images/pets_choice2.png","1","pets","","feline","2","0"
"html-keyboard-response","202","796424","0.0-9.0-2.0-0.58","1439","2","2","""event"",""trial"",""time""
""fullscreenenter"",""1"",""25119""
","
","
","""event"",""trial"",""time""
""fullscreenenter"",""1"",""25119""
","
","","","","","","null","<div style=""font-size:60px;"">+</div>","null","","fixation","","","","","","","","","","","","","",""
"learning-trial","203","800432","0.0-9.0-2.0-1.58","1439","2","2","""event"",""trial"",""time""
""fullscreenenter"",""1"",""25119""
","
","
","""event"",""trial"",""time""
""fullscreenenter"",""1"",""25119""
","
","","","","","","742.4000000059605","images/feline5.png","","","learning","images/pets_choice3.png","images/pets_choice1.png","images/pets_choice2.png","[2,0,1]","0","1","1","images/pets_choice3.png","-1","pets","","feline","2","0"
"html-keyboard-response","204","800934","0.0-9.0-2.0-0.59","1439","2","2","""event"",""trial"",""time""
""fullscreenenter"",""1"",""25119""
","
","
","""event"",""trial"",""time""
""fullscreenenter"",""1"",""25119""
","
","","","","","","null","<div style=""font-size:60px;"">+</div>","null","","fixation","","","","","","","","","","","","","",""
"learning-trial","205","804941","0.0-9.0-2.0-1.59","1439","2","2","""event"",""trial"",""time""
""fullscreenenter"",""1"",""25119""
","
","
","""event"",""trial"",""time""
""fullscreenenter"",""1"",""25119""
","
","","","","","","497.7999999821186","images/rabbit2.png","","","learning","images/pets_choice3.png","images/pets_choice1.png","images/pets_choice2.png","[2,0,1]","0","1","2","images/pets_choice1.png","1","pets","","rabbit","2","0"
"html-keyboard-response","206","805443","0.0-9.0-2.0-0.60","1439","2","2","""event"",""trial"",""time""
""fullscreenenter"",""1"",""25119""
","
","
","""event"",""trial"",""time""
""fullscreenenter"",""1"",""25119""
","
","","","","","","null","<div style=""font-size:60px;"">+</div>","null","","fixation","","","","","","","","","","","","","",""
"learning-trial","207","809449","0.0-9.0-2.0-1.60","1439","2","2","""event"",""trial"",""time""
""fullscreenenter"",""1"",""25119""
","
","
","""event"",""trial"",""time""
""fullscreenenter"",""1"",""25119""
","
","","","","","","541.0999999940395","images/feline4.png","","","learning","images/pets_choice2.png","images/pets_choice3.png","images/pets_choice1.png","[1,2,0]","2","1","3","images/pets_choice1.png","-1","pets","","feline","2","0"
"html-keyboard-response","208","809951","0.0-9.0-2.0-0.61","1439","2","2","""event"",""trial"",""time""
""fullscreenenter"",""1"",""25119""
","
","
","""event"",""trial"",""time""
""fullscreenenter"",""1"",""25119""
","
","","","","","","null","<div style=""font-size:60px;"">+</div>","null","","fixation","","","","","","","","","","","","","",""
"learning-trial","209","813957","0.0-9.0-2.0-1.61","1439","2","2","""event"",""trial"",""time""
""fullscreenenter"",""1"",""25119""
","
","
","""event"",""trial"",""time""
""fullscreenenter"",""1"",""25119""
","
","","","","","","491.19999998807907","images/dog4.png","","","learning","images/pets_choice2.png","images/pets_choice3.png","images/pets_choice1.png","[1,2,0]","2","1","1","images/pets_choice2.png","-1","pets","","dog","2","0"
"html-keyboard-response","210","814459","0.0-9.0-2.0-0.62","1439","2","2","""event"",""trial"",""time""
""fullscreenenter"",""1"",""25119""
","
","
","""event"",""trial"",""time""
""fullscreenenter"",""1"",""25119""
","
","","","","","","null","<div style=""font-size:60px;"">+</div>","null","","fixation","","","","","","","","","","","","","",""
"learning-trial","211","818467","0.0-9.0-2.0-1.62","1439","2","2","""event"",""trial"",""time""
""fullscreenenter"",""1"",""25119""
","
","
","""event"",""trial"",""time""
""fullscreenenter"",""1"",""25119""
","
","","","","","","443.5","images/feline3.png","","","learning","images/pets_choice3.png","images/pets_choice1.png","images/pets_choice2.png","[2,0,1]","1","2","2","images/pets_choice1.png","-1","pets","","feline","2","0"
"html-keyboard-response","212","818970","0.0-9.0-2.0-0.63","1439","2","2","""event"",""trial"",""time""
""fullscreenenter"",""1"",""25119""
","
","
","""event"",""trial"",""time""
""fullscreenenter"",""1"",""25119""
","
","","","","","","null","<div style=""font-size:60px;"">+</div>","null","","fixation","","","","","","","","","","","","","",""
"learning-trial","213","822978","0.0-9.0-2.0-1.63","1439","2","2","""event"",""trial"",""time""
""fullscreenenter"",""1"",""25119""
","
","
","""event"",""trial"",""time""
""fullscreenenter"",""1"",""25119""
","
","","","","","","1213.7999999821186","images/rabbit2.png","","","learning","images/pets_choice1.png","images/pets_choice2.png","images/pets_choice3.png","[0,1,2]","0","0","2","images/pets_choice2.png","-1","pets","","rabbit","2","0"
"html-keyboard-response","214","823481","0.0-9.0-2.0-0.64","1439","2","2","""event"",""trial"",""time""
""fullscreenenter"",""1"",""25119""
","
","
","""event"",""trial"",""time""
""fullscreenenter"",""1"",""25119""
","
","","","","","","null","<div style=""font-size:60px;"">+</div>","null","","fixation","","","","","","","","","","","","","",""
"learning-trial","215","827488","0.0-9.0-2.0-1.64","1439","2","2","""event"",""trial"",""time""
""fullscreenenter"",""1"",""25119""
","
","
","""event"",""trial"",""time""
""fullscreenenter"",""1"",""25119""
","
","","","","","","390.39999997615814","images/dog4.png","","","learning","images/pets_choice1.png","images/pets_choice2.png","images/pets_choice3.png","[0,1,2]","2","2","3","images/pets_choice3.png","1","pets","","dog","2","0"
"html-keyboard-response","216","827992","0.0-9.0-2.0-0.65","1439","2","2","""event"",""trial"",""time""
""fullscreenenter"",""1"",""25119""
","
","
","""event"",""trial"",""time""
""fullscreenenter"",""1"",""25119""
","
","","","","","","null","<div style=""font-size:60px;"">+</div>","null","","fixation","","","","","","","","","","","","","",""
"learning-trial","217","831999","0.0-9.0-2.0-1.65","1439","2","2","""event"",""trial"",""time""
""fullscreenenter"",""1"",""25119""
","
","
","""event"",""trial"",""time""
""fullscreenenter"",""1"",""25119""
","
","","","","","","367.30000001192093","images/dog4.png","","","learning","images/pets_choice2.png","images/pets_choice3.png","images/pets_choice1.png","[1,2,0]","2","1","1","images/pets_choice2.png","1","pets","","dog","2","0"
"html-keyboard-response","218","832502","0.0-9.0-2.0-0.66","1439","2","2","""event"",""trial"",""time""
""fullscreenenter"",""1"",""25119""
","
","
","""event"",""trial"",""time""
""fullscreenenter"",""1"",""25119""
","
","","","","","","null","<div style=""font-size:60px;"">+</div>","null","","fixation","","","","","","","","","","","","","",""
"learning-trial","219","836506","0.0-9.0-2.0-1.66","1439","2","2","""event"",""trial"",""time""
""fullscreenenter"",""1"",""25119""
","
","
","""event"",""trial"",""time""
""fullscreenenter"",""1"",""25119""
","
","","","","","","1082","images/dog4.png","","","learning","images/pets_choice3.png","images/pets_choice2.png","images/pets_choice1.png","[2,1,0]","2","0","2","images/pets_choice2.png","-1","pets","","dog","2","0"
"html-keyboard-response","220","837008","0.0-9.0-2.0-0.67","1439","2","2","""event"",""trial"",""time""
""fullscreenenter"",""1"",""25119""
","
","
","""event"",""trial"",""time""
""fullscreenenter"",""1"",""25119""
","
","","","","","","null","<div style=""font-size:60px;"">+</div>","null","","fixation","","","","","","","","","","","","","",""
"learning-trial","221","841018","0.0-9.0-2.0-1.67","1439","2","2","""event"",""trial"",""time""
""fullscreenenter"",""1"",""25119""
","
","
","""event"",""trial"",""time""
""fullscreenenter"",""1"",""25119""
","
","","","","","","502","images/rabbit2.png","","","learning","images/pets_choice2.png","images/pets_choice1.png","images/pets_choice3.png","[1,0,2]","0","1","3","images/pets_choice3.png","-1","pets","","rabbit","2","0"
"html-keyboard-response","222","841520","0.0-9.0-2.0-0.68","1439","2","2","""event"",""trial"",""time""
""fullscreenenter"",""1"",""25119""
","
","
","""event"",""trial"",""time""
""fullscreenenter"",""1"",""25119""
","
","","","","","","null","<div style=""font-size:60px;"">+</div>","null","","fixation","","","","","","","","","","","","","",""
"learning-trial","223","845527","0.0-9.0-2.0-1.68","1439","2","2","""event"",""trial"",""time""
""fullscreenenter"",""1"",""25119""
","
","
","""event"",""trial"",""time""
""fullscreenenter"",""1"",""25119""
","
","","","","","","520.3000000119209","images/feline3.png","","","learning","images/pets_choice2.png","images/pets_choice1.png","images/pets_choice3.png","[1,0,2]","1","0","1","images/pets_choice2.png","1","pets","","feline","2","0"
"html-keyboard-response","224","846029","0.0-9.0-2.0-0.69","1439","2","2","""event"",""trial"",""time""
""fullscreenenter"",""1"",""25119""
","
","
","""event"",""trial"",""time""
""fullscreenenter"",""1"",""25119""
","
","","","","","","null","<div style=""font-size:60px;"">+</div>","null","","fixation","","","","","","","","","","","","","",""
"learning-trial","225","850040","0.0-9.0-2.0-1.69","1439","2","2","""event"",""trial"",""time""
""fullscreenenter"",""1"",""25119""
","
","
","""event"",""trial"",""time""
""fullscreenenter"",""1"",""25119""
","
","","","","","","555.2999999821186","images/rabbit4.png","","","learning","images/pets_choice2.png","images/pets_choice3.png","images/pets_choice1.png","[1,2,0]","1","0","1","images/pets_choice2.png","1","pets","","rabbit","2","0"
"html-keyboard-response","226","850541","0.0-9.0-2.0-0.70","1439","2","2","""event"",""trial"",""time""
""fullscreenenter"",""1"",""25119""
","
","
","""event"",""trial"",""time""
""fullscreenenter"",""1"",""25119""
","
","","","","","","null","<div style=""font-size:60px;"">+</div>","null","","fixation","","","","","","","","","","","","","",""
"learning-trial","227","854546","0.0-9.0-2.0-1.70","1439","2","2","""event"",""trial"",""time""
""fullscreenenter"",""1"",""25119""
","
","
","""event"",""trial"",""time""
""fullscreenenter"",""1"",""25119""
","
","","","","","","468.59999999403954","images/rabbit4.png","","","learning","images/pets_choice1.png","images/pets_choice2.png","images/pets_choice3.png","[0,1,2]","1","1","3","images/pets_choice3.png","-1","pets","","rabbit","2","0"
"html-keyboard-response","228","855048","0.0-9.0-2.0-0.71","1439","2","2","""event"",""trial"",""time""
""fullscreenenter"",""1"",""25119""
","
","
","""event"",""trial"",""time""
""fullscreenenter"",""1"",""25119""
","
","","","","","","null","<div style=""font-size:60px;"">+</div>","null","","fixation","","","","","","","","","","","","","",""
"learning-trial","229","859056","0.0-9.0-2.0-1.71","1439","2","2","""event"",""trial"",""time""
""fullscreenenter"",""1"",""25119""
","
","
","""event"",""trial"",""time""
""fullscreenenter"",""1"",""25119""
","
","","","","","","1263.0999999940395","images/dog4.png","","","learning","images/pets_choice1.png","images/pets_choice3.png","images/pets_choice2.png","[0,2,1]","2","1","1","images/pets_choice1.png","-1","pets","","dog","2","0"
"html-button-response","230","863404","0.0-9.0-3.0","1439","2","2","""event"",""trial"",""time""
""fullscreenenter"",""1"",""25119""
","
","
","""event"",""trial"",""time""
""fullscreenenter"",""1"",""25119""
","
","","","","","","4342.699999988079","<p> You have completed the round! <p> In this round, you earned -20 points! </p>","0","","break","","","","","","","","","","","","","",""
"html-button-response","231","865356","0.0-10.0","1439","2","2","""event"",""trial"",""time""
""fullscreenenter"",""1"",""25119""
","
","
","""event"",""trial"",""time""
""fullscreenenter"",""1"",""25119""
","
","","","","","","1951.199999988079","<p> Now it's time to play another round. </p>","0","","transition_screen","","","","","","","","","","","","","",""
"preload","232","868338","0.0-11.0-0.0","1439","2","2","""event"",""trial"",""time""
""fullscreenenter"",""1"",""25119""
","
","
","""event"",""trial"",""time""
""fullscreenenter"",""1"",""25119""
","
","true","false","[]","[]","[]","","","","","","","","","","","","","","","","","","",""
"learning-instructions","233","878213","0.0-11.0-1.0-0.0","1439","2","2","""event"",""trial"",""time""
""fullscreenenter"",""1"",""25119""
","
","
","""event"",""trial"",""time""
""fullscreenenter"",""1"",""25119""
","
","","","","","","1354","<p> Your goal in this round is to travel the world by putting fuel into different vehicles. </p><p> To travel, you will need to put fuel into many different vehicles. </p></div>","","0","instructions","","","","","","","","","","","","","",""
"learning-instructions","234","888539","0.0-11.0-1.0-0.1","1439","2","2","""event"",""trial"",""time""
""fullscreenenter"",""1"",""25119""
","
","
","""event"",""trial"",""time""
""fullscreenenter"",""1"",""25119""
","
","","","","","","1540.6000000238419","<p> On each turn, you will see a picture of one of your vehicles and three different types of fuel.  </p><p> You need to select which kind of fuel to use.  </p>","","0","instructions","","","","","","","","","","","","","",""
"learning-instructions","235","897481","0.0-11.0-1.0-0.2","1439","2","2","""event"",""trial"",""time""
""fullscreenenter"",""1"",""25119""
","
","
","""event"",""trial"",""time""
""fullscreenenter"",""1"",""25119""
","
","","","","","","2070.4000000059605","<p> You can select the fuel on the left by pressing 1, the fuel in the middle by pressing 2, and the fuel on the right by pressing 3. </p><br><div class=""choice-instructions-grid""> <div class=""choice-option""><img src=""images/vehicles_choice1.png"" class=""choice-option-img"" stage=""instructions"" position=""0"" ><div class=""choice-option-text""> Press ""1."" </div></div><div class=""choice-option""><img src=""images/vehicles_choice2.png"" class=""choice-option-img"" stage=""instructions"" position=""1"" ><div class=""choice-option-text""> Press ""2."" </div></div><div class=""choice-option""><img src=""images/vehicles_choice3.png"" class=""choice-option-img"" stage=""instructions"" position=""2"" ><div class=""choice-option-text""> Press ""3."" </div></div></div>","","0","instructions","","","","","","","","","","","","","",""
"learning-instructions","236","906137","0.0-11.0-1.0-0.3","1439","2","2","""event"",""trial"",""time""
""fullscreenenter"",""1"",""25119""
","
","
","""event"",""trial"",""time""
""fullscreenenter"",""1"",""25119""
","
","","","","","","3419.9000000059605","<p> If the fuel you chose works for that vehicle, it will start, and </p><p> you will get to travel. </p><div style='float: center;'><img src='images/check.png' width = '200' height = '200'></img>","","0","instructions","","","","","","","","","","","","","",""
"learning-instructions","237","911937","0.0-11.0-1.0-0.4","1439","2","2","""event"",""trial"",""time""
""fullscreenenter"",""1"",""25119""
","
","
","""event"",""trial"",""time""
""fullscreenenter"",""1"",""25119""
","
