"trial_type","trial_index","time_elapsed","internal_node_id","subject_id","condition","task_version","interactions","blur_events","focus_events","fullscreenenter_events","fullscreenexit_events","success","timeout","failed_images","failed_audio","failed_video","rt","stimulus","response","button_pressed","task_part","left_choice","middle_choice","right_choice","choice_positions","correct_response","correct_position","key_press","option_selected","points","task_block","correct","stim_cat","block_condition","block_number"
"pavlovia","0","9","0.0-0.0","1436","2","2","""event"",""trial"",""time""
""fullscreenenter"",""1"",""12000""
","
","
","""event"",""trial"",""time""
""fullscreenenter"",""1"",""12000""
","
","","","","","","","","","","","","","","","","","","","","","","","",""
"fullscreen","1","12961","0.0-1.0","1436","2","2","""event"",""trial"",""time""
""fullscreenenter"",""1"",""12000""
","
","
","""event"",""trial"",""time""
""fullscreenenter"",""1"",""12000""
","
","true","","","","","","","","","","","","","","","","","","","","","","",""
"preload","2","27721","0.0-2.0","1436","2","2","""event"",""trial"",""time""
""fullscreenenter"",""1"",""12000""
","
","
","""event"",""trial"",""time""
""fullscreenenter"",""1"",""12000""
","
","true","false","[]","[]","[]","","","","","","","","","","","","","","","","","","",""
"audio-keyboard-response","3","44947","0.0-3.0","1436","2","2","""event"",""trial"",""time""
""fullscreenenter"",""1"",""12000""
","
","
","""event"",""trial"",""time""
""fullscreenenter"",""1"",""12000""
","
","","","","","","17226.666666666668","audio/beep_loop.wav"," ","","","","","","","","","","","","","","","",""
"audio-button-response","4","47748","0.0-4.0","1436","2","2","""event"",""trial"",""time""
""fullscreenenter"",""1"",""12000""
","
","
","""event"",""trial"",""time""
""fullscreenenter"",""1"",""12000""
","
","","","","","","2795","audio/shark.wav","4","","","","","","","","","","","","","","","",""
"audio-button-response","5","50466","0.0-5.0","1436","2","2","""event"",""trial"",""time""
""fullscreenenter"",""1"",""12000""
","
","
","""event"",""trial"",""time""
""fullscreenenter"",""1"",""12000""
","
","","","","","","1707","audio/turtle.wav","1","","","","","","","","","","","","","","","",""
"preload","6","59140","0.0-6.0","1436","2","2","""event"",""trial"",""time""
""fullscreenenter"",""1"",""12000""
","
","
","""event"",""trial"",""time""
""fullscreenenter"",""1"",""12000""
","
","true","false","[]","[]","[]","","","","","","","","","","","","","","","","","","",""
"html-keyboard-response","7","62085","0.0-7.0","1436","2","2","""event"",""trial"",""time""
""fullscreenenter"",""1"",""12000""
","
","
","""event"",""trial"",""time""
""fullscreenenter"",""1"",""12000""
","
","","","","","","2940.5","Welcome to the experiment. Press any key to begin and to advance the instructions."," ","","","","","","","","","","","","","","","",""
"learning-instructions","8","90739","0.0-8.0-0.0-0.0","1436","2","2","""event"",""trial"",""time""
""fullscreenenter"",""1"",""12000""
","
","
","""event"",""trial"",""time""
""fullscreenenter"",""1"",""12000""
","
","","","","","","20895.69999998808","<p> Welcome! Today you are going to play 6 different rounds of a decision-making game. </p><p> Use the mouse to click next to continue. </p>","","0","instructions","","","","","","","","","","","","","",""
"learning-instructions","9","98419","0.0-8.0-0.0-0.1","1436","2","2","""event"",""trial"",""time""
""fullscreenenter"",""1"",""12000""
","
","
","""event"",""trial"",""time""
""fullscreenenter"",""1"",""12000""
","
","","","","","","4671.699999988079","<p> You will start with a practice round to learn the rules. </p>","","0","instructions","","","","","","","","","","","","","",""
"learning-instructions","10","107251","0.0-8.0-0.0-0.2","1436","2","2","""event"",""trial"",""time""
""fullscreenenter"",""1"",""12000""
","
","
","""event"",""trial"",""time""
""fullscreenenter"",""1"",""12000""
","
","","","","","","1089.6000000238419","<p> Your goal in this round is to deliver sports equipment to three different parks. </p><p> You will need to deliver many types of equipment. </p></div>","","0","instructions","","","","","","","","","","","","","",""
"learning-instructions","11","116587","0.0-8.0-0.0-0.3","1436","2","2","""event"",""trial"",""time""
""fullscreenenter"",""1"",""12000""
","
","
","""event"",""trial"",""time""
""fullscreenenter"",""1"",""12000""
","
","","","","","","844.1999999880791","<p> On each turn, you will see one piece of sports equipment and three different parks.  </p><p> You need to select which park to deliver the equipment to.  </p>","","0","instructions","","","","","","","","","","","","","",""
"learning-instructions","12","137061","0.0-8.0-0.0-0.4","1436","2","2","""event"",""trial"",""time""
""fullscreenenter"",""1"",""12000""
","
","
","""event"",""trial"",""time""
""fullscreenenter"",""1"",""12000""
","
","","","","","","7179.699999988079","<p> You can select the park on the left by pressing the '1' key on your keyboard. <br>You can select the park in the middle by pressing the '2' key on your keyboard. <br>You can select the park on the right by pressing the '3' key on your keyboard.  </p><br><div class=""choice-instructions-grid""> <div class=""choice-option""><img src=""images/park1.png"" class=""choice-option-img"" stage=""instructions"" position=""0"" ><div class=""choice-option-text""> Press ""1."" </div></div><div class=""choice-option""><img src=""images/park2.png"" class=""choice-option-img"" stage=""instructions"" position=""1"" ><div class=""choice-option-text""> Press ""2."" </div></div><div class=""choice-option""><img src=""images/park3.png"" class=""choice-option-img"" stage=""instructions"" position=""2"" ><div class=""choice-option-text""> Press ""3."" </div></div></div>","","0","instructions","","","","","","","","","","","","","",""
"learning-instructions","13","145314","0.0-8.0-0.0-0.5","1436","2","2","""event"",""trial"",""time""
""fullscreenenter"",""1"",""12000""
","
","
","""event"",""trial"",""time""
""fullscreenenter"",""1"",""12000""
","
","","","","","","2873.5","<p> If the kids in the park you chose like the equipment, they will be very happy! </p><div style='float: center;'><img src='images/check.png' width = '200' height = '200'></img>","","0","instructions","","","","","","","","","","","","","",""
"learning-instructions","14","153379","0.0-8.0-0.0-0.6","1436","2","2","""event"",""trial"",""time""
""fullscreenenter"",""1"",""12000""
","
","
","""event"",""trial"",""time""
""fullscreenenter"",""1"",""12000""
","
","","","","","","2474.199999988079","<p> But, if the kids in the park you chose do not like the equipment, they will be sad. </p><div style='float: center;'><img src='images/x.png' width = '200' height = '200'></img>","","0","instructions","","","","","","","","","","","","","",""
"learning-instructions","15","160883","0.0-8.0-0.0-0.7","1436","2","2","""event"",""trial"",""time""
""fullscreenenter"",""1"",""12000""
","
","
","""event"",""trial"",""time""
""fullscreenenter"",""1"",""12000""
","
","","","","","","1077.5","<p> Importantly, the kids in each park like some pieces of sports equipment more than others. </p>","","0","instructions","","","","","","","","","","","","","",""
"learning-instructions","16","167986","0.0-8.0-0.0-0.8","1436","2","2","""event"",""trial"",""time""
""fullscreenenter"",""1"",""12000""
","
","
","""event"",""trial"",""time""
""fullscreenenter"",""1"",""12000""
","
","","","","","","1044.800000011921","<p> If you choose the best park for each piece of equipment, the kids there will usually be happy. </p>","","0","instructions","","","","","","","","","","","","","",""
"learning-instructions","17","175432","0.0-8.0-0.0-0.9","1436","2","2","""event"",""trial"",""time""
""fullscreenenter"",""1"",""12000""
","
","
","""event"",""trial"",""time""
""fullscreenenter"",""1"",""12000""
","
","","","","","","793.1999999880791","<p> However, even if you choose the best park for the equipment, the kids may sometimes be sad. </p>","","0","instructions","","","","","","","","","","","","","",""
"learning-instructions","18","184579","0.0-8.0-0.0-0.10","1436","2","2","""event"",""trial"",""time""
""fullscreenenter"",""1"",""12000""
","
","
","""event"",""trial"",""time""
""fullscreenenter"",""1"",""12000""
","
","","","","","","1906.199999988079","<p> Similarly, even if you choose the <i>wrong</i> park for the equipment, the kids may still be happy sometimes.","","0","instructions","","","","","","","","","","","","","",""
"learning-instructions","19","190635","0.0-8.0-0.0-0.11","1436","2","2","""event"",""trial"",""time""
""fullscreenenter"",""1"",""12000""
","
","
","""event"",""trial"",""time""
""fullscreenenter"",""1"",""12000""
","
","","","","","","960.4000000357628","<p> For example, the best park for this soccer ball is this one.<div style='float: center;'><img src='images/i1.png' width = '500' height = '268'></img>","","0","instructions","","","","","","","","","","","","","",""
"learning-instructions","20","197947","0.0-8.0-0.0-0.12","1436","2","2","""event"",""trial"",""time""
""fullscreenenter"",""1"",""12000""
","
","
","""event"",""trial"",""time""
""fullscreenenter"",""1"",""12000""
","
","","","","","","2022.800000011921","<p> Let's see what happens if you choose this park for the soccer ball five times.","","0","instructions","","","","","","","","","","","","","",""
"learning-instructions","21","201659","0.0-8.0-0.0-0.13","1436","2","2","""event"",""trial"",""time""
""fullscreenenter"",""1"",""12000""
","
","
","""event"",""trial"",""time""
""fullscreenenter"",""1"",""12000""
","
","","","","","","1532.699999988079","<p> The kids are happy.<div style='float: left;'><img src='images/i2.png' width = '640' height = '360'></img>","","0","instructions","","","","","","","","","","","","","",""
"learning-instructions","22","204298","0.0-8.0-0.0-0.14","1436","2","2","""event"",""trial"",""time""
""fullscreenenter"",""1"",""12000""
","
","
","""event"",""trial"",""time""
""fullscreenenter"",""1"",""12000""
","
","","","","","","459.5","<p> The kids are happy.<div style='float: left;'><img src='images/i3.png' width = '640' height = '360'></img>","","0","instructions","","","","","","","","","","","","","",""
"learning-instructions","23","206876","0.0-8.0-0.0-0.15","1436","2","2","""event"",""trial"",""time""
""fullscreenenter"",""1"",""12000""
","
","
","""event"",""trial"",""time""
""fullscreenenter"",""1"",""12000""
","
","","","","","","402.80000001192093","<p> The kids are happy.<div style='float: left;'><img src='images/i4.png' width = '640' height = '360'></img>","","0","instructions","","","","","","","","","","","","","",""
"learning-instructions","24","209531","0.0-8.0-0.0-0.16","1436","2","2","""event"",""trial"",""time""
""fullscreenenter"",""1"",""12000""
","
","
","""event"",""trial"",""time""
""fullscreenenter"",""1"",""12000""
","
","","","","","","442.7000000476837","<p> The kids are sad.<div style='float: left;'><img src='images/i5.png' width = '640' height = '360'></img>","","0","instructions","","","","","","","","","","","","","",""
"learning-instructions","25","212315","0.0-8.0-0.0-0.17","1436","2","2","""event"",""trial"",""time""
""fullscreenenter"",""1"",""12000""
","
","
","""event"",""trial"",""time""
""fullscreenenter"",""1"",""12000""
","
","","","","","","604.4000000357628","<p> The kids are happy.<div style='float: left;'><img src='images/i6.png' width = '640' height = '360'></img>","","0","instructions","","","","","","","","","","","","","",""
"learning-instructions","26","220818","0.0-8.0-0.0-0.18","1436","2","2","""event"",""trial"",""time""
""fullscreenenter"",""1"",""12000""
","
","
","""event"",""trial"",""time""
""fullscreenenter"",""1"",""12000""
","
","","","","","","1236.5999999642372","<p> As you can see, selecting that park for the soccer ball made the kids happy most of the time, but not all the time.","","0","instructions","","","","","","","","","","","","","",""
"learning-instructions","27","227530","0.0-8.0-0.0-0.19","1436","2","2","""event"",""trial"",""time""
""fullscreenenter"",""1"",""12000""
","
","
","""event"",""trial"",""time""
""fullscreenenter"",""1"",""12000""
","
","","","","","","707","<p> Now let's see what happens if you choose a DIFFERENT park for the soccer ball 5 times.","","0","instructions","","","","","","","","","","","","","",""
"learning-instructions","28","230203","0.0-8.0-0.0-0.20","1436","2","2","""event"",""trial"",""time""
""fullscreenenter"",""1"",""12000""
","
","
","""event"",""trial"",""time""
""fullscreenenter"",""1"",""12000""
","
","","","","","","464.69999998807907","<p> The kids are sad.<div style='float: left;'><img src='images/i7.png' width = '640' height = '360'></img>","","0","instructions","","","","","","","","","","","","","",""
"learning-instructions","29","232781","0.0-8.0-0.0-0.21","1436","2","2","""event"",""trial"",""time""
""fullscreenenter"",""1"",""12000""
","
","
","""event"",""trial"",""time""
""fullscreenenter"",""1"",""12000""
","
","","","","","","376.10000002384186","<p> The kids are sad.<div style='float: left;'><img src='images/i8.png' width = '640' height = '360'></img>","","0","instructions","","","","","","","","","","","","","",""
"learning-instructions","30","235323","0.0-8.0-0.0-0.22","1436","2","2","""event"",""trial"",""time""
""fullscreenenter"",""1"",""12000""
","
","
","""event"",""trial"",""time""
""fullscreenenter"",""1"",""12000""
","
","","","","","","369.89999997615814","<p> The kids are happy.<div style='float: left;'><img src='images/i9.png' width = '640' height = '360'></img>","","0","instructions","","","","","","","","","","","","","",""
"learning-instructions","31","237971","0.0-8.0-0.0-0.23","1436","2","2","""event"",""trial"",""time""
""fullscreenenter"",""1"",""12000""
","
","
","""event"",""trial"",""time""
""fullscreenenter"",""1"",""12000""
","
","","","","","","435.7000000476837","<p> The kids are sad.<div style='float: left;'><img src='images/i10.png' width = '640' height = '360'></img>","","0","instructions","","","","","","","","","","","","","",""
"learning-instructions","32","240610","0.0-8.0-0.0-0.24","1436","2","2","""event"",""trial"",""time""
""fullscreenenter"",""1"",""12000""
","
","
","""event"",""trial"",""time""
""fullscreenenter"",""1"",""12000""
","
","","","","","","431.19999998807907","<p> The kids are sad.<div style='float: left;'><img src='images/i11.png' width = '640' height = '360'></img>","","0","instructions","","","","","","","","","","","","","",""
"learning-instructions","33","249418","0.0-8.0-0.0-0.25","1436","2","2","""event"",""trial"",""time""
""fullscreenenter"",""1"",""12000""
","
","
","""event"",""trial"",""time""
""fullscreenenter"",""1"",""12000""
","
","","","","","","684.6000000238419","<p> As you can see, selecting the wrong park for the soccer ball made the kids sad most of the time, but not all the time.","","0","instructions","","","","","","","","","","","","","",""
"learning-instructions","34","260247","0.0-8.0-0.0-0.26","1436","2","2","""event"",""trial"",""time""
""fullscreenenter"",""1"",""12000""
","
","
","""event"",""trial"",""time""
""fullscreenenter"",""1"",""12000""
","
","","","","","","1697.7999999523163","<p> The different pieces of equipment belong in different parks. You need to try to learn which is the best park for each piece of equipment.","","0","instructions","","","","","","","","","","","","","",""
"learning-instructions","35","277059","0.0-8.0-0.0-0.27","1436","2","2","""event"",""trial"",""time""
""fullscreenenter"",""1"",""12000""
","
","
","""event"",""trial"",""time""
""fullscreenenter"",""1"",""12000""
","
","","","","","","398.19999998807907","<p> Try to choose the best park for each piece of equipment, because you will <b> WIN </b> 1 point for each time you make the kids happy and <b>LOSE</b> 1 point for each time you make them sad. </p><p> Remember, if you make the best choice, you will win 1 point most of the time, but not all the time. </p>","","0","instructions","","","","","","","","","","","","","",""
"learning-instructions","36","283522","0.0-8.0-0.0-0.28","1436","2","2","""event"",""trial"",""time""
""fullscreenenter"",""1"",""12000""
","
","
","""event"",""trial"",""time""
""fullscreenenter"",""1"",""12000""
","
","","","","","","985.0999999642372","<p> This is just a practice round, but in the real game, your bonus payment will depend on your total number of points.","","0","instructions","","","","","","","","","","","","","",""
"learning-instructions","37","298251","0.0-8.0-0.0-0.29","1436","2","2","""event"",""trial"",""time""
""fullscreenenter"",""1"",""12000""
","
","
","""event"",""trial"",""time""
""fullscreenenter"",""1"",""12000""
","
","","","","","","4406.900000035763","<p> The position where each park appears will change throughout the game. </p><p> The position where the park appears <i> does not </i> influence how likely the kids are to be happy or sad. </p>","","0","instructions","","","","","","","","","","","","","",""
"learning-instructions","38","313011","0.0-8.0-0.0-0.30","1436","2","2","""event"",""trial"",""time""
""fullscreenenter"",""1"",""12000""
","
","
","""event"",""trial"",""time""
""fullscreenenter"",""1"",""12000""
","
","","","","","","3167.399999976158","<p> You will have 4 seconds to make each choice. Try to respond before time runs out! </p><p> You will lose 1 point each time you do not make a response. </p>","","0","instructions","","","","","","","","","","","","","",""
"learning-instructions","39","321098","0.0-8.0-0.0-0.31","1436","2","2","""event"",""trial"",""time""
""fullscreenenter"",""1"",""12000""
","
","
","""event"",""trial"",""time""
""fullscreenenter"",""1"",""12000""
","
","","","","","","1290.800000011921","<p> Remember, you should use the 1, 2, and 3 keys to select the park for each piece of equipment. </p><br><div class=""choice-instructions-grid""> <div class=""choice-option""><img src=""images/park1.png"" class=""choice-option-img"" stage=""instructions"" position=""0"" ><div class=""choice-option-text""> Press ""1."" </div></div><div class=""choice-option""><img src=""images/park2.png"" class=""choice-option-img"" stage=""instructions"" position=""1"" ><div class=""choice-option-text""> Press ""2."" </div></div><div class=""choice-option""><img src=""images/park3.png"" class=""choice-option-img"" stage=""instructions"" position=""2"" ><div class=""choice-option-text""> Press ""3."" </div></div></div>","","0","instructions","","","","","","","","","","","","","",""
"html-button-response","40","322691","0.0-8.0-1.0","1436","2","2","""event"",""trial"",""time""
""fullscreenenter"",""1"",""12000""
","
","
","""event"",""trial"",""time""
""fullscreenenter"",""1"",""12000""
","
","","","","","","1484.6000000238419","<p> Ready to practice? </p>","0","","","","","","","","","","","","","","","",""
"html-keyboard-response","41","323295","0.0-8.0-2.0-0.0","1436","2","2","""event"",""trial"",""time""
""fullscreenenter"",""1"",""12000""
","
","
","""event"",""trial"",""time""
""fullscreenenter"",""1"",""12000""
","
","","","","","","null","<div style=""font-size:60px;"">+</div>","null","","fixation","","","","","","","","","","","","","",""
"learning-trial","42","327325","0.0-8.0-2.0-1.0","1436","2","2","""event"",""trial"",""time""
""fullscreenenter"",""1"",""12000""
","
","
","""event"",""trial"",""time""
""fullscreenenter"",""1"",""12000""
","
","","","","","","2086.699999988079","images/racket1.png","","","practice","images/park1.png","images/park2.png","images/park3.png","[0,1,2]","1","1","1","images/park1.png","-1","practice","","","",""
"html-keyboard-response","43","327827","0.0-8.0-2.0-0.1","1436","2","2","""event"",""trial"",""time""
""fullscreenenter"",""1"",""12000""
","
","
","""event"",""trial"",""time""
""fullscreenenter"",""1"",""12000""
","
","","","","","","null","<div style=""font-size:60px;"">+</div>","null","","fixation","","","","","","","","","","","","","",""
"learning-trial","44","331836","0.0-8.0-2.0-1.1","1436","2","2","""event"",""trial"",""time""
""fullscreenenter"",""1"",""12000""
","
","
","""event"",""trial"",""time""
""fullscreenenter"",""1"",""12000""
","
","","","","","","1939.6000000238419","images/ball2.png","","","practice","images/park2.png","images/park3.png","images/park1.png","[1,2,0]","0","2","3","images/park1.png","1","practice","","","",""
"html-keyboard-response","45","332339","0.0-8.0-2.0-0.2","1436","2","2","""event"",""trial"",""time""
""fullscreenenter"",""1"",""12000""
","
","
","""event"",""trial"",""time""
""fullscreenenter"",""1"",""12000""
","
","","","","","","null","<div style=""font-size:60px;"">+</div>","null","","fixation","","","","","","","","","","","","","",""
"learning-trial","46","336351","0.0-8.0-2.0-1.2","1436","2","2","""event"",""trial"",""time""
""fullscreenenter"",""1"",""12000""
","
","
","""event"",""trial"",""time""
""fullscreenenter"",""1"",""12000""
","
","","","","","","2355.900000035763","images/racket3.png","","","practice","images/park3.png","images/park1.png","images/park2.png","[2,0,1]","2","0","2","images/park1.png","-1","practice","","","",""
"html-keyboard-response","47","336854","0.0-8.0-2.0-0.3","1436","2","2","""event"",""trial"",""time""
""fullscreenenter"",""1"",""12000""
","
","
","""event"",""trial"",""time""
""fullscreenenter"",""1"",""12000""
","
","","","","","","null","<div style=""font-size:60px;"">+</div>","null","","fixation","","","","","","","","","","","","","",""
"learning-trial","48","340865","0.0-8.0-2.0-1.3","1436","2","2","""event"",""trial"",""time""
""fullscreenenter"",""1"",""12000""
","
","
","""event"",""trial"",""time""
""fullscreenenter"",""1"",""12000""
","
","","","","","","1907","images/ball2.png","","","practice","images/park3.png","images/park2.png","images/park1.png","[2,1,0]","0","2","3","images/park1.png","1","practice","","","",""
"html-keyboard-response","49","341368","0.0-8.0-2.0-0.4","1436","2","2","""event"",""trial"",""time""
""fullscreenenter"",""1"",""12000""
","
","
","""event"",""trial"",""time""
""fullscreenenter"",""1"",""12000""
","
","","","","","","null","<div style=""font-size:60px;"">+</div>","null","","fixation","","","","","","","","","","","","","",""
"learning-trial","50","345378","0.0-8.0-2.0-1.4","1436","2","2","""event"",""trial"",""time""
""fullscreenenter"",""1"",""12000""
","
","
","""event"",""trial"",""time""
""fullscreenenter"",""1"",""12000""
","
","","","","","","1965.800000011921","images/racket2.png","","","practice","images/park3.png","images/park1.png","images/park2.png","[2,0,1]","1","2","1","images/park3.png","-1","practice","","","",""
"html-keyboard-response","51","345881","0.0-8.0-2.0-0.5","1436","2","2","""event"",""trial"",""time""
""fullscreenenter"",""1"",""12000""
","
","
","""event"",""trial"",""time""
""fullscreenenter"",""1"",""12000""
","
","","","","","","null","<div style=""font-size:60px;"">+</div>","null","","fixation","","","","","","","","","","","","","",""
"learning-trial","52","349893","0.0-8.0-2.0-1.5","1436","2","2","""event"",""trial"",""time""
""fullscreenenter"",""1"",""12000""
","
","
","""event"",""trial"",""time""
""fullscreenenter"",""1"",""12000""
","
","","","","","","1892","images/racket2.png","","","practice","images/park1.png","images/park3.png","images/park2.png","[0,2,1]","1","2","3","images/park2.png","1","practice","","","",""
"html-keyboard-response","53","350397","0.0-8.0-2.0-0.6","1436","2","2","""event"",""trial"",""time""
""fullscreenenter"",""1"",""12000""
","
","
","""event"",""trial"",""time""
""fullscreenenter"",""1"",""12000""
","
","","","","","","null","<div style=""font-size:60px;"">+</div>","null","","fixation","","","","","","","","","","","","","",""
"learning-trial","54","354408","0.0-8.0-2.0-1.6","1436","2","2","""event"",""trial"",""time""
""fullscreenenter"",""1"",""12000""
","
","
","""event"",""trial"",""time""
""fullscreenenter"",""1"",""12000""
","
","","","","","","1652.5","images/ball3.png","","","practice","images/park3.png","images/park1.png","images/park2.png","[2,0,1]","2","0","2","images/park1.png","-1","practice","","","",""
"html-keyboard-response","55","354911","0.0-8.0-2.0-0.7","1436","2","2","""event"",""trial"",""time""
""fullscreenenter"",""1"",""12000""
","
","
","""event"",""trial"",""time""
""fullscreenenter"",""1"",""12000""
","
","","","","","","null","<div style=""font-size:60px;"">+</div>","null","","fixation","","","","","","","","","","","","","",""
"learning-trial","56","358922","0.0-8.0-2.0-1.7","1436","2","2","""event"",""trial"",""time""
""fullscreenenter"",""1"",""12000""
","
","
","""event"",""trial"",""time""
""fullscreenenter"",""1"",""12000""
","
","","","","","","2275.099999964237","images/ball1.png","","","practice","images/park1.png","images/park2.png","images/park3.png","[0,1,2]","0","0","1","images/park1.png","1","practice","","","",""
"html-keyboard-response","57","359425","0.0-8.0-2.0-0.8","1436","2","2","""event"",""trial"",""time""
""fullscreenenter"",""1"",""12000""
","
","
","""event"",""trial"",""time""
""fullscreenenter"",""1"",""12000""
","
","","","","","","null","<div style=""font-size:60px;"">+</div>","null","","fixation","","","","","","","","","","","","","",""
"learning-trial","58","363435","0.0-8.0-2.0-1.8","1436","2","2","""event"",""trial"",""time""
""fullscreenenter"",""1"",""12000""
","
","
","""event"",""trial"",""time""
""fullscreenenter"",""1"",""12000""
","
","","","","","","1815.699999988079","images/racket3.png","","","practice","images/park2.png","images/park3.png","images/park1.png","[1,2,0]","2","1","1","images/park2.png","-1","practice","","","",""
"html-keyboard-response","59","363938","0.0-8.0-2.0-0.9","1436","2","2","""event"",""trial"",""time""
""fullscreenenter"",""1"",""12000""
","
","
","""event"",""trial"",""time""
""fullscreenenter"",""1"",""12000""
","
","","","","","","null","<div style=""font-size:60px;"">+</div>","null","","fixation","","","","","","","","","","","","","",""
"learning-trial","60","367948","0.0-8.0-2.0-1.9","1436","2","2","""event"",""trial"",""time""
""fullscreenenter"",""1"",""12000""
","
","
","""event"",""trial"",""time""
""fullscreenenter"",""1"",""12000""
","
","","","","","","1573.3999999761581","images/ball1.png","","","practice","images/park1.png","images/park3.png","images/park2.png","[0,2,1]","0","0","1","images/park1.png","1","practice","","","",""
"html-keyboard-response","61","368451","0.0-8.0-2.0-0.10","1436","2","2","""event"",""trial"",""time""
""fullscreenenter"",""1"",""12000""
","
","
","""event"",""trial"",""time""
""fullscreenenter"",""1"",""12000""
","
","","","","","","null","<div style=""font-size:60px;"">+</div>","null","","fixation","","","","","","","","","","","","","",""
"learning-trial","62","372466","0.0-8.0-2.0-1.10","1436","2","2","""event"",""trial"",""time""
""fullscreenenter"",""1"",""12000""
","
","
","""event"",""trial"",""time""
""fullscreenenter"",""1"",""12000""
","
","","","","","","2198.5","images/racket1.png","","","practice","images/park3.png","images/park1.png","images/park2.png","[2,0,1]","1","2","2","images/park1.png","-1","practice","","","",""
"html-keyboard-response","63","372970","0.0-8.0-2.0-0.11","1436","2","2","""event"",""trial"",""time""
""fullscreenenter"",""1"",""12000""
","
","
","""event"",""trial"",""time""
""fullscreenenter"",""1"",""12000""
","
","","","","","","null","<div style=""font-size:60px;"">+</div>","null","","fixation","","","","","","","","","","","","","",""
"learning-trial","64","376985","0.0-8.0-2.0-1.11","1436","2","2","""event"",""trial"",""time""
""fullscreenenter"",""1"",""12000""
","
","
","""event"",""trial"",""time""
""fullscreenenter"",""1"",""12000""
","
","","","","","","1191","images/ball3.png","","","practice","images/park3.png","images/park1.png","images/park2.png","[2,0,1]","2","0","1","images/park3.png","-1","practice","","","",""
"html-button-response","65","378931","0.0-8.0-3.0","1436","2","2","""event"",""trial"",""time""
""fullscreenenter"",""1"",""12000""
","
","
","""event"",""trial"",""time""
""fullscreenenter"",""1"",""12000""
","
","","","","","","1938.6000000238419","<p> You earned -2 points in the practice round! </p>","0","","break","","","","","","","","","","","","","",""
"learning-instructions","66","388196","0.0-8.0-4.0-0.0","1436","2","2","""event"",""trial"",""time""
""fullscreenenter"",""1"",""12000""
","
","
","""event"",""trial"",""time""
""fullscreenenter"",""1"",""12000""
","
","","","","","","1353","<p> It's almost time to start the real game. </p><p> Before you start, we're going to ask you a few questions about how the game works. </p>","","0","instructions","","","","","","","","","","","","","",""
"preload","67","391331","0.0-8.0-5.0","1436","2","2","""event"",""trial"",""time""
""fullscreenenter"",""1"",""12000""
","
","
","""event"",""trial"",""time""
""fullscreenenter"",""1"",""12000""
","
","true","false","[]","[]","[]","","","","","","","","","","","","","","","","","","",""
"comp-q","68","398213","0.0-8.0-6.0-0.0","1436","2","2","""event"",""trial"",""time""
""fullscreenenter"",""1"",""12000""
","
","
","""event"",""trial"",""time""
""fullscreenenter"",""1"",""12000""
","
","","","","","","1427.800000011921","<p> <b> True or False? </b> </p><p> If you choose the best option, you will always earn 1 point. </p>","","1","comp_question","","","","","","","","","","","true","","",""
"comp-q","69","405818","0.0-8.0-6.0-1.0","1436","2","2","""event"",""trial"",""time""
""fullscreenenter"",""1"",""12000""
","
","
","""event"",""trial"",""time""
""fullscreenenter"",""1"",""12000""
","
","","","","","","1940.699999988079","<p><b> That's right! </b> Sometimes you will lose 1 point, even if you choose the best option. </p>","","0","comp_answer","","","","","","","","","","","","","",""
"comp-q","70","412011","0.0-8.0-6.0-0.1","1436","2","2","""event"",""trial"",""time""
""fullscreenenter"",""1"",""12000""
","
","
","""event"",""trial"",""time""
""fullscreenenter"",""1"",""12000""
","
","","","","","","1552.5","<p> <b> True or False? </b> </p><p> You will have as much time as you want to make each choice. </p>","","1","comp_question","","","","","","","","","","","true","","",""
"comp-q","71","425131","0.0-8.0-6.0-1.1","1436","2","2","""event"",""trial"",""time""
""fullscreenenter"",""1"",""12000""
","
","
","""event"",""trial"",""time""
""fullscreenenter"",""1"",""12000""
","
","","","","","","8304.399999976158","<p> <b> That's right! </b> You will only have 4 seconds to make each choice. </p>","","0","comp_answer","","","","","","","","","","","","","",""
"comp-q","72","432128","0.0-8.0-6.0-0.2","1436","2","2","""event"",""trial"",""time""
""fullscreenenter"",""1"",""12000""
","
","
","""event"",""trial"",""time""
""fullscreenenter"",""1"",""12000""
","
","","","","","","847.8000000119209","<p> <b> True or False? </b> </p><p> You should use the '1', '2', and '3' keys to make your choices. </p>","","0","comp_question","","","","","","","","","","","true","","",""
"comp-q","73","438275","0.0-8.0-6.0-1.2","1436","2","2","""event"",""trial"",""time""
""fullscreenenter"",""1"",""12000""
","
","
","""event"",""trial"",""time""
""fullscreenenter"",""1"",""12000""
","
","","","","","","1298.7999999523163","<p> <b> That's right! </b> You should use the '1', '2', and '3' keys to make each choice. </p>","","0","comp_answer","","","","","","","","","","","","","",""
"learning-instructions","74","447890","0.0-8.0-7.0-0.0","1436","2","2","""event"",""trial"",""time""
""fullscreenenter"",""1"",""12000""
","
","
","""event"",""trial"",""time""
""fullscreenenter"",""1"",""12000""
","
","","","","","","1122.0999999642372","<p> It's now time to start the real game. </p>Do your best, because the points you earn in the next rounds will influence your bonus payment. </p>","","0","instructions","","","","","","","","","","","","","",""
"preload","75","453779","0.0-9.0-0.0","1436","2","2","""event"",""trial"",""time""
""fullscreenenter"",""1"",""12000""
","
","
","""event"",""trial"",""time""
""fullscreenenter"",""1"",""12000""
","
","true","false","[]","[]","[]","","","","","","","","","","","","","","","","","","",""
"learning-instructions","76","461011","0.0-9.0-1.0-0.0","1436","2","2","""event"",""trial"",""time""
""fullscreenenter"",""1"",""12000""
","
","
","""event"",""trial"",""time""
""fullscreenenter"",""1"",""12000""
","
","","","","","","738.9000000357628","<p> Your goal in this round is to buy different types of fruits. </p><p> You will try to purchase many fruits from different stores. </p></div>","","0","instructions","","","","","","","","","","","","","",""
"learning-instructions","77","476854","0.0-9.0-1.0-0.1","1436","2","2","""event"",""trial"",""time""
""fullscreenenter"",""1"",""12000""
","
","
","""event"",""trial"",""time""
""fullscreenenter"",""1"",""12000""
","
","","","","","","7344.5","<p> On each turn, you will see a picture of a fruit and three different stores.  </p><p> You need to select the store where you can buy that fruit.  </p>","","0","instructions","","","","","","","","","","","","","",""
"learning-instructions","78","485483","0.0-9.0-1.0-0.2","1436","2","2","""event"",""trial"",""time""
""fullscreenenter"",""1"",""12000""
","
","
","""event"",""trial"",""time""
""fullscreenenter"",""1"",""12000""
","
","","","","","","1251.199999988079","<p> You can select the store on the left by pressing 1, the store in the middle by pressing 2, and the store on the right by pressing 3. </p><br><div class=""choice-instructions-grid""> <div class=""choice-option""><img src=""images/fruit_choice1.png"" class=""choice-option-img"" stage=""instructions"" position=""0"" ><div class=""choice-option-text""> Press ""1."" </div></div><div class=""choice-option""><img src=""images/fruit_choice2.png"" class=""choice-option-img"" stage=""instructions"" position=""1"" ><div class=""choice-option-text""> Press ""2."" </div></div><div class=""choice-option""><img src=""images/fruit_choice3.png"" class=""choice-option-img"" stage=""instructions"" position=""2"" ><div class=""choice-option-text""> Press ""3."" </div></div></div>","","0","instructions","","","","","","","","","","","","","",""
"learning-instructions","79","491546","0.0-9.0-1.0-0.3","1436","2","2","""event"",""trial"",""time""
""fullscreenenter"",""1"",""12000""
","
","
","""event"",""trial"",""time""
""fullscreenenter"",""1"",""12000""
","
","","","","","","1119.5","<p> If you find the fruit in the store you chose, you will get to buy and eat it! </p><div style='float: center;'><img src='images/check.png' width = '200' height = '200'></img>","","0","instructions","","","","","","","","","","","","","",""
"learning-instructions","80","504746","0.0-9.0-1.0-0.4","1436","2","2","""event"",""trial"",""time""
""fullscreenenter"",""1"",""12000""
","
","
","""event"",""trial"",""time""
""fullscreenenter"",""1"",""12000""
","
","","","","","","8730.5","<p> But, if the fruit is not in that store, you will be hungry. </p><div style='float: center;'><img src='images/x.png' width = '200' height = '200'></img>","","0","instructions","","","","","","","","","","","","","",""
"learning-instructions","81","517019","0.0-9.0-1.0-0.5","1436","2","2","""event"",""trial"",""time""
""fullscreenenter"",""1"",""12000""
","
","
","""event"",""trial"",""time""
""fullscreenenter"",""1"",""12000""
","
","","","","","","2496.099999964237","<p> Importantly, each fruit is more likely to be found in one of the stores. </p><p> If you choose the correct store, you will be more likely to be able to buy the fruit! </p>","","0","instructions","","","","","","","","","","","","","",""
"learning-instructions","82","528547","0.0-9.0-1.0-0.6","1436","2","2","""event"",""trial"",""time""
""fullscreenenter"",""1"",""12000""
","
","
","""event"",""trial"",""time""
""fullscreenenter"",""1"",""12000""
","
","","","","","","1074.1000000238419","<p> However, even if you choose the best store for the fruit, the store might not have it sometimes. </p><p> Similarly, even if you choose the <i>wrong</i> store, it might still have the fruit.","","0","instructions","","","","","","","","","","","","","",""
"learning-instructions","83","544202","0.0-9.0-1.0-0.7","1436","2","2","""event"",""trial"",""time""
""fullscreenenter"",""1"",""12000""
","
","
","""event"",""trial"",""time""
""fullscreenenter"",""1"",""12000""
","
","","","","","","3462.300000011921","<p> Try to choose the best store for each fruit, because you will <b> WIN </b> 1 point for each fruit you eat and <b>LOSE</b> 1 point each time you are hungry. </p><p> Your bonus payment will depend on your total number of points.","","0","instructions","","","","","","","","","","","","","",""
"learning-instructions","84","553315","0.0-9.0-1.0-0.8","1436","2","2","""event"",""trial"",""time""
""fullscreenenter"",""1"",""12000""
","
","
","""event"",""trial"",""time""
""fullscreenenter"",""1"",""12000""
","
","","","","","","904.6000000238419","<p> The position of each store will change throughout the round. </p><p> The store's position <i> does not </i> influence how likely you are to find the fruit. </p>","","0","instructions","","","","","","","","","","","","","",""
"learning-instructions","85","564586","0.0-9.0-1.0-0.9","1436","2","2","""event"",""trial"",""time""
""fullscreenenter"",""1"",""12000""
","
","
","""event"",""trial"",""time""
""fullscreenenter"",""1"",""12000""
","
","","","","","","1978.8999999761581","<p> You will have 4 seconds to make each choice. Try to respond before time runs out! </p><p> You will lose 1 point each time you do not make a response. </p>","","0","instructions","","","","","","","","","","","","","",""
"html-keyboard-response","86","565190","0.0-9.0-2.0-0.0","1436","2","2","""event"",""trial"",""time""
""fullscreenenter"",""1"",""12000""
","
","
","""event"",""trial"",""time""
""fullscreenenter"",""1"",""12000""
","
","","","","","","null","<div style=""font-size:60px;"">+</div>","null","","fixation","","","","","","","","","","","","","",""
"learning-trial","87","569204","0.0-9.0-2.0-1.0","1436","2","2","""event"",""trial"",""time""
""fullscreenenter"",""1"",""12000""
","
","
","""event"",""trial"",""time""
""fullscreenenter"",""1"",""12000""
","
","","","","","","1476.5","images/orange2.png","","","learning","images/fruit_choice1.png","images/fruit_choice2.png","images/fruit_choice3.png","[0,1,2]","0","0","1","images/fruit_choice1.png","1","fruit","","orange","2","0"
"html-keyboard-response","88","569707","0.0-9.0-2.0-0.1","1436","2","2","""event"",""trial"",""time""
""fullscreenenter"",""1"",""12000""
","
","
","""event"",""trial"",""time""
""fullscreenenter"",""1"",""12000""
","
","","","","","","null","<div style=""font-size:60px;"">+</div>","null","","fixation","","","","","","","","","","","","","",""
"learning-trial","89","573718","0.0-9.0-2.0-1.1","1436","2","2","""event"",""trial"",""time""
""fullscreenenter"",""1"",""12000""
","
","
","""event"",""trial"",""time""
""fullscreenenter"",""1"",""12000""
","
","","","","","","1570","images/orange2.png","","","learning","images/fruit_choice2.png","images/fruit_choice1.png","images/fruit_choice3.png","[1,0,2]","0","1","2","images/fruit_choice1.png","1","fruit","","orange","2","0"
"html-keyboard-response","90","574222","0.0-9.0-2.0-0.2","1436","2","2","""event"",""trial"",""time""
""fullscreenenter"",""1"",""12000""
","
","
","""event"",""trial"",""time""
""fullscreenenter"",""1"",""12000""
","
","","","","","","null","<div style=""font-size:60px;"">+</div>","null","","fixation","","","","","","","","","","","","","",""
"learning-trial","91","578233","0.0-9.0-2.0-1.2","1436","2","2","""event"",""trial"",""time""
""fullscreenenter"",""1"",""12000""
","
","
","""event"",""trial"",""time""
""fullscreenenter"",""1"",""12000""
","
","","","","","","1994.2000000476837","images/straw1.png","","","learning","images/fruit_choice1.png","images/fruit_choice3.png","images/fruit_choice2.png","[0,2,1]","0","0","3","images/fruit_choice2.png","-1","fruit","","straw","2","0"
"html-keyboard-response","92","578736","0.0-9.0-2.0-0.3","1436","2","2","""event"",""trial"",""time""
""fullscreenenter"",""1"",""12000""
","
","
","""event"",""trial"",""time""
""fullscreenenter"",""1"",""12000""
","
","","","","","","null","<div style=""font-size:60px;"">+</div>","null","","fixation","","","","","","","","","","","","","",""
"learning-trial","93","582748","0.0-9.0-2.0-1.3","1436","2","2","""event"",""trial"",""time""
""fullscreenenter"",""1"",""12000""
","
","
","""event"",""trial"",""time""
""fullscreenenter"",""1"",""12000""
","
","","","","","","2061.600000023842","images/orange5.png","","","learning","images/fruit_choice3.png","images/fruit_choice1.png","images/fruit_choice2.png","[2,0,1]","2","0","2","images/fruit_choice1.png","-1","fruit","","orange","2","0"
"html-keyboard-response","94","583250","0.0-9.0-2.0-0.4","1436","2","2","""event"",""trial"",""time""
""fullscreenenter"",""1"",""12000""
","
","
","""event"",""trial"",""time""
""fullscreenenter"",""1"",""12000""
","
","","","","","","null","<div style=""font-size:60px;"">+</div>","null","","fixation","","","","","","","","","","","","","",""
"learning-trial","95","587262","0.0-9.0-2.0-1.4","1436","2","2","""event"",""trial"",""time""
""fullscreenenter"",""1"",""12000""
","
","
","""event"",""trial"",""time""
""fullscreenenter"",""1"",""12000""
","
","","","","","","2120.399999976158","images/orange1.png","","","learning","images/fruit_choice2.png","images/fruit_choice3.png","images/fruit_choice1.png","[1,2,0]","1","0","2","images/fruit_choice3.png","-1","fruit","","orange","2","0"
"html-keyboard-response","96","587765","0.0-9.0-2.0-0.5","1436","2","2","""event"",""trial"",""time""
""fullscreenenter"",""1"",""12000""
","
","
","""event"",""trial"",""time""
""fullscreenenter"",""1"",""12000""
","
","","","","","","null","<div style=""font-size:60px;"">+</div>","null","","fixation","","","","","","","","","","","","","",""
"learning-trial","97","591776","0.0-9.0-2.0-1.5","1436","2","2","""event"",""trial"",""time""
""fullscreenenter"",""1"",""12000""
","
","
","""event"",""trial"",""time""
""fullscreenenter"",""1"",""12000""
","
","","","","","","1790.5999999642372","images/straw5.png","","","learning","images/fruit_choice2.png","images/fruit_choice1.png","images/fruit_choice3.png","[1,0,2]","2","2","1","images/fruit_choice2.png","-1","fruit","","straw","2","0"
"html-keyboard-response","98","592281","0.0-9.0-2.0-0.6","1436","2","2","""event"",""trial"",""time""
""fullscreenenter"",""1"",""12000""
","
","
","""event"",""trial"",""time""
""fullscreenenter"",""1"",""12000""
","
","","","","","","null","<div style=""font-size:60px;"">+</div>","null","","fixation","","","","","","","","","","","","","",""
"learning-trial","99","596290","0.0-9.0-2.0-1.6","1436","2","2","""event"",""trial"",""time""
""fullscreenenter"",""1"",""12000""
","
","
","""event"",""trial"",""time""
""fullscreenenter"",""1"",""12000""
","
","","","","","","1895.0999999642372","images/banana1.png","","","learning","images/fruit_choice1.png","images/fruit_choice3.png","images/fruit_choice2.png","[0,2,1]","2","1","2","images/fruit_choice3.png","1","fruit","","banana","2","0"
"html-keyboard-response","100","596792","0.0-9.0-2.0-0.7","1436","2","2","""event"",""trial"",""time""
""fullscreenenter"",""1"",""12000""
","
","
","""event"",""trial"",""time""
""fullscreenenter"",""1"",""12000""
","
","","","","","","null","<div style=""font-size:60px;"">+</div>","null","","fixation","","","","","","","","","","","","","",""
"learning-trial","101","600811","0.0-9.0-2.0-1.7","1436","2","2","""event"",""trial"",""time""
""fullscreenenter"",""1"",""12000""
","
","
","""event"",""trial"",""time""
""fullscreenenter"",""1"",""12000""
","
","","","","","","1748.2999999523163","images/straw4.png","","","learning","images/fruit_choice3.png","images/fruit_choice2.png","images/fruit_choice1.png","[2,1,0]","1","1","1","images/fruit_choice3.png","-1","fruit","","straw","2","0"
"html-keyboard-response","102","601314","0.0-9.0-2.0-0.8","1436","2","2","""event"",""trial"",""time""
""fullscreenenter"",""1"",""12000""
","
","
","""event"",""trial"",""time""
""fullscreenenter"",""1"",""12000""
","
","","","","","","null","<div style=""font-size:60px;"">+</div>","null","","fixation","","","","","","","","","","","","","",""
"learning-trial","103","605325","0.0-9.0-2.0-1.8","1436","2","2","""event"",""trial"",""time""
""fullscreenenter"",""1"",""12000""
","
","
","""event"",""trial"",""time""
""fullscreenenter"",""1"",""12000""
","
","","","","","","1425.5","images/straw5.png","","","learning","images/fruit_choice1.png","images/fruit_choice2.png","images/fruit_choice3.png","[0,1,2]","2","2","2","images/fruit_choice2.png","-1","fruit","","straw","2","0"
"html-keyboard-response","104","605829","0.0-9.0-2.0-0.9","1436","2","2","""event"",""trial"",""time""
""fullscreenenter"",""1"",""12000""
","
","
","""event"",""trial"",""time""
""fullscreenenter"",""1"",""12000""
","
","","","","","","null","<div style=""font-size:60px;"">+</div>","null","","fixation","","","","","","","","","","","","","",""
"learning-trial","105","609837","0.0-9.0-2.0-1.9","1436","2","2","""event"",""trial"",""time""
""fullscreenenter"",""1"",""12000""
","
","
","""event"",""trial"",""time""
""fullscreenenter"",""1"",""12000""
","
","","","","","","2070.399999976158","images/straw5.png","","","learning","images/fruit_choice1.png","images/fruit_choice3.png","images/fruit_choice2.png","[0,2,1]","2","1","3","images/fruit_choice2.png","-1","fruit","","straw","2","0"
"html-keyboard-response","106","610341","0.0-9.0-2.0-0.10","1436","2","2","""event"",""trial"",""time""
""fullscreenenter"",""1"",""12000""
","
","
","""event"",""trial"",""time""
""fullscreenenter"",""1"",""12000""
","
","","","","","","null","<div style=""font-size:60px;"">+</div>","null","","fixation","","","","","","","","","","","","","",""
"learning-trial","107","614352","0.0-9.0-2.0-1.10","1436","2","2","""event"",""trial"",""time""
""fullscreenenter"",""1"",""12000""
","
","
","""event"",""trial"",""time""
""fullscreenenter"",""1"",""12000""
","
","","","","","","1655.8999999761581","images/banana3.png","","","learning","images/fruit_choice3.png","images/fruit_choice2.png","images/fruit_choice1.png","[2,1,0]","1","1","2","images/fruit_choice2.png","1","fruit","","banana","2","0"
"html-keyboard-response","108","614855","0.0-9.0-2.0-0.11","1436","2","2","""event"",""trial"",""time""
""fullscreenenter"",""1"",""12000""
","
","
","""event"",""trial"",""time""
""fullscreenenter"",""1"",""12000""
","
","","","","","","null","<div style=""font-size:60px;"">+</div>","null","","fixation","","","","","","","","","","","","","",""
"learning-trial","109","618866","0.0-9.0-2.0-1.11","1436","2","2","""event"",""trial"",""time""
""fullscreenenter"",""1"",""12000""
","
","
","""event"",""trial"",""time""
""fullscreenenter"",""1"",""12000""
","
","","","","","","1137.3999999761581","images/banana5.png","","","learning","images/fruit_choice3.png","images/fruit_choice2.png","images/fruit_choice1.png","[2,1,0]","0","2","2","images/fruit_choice2.png","-1","fruit","","banana","2","0"
"html-keyboard-response","110","619369","0.0-9.0-2.0-0.12","1436","2","2","""event"",""trial"",""time""
""fullscreenenter"",""1"",""12000""
","
","
","""event"",""trial"",""time""
""fullscreenenter"",""1"",""12000""
","
","","","","","","null","<div style=""font-size:60px;"">+</div>","null","","fixation","","","","","","","","","","","","","",""
"learning-trial","111","623379","0.0-9.0-2.0-1.12","1436","2","2","""event"",""trial"",""time""
""fullscreenenter"",""1"",""12000""
","
","
","""event"",""trial"",""time""
""fullscreenenter"",""1"",""12000""
","
","","","","","","630.6000000238419","images/straw1.png","","","learning","images/fruit_choice3.png","images/fruit_choice2.png","images/fruit_choice1.png","[2,1,0]","0","2","1","images/fruit_choice3.png","-1","fruit","","straw","2","0"
"html-keyboard-response","112","623884","0.0-9.0-2.0-0.13","1436","2","2","""event"",""trial"",""time""
""fullscreenenter"",""1"",""12000""
","
","
","""event"",""trial"",""time""
""fullscreenenter"",""1"",""12000""
","
","","","","","","null","<div style=""font-size:60px;"">+</div>","null","","fixation","","","","","","","","","","","","","",""
"learning-trial","113","627896","0.0-9.0-2.0-1.13","1436","2","2","""event"",""trial"",""time""
""fullscreenenter"",""1"",""12000""
","
","
","""event"",""trial"",""time""
""fullscreenenter"",""1"",""12000""
","
","","","","","","674.8999999761581","images/orange2.png","","","learning","images/fruit_choice2.png","images/fruit_choice3.png","images/fruit_choice1.png","[1,2,0]","0","2","3","images/fruit_choice1.png","-1","fruit","","orange","2","0"
"html-keyboard-response","114","628400","0.0-9.0-2.0-0.14","1436","2","2","""event"",""trial"",""time""
""fullscreenenter"",""1"",""12000""
","
","
","""event"",""trial"",""time""
""fullscreenenter"",""1"",""12000""
","
","","","","","","null","<div style=""font-size:60px;"">+</div>","null","","fixation","","","","","","","","","","","","","",""
"learning-trial","115","632410","0.0-9.0-2.0-1.14","1436","2","2","""event"",""trial"",""time""
""fullscreenenter"",""1"",""12000""
","
","
","""event"",""trial"",""time""
""fullscreenenter"",""1"",""12000""
","
","","","","","","713.6999999880791","images/straw1.png","","","learning","images/fruit_choice2.png","images/fruit_choice3.png","images/fruit_choice1.png","[1,2,0]","0","2","2","images/fruit_choice3.png","-1","fruit","","straw","2","0"
"html-keyboard-response","116","632915","0.0-9.0-2.0-0.15","1436","2","2","""event"",""trial"",""time""
""fullscreenenter"",""1"",""12000""
","
","
","""event"",""trial"",""time""
""fullscreenenter"",""1"",""12000""
","
","","","","","","null","<div style=""font-size:60px;"">+</div>","null","","fixation","","","","","","","","","","","","","",""
"learning-trial","117","636925","0.0-9.0-2.0-1.15","1436","2","2","""event"",""trial"",""time""
""fullscreenenter"",""1"",""12000""
","
","
","""event"",""trial"",""time""
""fullscreenenter"",""1"",""12000""
","
","","","","","","607","images/banana5.png","","","learning","images/fruit_choice2.png","images/fruit_choice3.png","images/fruit_choice1.png","[1,2,0]","0","2","1","images/fruit_choice2.png","1","fruit","","banana","2","0"
"html-keyboard-response","118","637427","0.0-9.0-2.0-0.16","1436","2","2","""event"",""trial"",""time""
""fullscreenenter"",""1"",""12000""
","
","
","""event"",""trial"",""time""
""fullscreenenter"",""1"",""12000""
","
","","","","","","null","<div style=""font-size:60px;"">+</div>","null","","fixation","","","","","","","","","","","","","",""
"learning-trial","119","641439","0.0-9.0-2.0-1.16","1436","2","2","""event"",""trial"",""time""
""fullscreenenter"",""1"",""12000""
","
","
","""event"",""trial"",""time""
""fullscreenenter"",""1"",""12000""
","
","","","","","","709.0999999642372","images/straw4.png","","","learning","images/fruit_choice3.png","images/fruit_choice2.png","images/fruit_choice1.png","[2,1,0]","1","1","2","images/fruit_choice2.png","1","fruit","","straw","2","0"
"html-keyboard-response","120","641942","0.0-9.0-2.0-0.17","1436","2","2","""event"",""trial"",""time""
""fullscreenenter"",""1"",""12000""
","
","
","""event"",""trial"",""time""
""fullscreenenter"",""1"",""12000""
","
","","","","","","null","<div style=""font-size:60px;"">+</div>","null","","fixation","","","","","","","","","","","","","",""
"learning-trial","121","645954","0.0-9.0-2.0-1.17","1436","2","2","""event"",""trial"",""time""
""fullscreenenter"",""1"",""12000""
","
","
","""event"",""trial"",""time""
""fullscreenenter"",""1"",""12000""
","
","","","","","","725.3999999761581","images/orange1.png","","","learning","images/fruit_choice1.png","images/fruit_choice2.png","images/fruit_choice3.png","[0,1,2]","1","1","3","images/fruit_choice3.png","-1","fruit","","orange","2","0"
"html-keyboard-response","122","646458","0.0-9.0-2.0-0.18","1436","2","2","""event"",""trial"",""time""
""fullscreenenter"",""1"",""12000""
","
","
","""event"",""trial"",""time""
""fullscreenenter"",""1"",""12000""
","
","","","","","","null","<div style=""font-size:60px;"">+</div>","null","","fixation","","","","","","","","","","","","","",""
"learning-trial","123","650468","0.0-9.0-2.0-1.18","1436","2","2","""event"",""trial"",""time""
""fullscreenenter"",""1"",""12000""
","
","
","""event"",""trial"",""time""
""fullscreenenter"",""1"",""12000""
","
","","","","","","842.5999999642372","images/banana5.png","","","learning","images/fruit_choice1.png","images/fruit_choice3.png","images/fruit_choice2.png","[0,2,1]","0","0","2","images/fruit_choice3.png","-1","fruit","","banana","2","0"
"html-keyboard-response","124","650973","0.0-9.0-2.0-0.19","1436","2","2","""event"",""trial"",""time""
""fullscreenenter"",""1"",""12000""
","
","
","""event"",""trial"",""time""
""fullscreenenter"",""1"",""12000""
","
","","","","","","null","<div style=""font-size:60px;"">+</div>","null","","fixation","","","","","","","","","","","","","",""
"learning-trial","125","654983","0.0-9.0-2.0-1.19","1436","2","2","""event"",""trial"",""time""
""fullscreenenter"",""1"",""12000""
","
","
","""event"",""trial"",""time""
""fullscreenenter"",""1"",""12000""
","
","","","","","","532.1000000238419","images/banana3.png","","","learning","images/fruit_choice1.png","images/fruit_choice3.png","images/fruit_choice2.png","[0,2,1]","1","2","1","images/fruit_choice1.png","-1","fruit","","banana","2","0"
"html-keyboard-response","126","655486","0.0-9.0-2.0-0.20","1436","2","2","""event"",""trial"",""time""
""fullscreenenter"",""1"",""12000""
","
","
","""event"",""trial"",""time""
""fullscreenenter"",""1"",""12000""
","
","","","","","","null","<div style=""font-size:60px;"">+</div>","null","","fixation","","","","","","","","","","","","","",""
"learning-trial","127","659497","0.0-9.0-2.0-1.20","1436","2","2","""event"",""trial"",""time""
""fullscreenenter"",""1"",""12000""
","
","
","""event"",""trial"",""time""
""fullscreenenter"",""1"",""12000""
","
","","","","","","429.5","images/banana3.png","","","learning","images/fruit_choice2.png","images/fruit_choice1.png","images/fruit_choice3.png","[1,0,2]","1","0","2","images/fruit_choice1.png","-1","fruit","","banana","2","0"
"html-keyboard-response","128","660000","0.0-9.0-2.0-0.21","1436","2","2","""event"",""trial"",""time""
""fullscreenenter"",""1"",""12000""
","
","
","""event"",""trial"",""time""
""fullscreenenter"",""1"",""12000""
","
","","","","","","null","<div style=""font-size:60px;"">+</div>","null","","fixation","","","","","","","","","","","","","",""
"learning-trial","129","664011","0.0-9.0-2.0-1.21","1436","2","2","""event"",""trial"",""time""
""fullscreenenter"",""1"",""12000""
","
","
","""event"",""trial"",""time""
""fullscreenenter"",""1"",""12000""
","
","","","","","","290.5","images/banana3.png","","","learning","images/fruit_choice1.png","images/fruit_choice2.png","images/fruit_choice3.png","[0,1,2]","1","1","3","images/fruit_choice3.png","-1","fruit","","banana","2","0"
"html-keyboard-response","130","664515","0.0-9.0-2.0-0.22","1436","2","2","""event"",""trial"",""time""
""fullscreenenter"",""1"",""12000""
","
","
","""event"",""trial"",""time""
""fullscreenenter"",""1"",""12000""
","
","","","","","","null","<div style=""font-size:60px;"">+</div>","null","","fixation","","","","","","","","","","","","","",""
"learning-trial","131","668526","0.0-9.0-2.0-1.22","1436","2","2","""event"",""trial"",""time""
""fullscreenenter"",""1"",""12000""
","
","
","""event"",""trial"",""time""
""fullscreenenter"",""1"",""12000""
","
","","","","","","613.7000000476837","images/banana3.png","","","learning","images/fruit_choice3.png","images/fruit_choice2.png","images/fruit_choice1.png","[2,1,0]","1","1","2","images/fruit_choice2.png","-1","fruit","","banana","2","0"
"html-keyboard-response","132","669030","0.0-9.0-2.0-0.23","1436","2","2","""event"",""trial"",""time""
""fullscreenenter"",""1"",""12000""
","
","
","""event"",""trial"",""time""
""fullscreenenter"",""1"",""12000""
","
","","","","","","null","<div style=""font-size:60px;"">+</div>","null","","fixation","","","","","","","","","","","","","",""
"learning-trial","133","673041","0.0-9.0-2.0-1.23","1436","2","2","""event"",""trial"",""time""
""fullscreenenter"",""1"",""12000""
","
","
","""event"",""trial"",""time""
""fullscreenenter"",""1"",""12000""
","
","","","","","","1505.0999999642372","images/banana1.png","","","learning","images/fruit_choice1.png","images/fruit_choice2.png","images/fruit_choice3.png","[0,1,2]","2","2","3","images/fruit_choice3.png","1","fruit","","banana","2","0"
"html-keyboard-response","134","673545","0.0-9.0-2.0-0.24","1436","2","2","""event"",""trial"",""time""
""fullscreenenter"",""1"",""12000""
","
","
","""event"",""trial"",""time""
""fullscreenenter"",""1"",""12000""
","
","","","","","","null","<div style=""font-size:60px;"">+</div>","null","","fixation","","","","","","","","","","","","","",""
"learning-trial","135","677557","0.0-9.0-2.0-1.24","1436","2","2","""event"",""trial"",""time""
""fullscreenenter"",""1"",""12000""
","
","
","""event"",""trial"",""time""
""fullscreenenter"",""1"",""12000""
","
","","","","","","1318.6000000238419","images/straw1.png","","","learning","images/fruit_choice3.png","images/fruit_choice2.png","images/fruit_choice1.png","[2,1,0]","0","2","1","images/fruit_choice3.png","-1","fruit","","straw","2","0"
"html-keyboard-response","136","678060","0.0-9.0-2.0-0.25","1436","2","2","""event"",""trial"",""time""
""fullscreenenter"",""1"",""12000""
","
","
","""event"",""trial"",""time""
""fullscreenenter"",""1"",""12000""
","
","","","","","","null","<div style=""font-size:60px;"">+</div>","null","","fixation","","","","","","","","","","","","","",""
"learning-trial","137","682072","0.0-9.0-2.0-1.25","1436","2","2","""event"",""trial"",""time""
""fullscreenenter"",""1"",""12000""
","
","
","""event"",""trial"",""time""
""fullscreenenter"",""1"",""12000""
","
","","","","","","1554.5","images/orange5.png","","","learning","images/fruit_choice2.png","images/fruit_choice3.png","images/fruit_choice1.png","[1,2,0]","2","1","3","images/fruit_choice1.png","-1","fruit","","orange","2","0"
"html-keyboard-response","138","682575","0.0-9.0-2.0-0.26","1436","2","2","""event"",""trial"",""time""
""fullscreenenter"",""1"",""12000""
","
","
","""event"",""trial"",""time""
""fullscreenenter"",""1"",""12000""
","
","","","","","","null","<div style=""font-size:60px;"">+</div>","null","","fixation","","","","","","","","","","","","","",""
"learning-trial","139","686585","0.0-9.0-2.0-1.26","1436","2","2","""event"",""trial"",""time""
""fullscreenenter"",""1"",""12000""
","
","
","""event"",""trial"",""time""
""fullscreenenter"",""1"",""12000""
","
","","","","","","460.60000002384186","images/orange5.png","","","learning","images/fruit_choice1.png","images/fruit_choice3.png","images/fruit_choice2.png","[0,2,1]","2","1","2","images/fruit_choice3.png","1","fruit","","orange","2","0"
"html-keyboard-response","140","687089","0.0-9.0-2.0-0.27","1436","2","2","""event"",""trial"",""time""
""fullscreenenter"",""1"",""12000""
","
","
","""event"",""trial"",""time""
""fullscreenenter"",""1"",""12000""
","
","","","","","","null","<div style=""font-size:60px;"">+</div>","null","","fixation","","","","","","","","","","","","","",""
"learning-trial","141","691104","0.0-9.0-2.0-1.27","1436","2","2","""event"",""trial"",""time""
""fullscreenenter"",""1"",""12000""
","
","
","""event"",""trial"",""time""
""fullscreenenter"",""1"",""12000""
","
","","","","","","1201.3999999761581","images/banana1.png","","","learning","images/fruit_choice2.png","images/fruit_choice3.png","images/fruit_choice1.png","[1,2,0]","2","1","2","images/fruit_choice3.png","1","fruit","","banana","2","0"
"html-keyboard-response","142","691607","0.0-9.0-2.0-0.28","1436","2","2","""event"",""trial"",""time""
""fullscreenenter"",""1"",""12000""
","
","
","""event"",""trial"",""time""
""fullscreenenter"",""1"",""12000""
","
","","","","","","null","<div style=""font-size:60px;"">+</div>","null","","fixation","","","","","","","","","","","","","",""
"learning-trial","143","695619","0.0-9.0-2.0-1.28","1436","2","2","""event"",""trial"",""time""
""fullscreenenter"",""1"",""12000""
","
","
","""event"",""trial"",""time""
""fullscreenenter"",""1"",""12000""
","
","","","","","","884.6999999880791","images/banana3.png","","","learning","images/fruit_choice2.png","images/fruit_choice1.png","images/fruit_choice3.png","[1,0,2]","1","0","2","images/fruit_choice1.png","1","fruit","","banana","2","0"
"html-keyboard-response","144","696123","0.0-9.0-2.0-0.29","1436","2","2","""event"",""trial"",""time""
""fullscreenenter"",""1"",""12000""
","
","
","""event"",""trial"",""time""
""fullscreenenter"",""1"",""12000""
","
","","","","","","null","<div style=""font-size:60px;"">+</div>","null","","fixation","","","","","","","","","","","","","",""
"learning-trial","145","700134","0.0-9.0-2.0-1.29","1436","2","2","""event"",""trial"",""time""
""fullscreenenter"",""1"",""12000""
","
","
","""event"",""trial"",""time""
""fullscreenenter"",""1"",""12000""
","
","","","","","","1451.8999999761581","images/straw5.png","","","learning","images/fruit_choice1.png","images/fruit_choice2.png","images/fruit_choice3.png","[0,1,2]","2","2","3","images/fruit_choice3.png","1","fruit","","straw","2","0"
"html-keyboard-response","146","700639","0.0-9.0-2.0-0.30","1436","2","2","""event"",""trial"",""time""
""fullscreenenter"",""1"",""12000""
","
","
","""event"",""trial"",""time""
""fullscreenenter"",""1"",""12000""
","
","","","","","","null","<div style=""font-size:60px;"">+</div>","null","","fixation","","","","","","","","","","","","","",""
"learning-trial","147","704652","0.0-9.0-2.0-1.30","1436","2","2","""event"",""trial"",""time""
""fullscreenenter"",""1"",""12000""
","
","
","""event"",""trial"",""time""
""fullscreenenter"",""1"",""12000""
","
","","","","","","2720.699999988079","images/banana1.png","","","learning","images/fruit_choice1.png","images/fruit_choice2.png","images/fruit_choice3.png","[0,1,2]","2","2","2","images/fruit_choice2.png","-1","fruit","","banana","2","0"
"html-keyboard-response","148","705155","0.0-9.0-2.0-0.31","1436","2","2","""event"",""trial"",""time""
""fullscreenenter"",""1"",""12000""
","
","
","""event"",""trial"",""time""
""fullscreenenter"",""1"",""12000""
","
","","","","","","null","<div style=""font-size:60px;"">+</div>","null","","fixation","","","","","","","","","","","","","",""
"learning-trial","149","709161","0.0-9.0-2.0-1.31","1436","2","2","""event"",""trial"",""time""
""fullscreenenter"",""1"",""12000""
","
","
","""event"",""trial"",""time""
""fullscreenenter"",""1"",""12000""
","
","","","","","","1391.699999988079","images/orange1.png","","","learning","images/fruit_choice1.png","images/fruit_choice2.png","images/fruit_choice3.png","[0,1,2]","1","1","1","images/fruit_choice1.png","-1","fruit","","orange","2","0"
"html-keyboard-response","150","709665","0.0-9.0-2.0-0.32","1436","2","2","""event"",""trial"",""time""
""fullscreenenter"",""1"",""12000""
","
","
","""event"",""trial"",""time""
""fullscreenenter"",""1"",""12000""
","
","","","","","","null","<div style=""font-size:60px;"">+</div>","null","","fixation","","","","","","","","","","","","","",""
"learning-trial","151","713677","0.0-9.0-2.0-1.32","1436","2","2","""event"",""trial"",""time""
""fullscreenenter"",""1"",""12000""
","
","
","""event"",""trial"",""time""
""fullscreenenter"",""1"",""12000""
","
","","","","","","2163.2999999523163","images/banana3.png","","","learning","images/fruit_choice3.png","images/fruit_choice2.png","images/fruit_choice1.png","[2,1,0]","1","1","3","images/fruit_choice1.png","-1","fruit","","banana","2","0"
"html-keyboard-response","152","714180","0.0-9.0-2.0-0.33","1436","2","2","""event"",""trial"",""time""
""fullscreenenter"",""1"",""12000""
","
","
","""event"",""trial"",""time""
""fullscreenenter"",""1"",""12000""
","
","","","","","","null","<div style=""font-size:60px;"">+</div>","null","","fixation","","","","","","","","","","","","","",""
"learning-trial","153","718193","0.0-9.0-2.0-1.33","1436","2","2","""event"",""trial"",""time""
""fullscreenenter"",""1"",""12000""
","
","
","""event"",""trial"",""time""
""fullscreenenter"",""1"",""12000""
","
","","","","","","1758.300000011921","images/straw4.png","","","learning","images/fruit_choice2.png","images/fruit_choice1.png","images/fruit_choice3.png","[1,0,2]","1","0","2","images/fruit_choice1.png","1","fruit","","straw","2","0"
"html-keyboard-response","154","718701","0.0-9.0-2.0-0.34","1436","2","2","""event"",""trial"",""time""
""fullscreenenter"",""1"",""12000""
","
","
","""event"",""trial"",""time""
""fullscreenenter"",""1"",""12000""
","
","","","","","","null","<div style=""font-size:60px;"">+</div>","null","","fixation","","","","","","","","","","","","","",""
"learning-trial","155","722713","0.0-9.0-2.0-1.34","1436","2","2","""event"",""trial"",""time""
""fullscreenenter"",""1"",""12000""
","
","
","""event"",""trial"",""time""
""fullscreenenter"",""1"",""12000""
","
","","","","","","2188.5","images/banana5.png","","","learning","images/fruit_choice1.png","images/fruit_choice3.png","images/fruit_choice2.png","[0,2,1]","0","0","1","images/fruit_choice1.png","1","fruit","","banana","2","0"
"html-keyboard-response","156","723216","0.0-9.0-2.0-0.35","1436","2","2","""event"",""trial"",""time""
""fullscreenenter"",""1"",""12000""
","
","
","""event"",""trial"",""time""
""fullscreenenter"",""1"",""12000""
","
","","","","","","null","<div style=""font-size:60px;"">+</div>","null","","fixation","","","","","","","","","","","","","",""
"learning-trial","157","727226","0.0-9.0-2.0-1.35","1436","2","2","""event"",""trial"",""time""
""fullscreenenter"",""1"",""12000""
","
","
","""event"",""trial"",""time""
""fullscreenenter"",""1"",""12000""
","
","","","","","","2354.099999964237","images/straw4.png","","","learning","images/fruit_choice1.png","images/fruit_choice3.png","images/fruit_choice2.png","[0,2,1]","1","2","2","images/fruit_choice3.png","-1","fruit","","straw","2","0"
"html-keyboard-response","158","727729","0.0-9.0-2.0-0.36","1436","2","2","""event"",""trial"",""time""
""fullscreenenter"",""1"",""12000""
","
","
","""event"",""trial"",""time""
""fullscreenenter"",""1"",""12000""
","
","","","","","","null","<div style=""font-size:60px;"">+</div>","null","","fixation","","","","","","","","","","","","","",""
"learning-trial","159","731739","0.0-9.0-2.0-1.36","1436","2","2","""event"",""trial"",""time""
""fullscreenenter"",""1"",""12000""
","
","
","""event"",""trial"",""time""
""fullscreenenter"",""1"",""12000""
","
","","","","","","2120.900000035763","images/banana5.png","","","learning","images/fruit_choice2.png","images/fruit_choice1.png","images/fruit_choice3.png","[1,0,2]","0","1","2","images/fruit_choice1.png","1","fruit","","banana","2","0"
"html-keyboard-response","160","732242","0.0-9.0-2.0-0.37","1436","2","2","""event"",""trial"",""time""
""fullscreenenter"",""1"",""12000""
","
","
","""event"",""trial"",""time""
""fullscreenenter"",""1"",""12000""
","
","","","","","","null","<div style=""font-size:60px;"">+</div>","null","","fixation","","","","","","","","","","","","","",""
"learning-trial","161","736251","0.0-9.0-2.0-1.37","1436","2","2","""event"",""trial"",""time""
""fullscreenenter"",""1"",""12000""
","
","
","""event"",""trial"",""time""
""fullscreenenter"",""1"",""12000""
","
","","","","","","1757.4000000357628","images/banana1.png","","","learning","images/fruit_choice2.png","images/fruit_choice3.png","images/fruit_choice1.png","[1,2,0]","2","1","2","images/fruit_choice3.png","1","fruit","","banana","2","0"
"html-keyboard-response","162","736752","0.0-9.0-2.0-0.38","1436","2","2","""event"",""trial"",""time""
""fullscreenenter"",""1"",""12000""
","
","
","""event"",""trial"",""time""
""fullscreenenter"",""1"",""12000""
","
","","","","","","null","<div style=""font-size:60px;"">+</div>","null","","fixation","","","","","","","","","","","","","",""
"learning-trial","163","740761","0.0-9.0-2.0-1.38","1436","2","2","""event"",""trial"",""time""
""fullscreenenter"",""1"",""12000""
","
","
","""event"",""trial"",""time""
""fullscreenenter"",""1"",""12000""
","
","","","","","","2223.5","images/orange5.png","","","learning","images/fruit_choice2.png","images/fruit_choice3.png","images/fruit_choice1.png","[1,2,0]","2","1","3","images/fruit_choice1.png","-1","fruit","","orange","2","0"
"html-keyboard-response","164","741263","0.0-9.0-2.0-0.39","1436","2","2","""event"",""trial"",""time""
""fullscreenenter"",""1"",""12000""
","
","
","""event"",""trial"",""time""
""fullscreenenter"",""1"",""12000""
","
","","","","","","null","<div style=""font-size:60px;"">+</div>","null","","fixation","","","","","","","","","","","","","",""
"learning-trial","165","745271","0.0-9.0-2.0-1.39","1436","2","2","""event"",""trial"",""time""
""fullscreenenter"",""1"",""12000""
","
","
","""event"",""trial"",""time""
""fullscreenenter"",""1"",""12000""
","
","","","","","","2491.199999988079","images/straw1.png","","","learning","images/fruit_choice3.png","images/fruit_choice1.png","images/fruit_choice2.png","[2,0,1]","0","1","3","images/fruit_choice2.png","-1","fruit","","straw","2","0"
"html-keyboard-response","166","745774","0.0-9.0-2.0-0.40","1436","2","2","""event"",""trial"",""time""
""fullscreenenter"",""1"",""12000""
","
","
","""event"",""trial"",""time""
""fullscreenenter"",""1"",""12000""
","
","","","","","","null","<div style=""font-size:60px;"">+</div>","null","","fixation","","","","","","","","","","","","","",""
"learning-trial","167","749786","0.0-9.0-2.0-1.40","1436","2","2","""event"",""trial"",""time""
""fullscreenenter"",""1"",""12000""
","
","
","""event"",""trial"",""time""
""fullscreenenter"",""1"",""12000""
","
","","","","","","2041.699999988079","images/orange5.png","","","learning","images/fruit_choice1.png","images/fruit_choice3.png","images/fruit_choice2.png","[0,2,1]","2","1","2","images/fruit_choice3.png","1","fruit","","orange","2","0"
"html-keyboard-response","168","750288","0.0-9.0-2.0-0.41","1436","2","2","""event"",""trial"",""time""
""fullscreenenter"",""1"",""12000""
","
","
","""event"",""trial"",""time""
""fullscreenenter"",""1"",""12000""
","
","","","","","","null","<div style=""font-size:60px;"">+</div>","null","","fixation","","","","","","","","","","","","","",""
"learning-trial","169","754302","0.0-9.0-2.0-1.41","1436","2","2","""event"",""trial"",""time""
""fullscreenenter"",""1"",""12000""
","
","
","""event"",""trial"",""time""
""fullscreenenter"",""1"",""12000""
","
","","","","","","1929.800000011921","images/straw4.png","","","learning","images/fruit_choice2.png","images/fruit_choice3.png","images/fruit_choice1.png","[1,2,0]","1","0","2","images/fruit_choice3.png","-1","fruit","","straw","2","0"
"html-keyboard-response","170","754804","0.0-9.0-2.0-0.42","1436","2","2","""event"",""trial"",""time""
""fullscreenenter"",""1"",""12000""
","
","
","""event"",""trial"",""time""
""fullscreenenter"",""1"",""12000""
","
","","","","","","null","<div style=""font-size:60px;"">+</div>","null","","fixation","","","","","","","","","","","","","",""
"learning-trial","171","758814","0.0-9.0-2.0-1.42","1436","2","2","""event"",""trial"",""time""
""fullscreenenter"",""1"",""12000""
","
","
","""event"",""trial"",""time""
""fullscreenenter"",""1"",""12000""
","
","","","","","","1187.5","images/straw5.png","","","learning","images/fruit_choice1.png","images/fruit_choice3.png","images/fruit_choice2.png","[0,2,1]","2","1","1","images/fruit_choice1.png","-1","fruit","","straw","2","0"
"html-keyboard-response","172","759318","0.0-9.0-2.0-0.43","1436","2","2","""event"",""trial"",""time""
""fullscreenenter"",""1"",""12000""
","
","
","""event"",""trial"",""time""
""fullscreenenter"",""1"",""12000""
","
","","","","","","null","<div style=""font-size:60px;"">+</div>","null","","fixation","","","","","","","","","","","","","",""
"learning-trial","173","763328","0.0-9.0-2.0-1.43","1436","2","2","""event"",""trial"",""time""
""fullscreenenter"",""1"",""12000""
","
","
","""event"",""trial"",""time""
""fullscreenenter"",""1"",""12000""
","
","","","","","","1819","images/orange2.png","","","learning","images/fruit_choice1.png","images/fruit_choice2.png","images/fruit_choice3.png","[0,1,2]","0","0","1","images/fruit_choice1.png","-1","fruit","","orange","2","0"
"html-keyboard-response","174","763830","0.0-9.0-2.0-0.44","1436","2","2","""event"",""trial"",""time""
""fullscreenenter"",""1"",""12000""
","
","
","""event"",""trial"",""time""
""fullscreenenter"",""1"",""12000""
","
","","","","","","null","<div style=""font-size:60px;"">+</div>","null","","fixation","","","","","","","","","","","","","",""
"learning-trial","175","767841","0.0-9.0-2.0-1.44","1436","2","2","""event"",""trial"",""time""
""fullscreenenter"",""1"",""12000""
","
","
","""event"",""trial"",""time""
""fullscreenenter"",""1"",""12000""
","
","","","","","","1406.800000011921","images/banana1.png","","","learning","images/fruit_choice3.png","images/fruit_choice1.png","images/fruit_choice2.png","[2,0,1]","2","0","2","images/fruit_choice1.png","1","fruit","","banana","2","0"
"html-keyboard-response","176","768343","0.0-9.0-2.0-0.45","1436","2","2","""event"",""trial"",""time""
""fullscreenenter"",""1"",""12000""
","
","
","""event"",""trial"",""time""
""fullscreenenter"",""1"",""12000""
","
","","","","","","null","<div style=""font-size:60px;"">+</div>","null","","fixation","","","","","","","","","","","","","",""
"learning-trial","177","772354","0.0-9.0-2.0-1.45","1436","2","2","""event"",""trial"",""time""
""fullscreenenter"",""1"",""12000""
","
","
","""event"",""trial"",""time""
""fullscreenenter"",""1"",""12000""
","
","","","","","","1496.5","images/banana5.png","","","learning","images/fruit_choice1.png","images/fruit_choice3.png","images/fruit_choice2.png","[0,2,1]","0","0","1","images/fruit_choice1.png","1","fruit","","banana","2","0"
"html-keyboard-response","178","772858","0.0-9.0-2.0-0.46","1436","2","2","""event"",""trial"",""time""
""fullscreenenter"",""1"",""12000""
","
","
","""event"",""trial"",""time""
""fullscreenenter"",""1"",""12000""
","
","","","","","","null","<div style=""font-size:60px;"">+</div>","null","","fixation","","","","","","","","","","","","","",""
"learning-trial","179","776869","0.0-9.0-2.0-1.46","1436","2","2","""event"",""trial"",""time""
""fullscreenenter"",""1"",""12000""
","
","
","""event"",""trial"",""time""
""fullscreenenter"",""1"",""12000""
","
","","","","","","2282.600000023842","images/orange1.png","","","learning","images/fruit_choice3.png","images/fruit_choice1.png","images/fruit_choice2.png","[2,0,1]","1","2","3","images/fruit_choice2.png","1","fruit","","orange","2","0"
"html-keyboard-response","180","777372","0.0-9.0-2.0-0.47","1436","2","2","""event"",""trial"",""time""
""fullscreenenter"",""1"",""12000""
","
","
","""event"",""trial"",""time""
""fullscreenenter"",""1"",""12000""
","
","","","","","","null","<div style=""font-size:60px;"">+</div>","null","","fixation","","","","","","","","","","","","","",""
"learning-trial","181","781384","0.0-9.0-2.0-1.47","1436","2","2","""event"",""trial"",""time""
""fullscreenenter"",""1"",""12000""
","
","
","""event"",""trial"",""time""
""fullscreenenter"",""1"",""12000""
","
","","","","","","2298.7999999523163","images/straw5.png","","","learning","images/fruit_choice2.png","images/fruit_choice3.png","images/fruit_choice1.png","[1,2,0]","2","1","1","images/fruit_choice2.png","-1","fruit","","straw","2","0"
"html-keyboard-response","182","781887","0.0-9.0-2.0-0.48","1436","2","2","""event"",""trial"",""time""
""fullscreenenter"",""1"",""12000""
","
","
","""event"",""trial"",""time""
""fullscreenenter"",""1"",""12000""
","
","","","","","","null","<div style=""font-size:60px;"">+</div>","null","","fixation","","","","","","","","","","","","","",""
"learning-trial","183","785898","0.0-9.0-2.0-1.48","1436","2","2","""event"",""trial"",""time""
""fullscreenenter"",""1"",""12000""
","
","
","""event"",""trial"",""time""
""fullscreenenter"",""1"",""12000""
","
","","","","","","1601.5","images/straw4.png","","","learning","images/fruit_choice2.png","images/fruit_choice1.png","images/fruit_choice3.png","[1,0,2]","1","0","1","images/fruit_choice2.png","1","fruit","","straw","2","0"
"html-keyboard-response","184","786401","0.0-9.0-2.0-0.49","1436","2","2","""event"",""trial"",""time""
""fullscreenenter"",""1"",""12000""
","
","
","""event"",""trial"",""time""
""fullscreenenter"",""1"",""12000""
","
","","","","","","null","<div style=""font-size:60px;"">+</div>","null","","fixation","","","","","","","","","","","","","",""
"learning-trial","185","790410","0.0-9.0-2.0-1.49","1436","2","2","""event"",""trial"",""time""
""fullscreenenter"",""1"",""12000""
","
","
","""event"",""trial"",""time""
""fullscreenenter"",""1"",""12000""
","
","","","","","","1902.3999999761581","images/straw5.png","","","learning","images/fruit_choice3.png","images/fruit_choice1.png","images/fruit_choice2.png","[2,0,1]","2","0","3","images/fruit_choice2.png","-1","fruit","","straw","2","0"
"html-keyboard-response","186","790912","0.0-9.0-2.0-0.50","1436","2","2","""event"",""trial"",""time""
""fullscreenenter"",""1"",""12000""
","
","
","""event"",""trial"",""time""
""fullscreenenter"",""1"",""12000""
","
","","","","","","null","<div style=""font-size:60px;"">+</div>","null","","fixation","","","","","","","","","","","","","",""
"learning-trial","187","794922","0.0-9.0-2.0-1.50","1436","2","2","""event"",""trial"",""time""
""fullscreenenter"",""1"",""12000""
","
","
","""event"",""trial"",""time""
""fullscreenenter"",""1"",""12000""
","
","","","","","","2009.7000000476837","images/straw1.png","","","learning","images/fruit_choice2.png","images/fruit_choice1.png","images/fruit_choice3.png","[1,0,2]","0","1","1","images/fruit_choice2.png","-1","fruit","","straw","2","0"
"html-keyboard-response","188","795425","0.0-9.0-2.0-0.51","1436","2","2","""event"",""trial"",""time""
""fullscreenenter"",""1"",""12000""
","
","
","""event"",""trial"",""time""
""fullscreenenter"",""1"",""12000""
","
","","","","","","null","<div style=""font-size:60px;"">+</div>","null","","fixation","","","","","","","","","","","","","",""
"learning-trial","189","799434","0.0-9.0-2.0-1.51","1436","2","2","""event"",""trial"",""time""
""fullscreenenter"",""1"",""12000""
","
","
","""event"",""trial"",""time""
""fullscreenenter"",""1"",""12000""
","
","","","","","","1626.300000011921","images/banana1.png","","","learning","images/fruit_choice3.png","images/fruit_choice1.png","images/fruit_choice2.png","[2,0,1]","2","0","2","images/fruit_choice1.png","-1","fruit","","banana","2","0"
"html-keyboard-response","190","799937","0.0-9.0-2.0-0.52","1436","2","2","""event"",""trial"",""time""
""fullscreenenter"",""1"",""12000""
","
","
","""event"",""trial"",""time""
""fullscreenenter"",""1"",""12000""
","
","","","","","","null","<div style=""font-size:60px;"">+</div>","null","","fixation","","","","","","","","","","","","","",""
"learning-trial","191","803947","0.0-9.0-2.0-1.52","1436","2","2","""event"",""trial"",""time""
""fullscreenenter"",""1"",""12000""
","
","
","""event"",""trial"",""time""
""fullscreenenter"",""1"",""12000""
","
","","","","","","1521.1000000238419","images/banana3.png","","","learning","images/fruit_choice1.png","images/fruit_choice3.png","images/fruit_choice2.png","[0,2,1]","1","2","1","images/fruit_choice1.png","-1","fruit","","banana","2","0"
"html-keyboard-response","192","804450","0.0-9.0-2.0-0.53","1436","2","2","""event"",""trial"",""time""
""fullscreenenter"",""1"",""12000""
","
","
","""event"",""trial"",""time""
""fullscreenenter"",""1"",""12000""
","
","","","","","","null","<div style=""font-size:60px;"">+</div>","null","","fixation","","","","","","","","","","","","","",""
"learning-trial","193","808458","0.0-9.0-2.0-1.53","1436","2","2","""event"",""trial"",""time""
""fullscreenenter"",""1"",""12000""
","
","
","""event"",""trial"",""time""
""fullscreenenter"",""1"",""12000""
","
","","","","","","1663.1000000238419","images/orange1.png","","","learning","images/fruit_choice3.png","images/fruit_choice2.png","images/fruit_choice1.png","[2,1,0]","1","1","3","images/fruit_choice1.png","-1","fruit","","orange","2","0"
"html-keyboard-response","194","808961","0.0-9.0-2.0-0.54","1436","2","2","""event"",""trial"",""time""
""fullscreenenter"",""1"",""12000""
","
","
","""event"",""trial"",""time""
""fullscreenenter"",""1"",""12000""
","
","","","","","","null","<div style=""font-size:60px;"">+</div>","null","","fixation","","","","","","","","","","","","","",""
"learning-trial","195","812971","0.0-9.0-2.0-1.54","1436","2","2","""event"",""trial"",""time""
""fullscreenenter"",""1"",""12000""
","
","
","""event"",""trial"",""time""
""fullscreenenter"",""1"",""12000""
","
","","","","","","604.8000000119209","images/orange2.png","","","learning","images/fruit_choice3.png","images/fruit_choice1.png","images/fruit_choice2.png","[2,0,1]","0","1","2","images/fruit_choice1.png","1","fruit","","orange","2","0"
"html-keyboard-response","196","813475","0.0-9.0-2.0-0.55","1436","2","2","""event"",""trial"",""time""
""fullscreenenter"",""1"",""12000""
","
","
","""event"",""trial"",""time""
""fullscreenenter"",""1"",""12000""
","
","","","","","","null","<div style=""font-size:60px;"">+</div>","null","","fixation","","","","","","","","","","","","","",""
"learning-trial","197","817490","0.0-9.0-2.0-1.55","1436","2","2","""event"",""trial"",""time""
""fullscreenenter"",""1"",""12000""
","
","
","""event"",""trial"",""time""
""fullscreenenter"",""1"",""12000""
","
","","","","","","1242.5","images/orange1.png","","","learning","images/fruit_choice1.png","images/fruit_choice3.png","images/fruit_choice2.png","[0,2,1]","1","2","1","images/fruit_choice1.png","-1","fruit","","orange","2","0"
"html-keyboard-response","198","817994","0.0-9.0-2.0-0.56","1436","2","2","""event"",""trial"",""time""
""fullscreenenter"",""1"",""12000""
","
","
","""event"",""trial"",""time""
""fullscreenenter"",""1"",""12000""
","
","","","","","","null","<div style=""font-size:60px;"">+</div>","null","","fixation","","","","","","","","","","","","","",""
"learning-trial","199","822005","0.0-9.0-2.0-1.56","1436","2","2","""event"",""trial"",""time""
""fullscreenenter"",""1"",""12000""
","
","
","""event"",""trial"",""time""
""fullscreenenter"",""1"",""12000""
","
","","","","","","426.10000002384186","images/banana5.png","","","learning","images/fruit_choice3.png","images/fruit_choice1.png","images/fruit_choice2.png","[2,0,1]","0","1","2","images/fruit_choice1.png","-1","fruit","","banana","2","0"
"html-keyboard-response","200","822507","0.0-9.0-2.0-0.57","1436","2","2","""event"",""trial"",""time""
""fullscreenenter"",""1"",""12000""
","
","
","""event"",""trial"",""time""
""fullscreenenter"",""1"",""12000""
","
","","","","","","null","<div style=""font-size:60px;"">+</div>","null","","fixation","","","","","","","","","","","","","",""
"learning-trial","201","826512","0.0-9.0-2.0-1.57","1436","2","2","""event"",""trial"",""time""
""fullscreenenter"",""1"",""12000""
","
","
","""event"",""trial"",""time""
""fullscreenenter"",""1"",""12000""
","
","","","","","","1221.1000000238419","images/banana5.png","","","learning","images/fruit_choice2.png","images/fruit_choice1.png","images/fruit_choice3.png","[1,0,2]","0","1","3","images/fruit_choice3.png","-1","fruit","","banana","2","0"
"html-keyboard-response","202","827015","0.0-9.0-2.0-0.58","1436","2","2","""event"",""trial"",""time""
""fullscreenenter"",""1"",""12000""
","
","
","""event"",""trial"",""time""
""fullscreenenter"",""1"",""12000""
","
","","","","","","null","<div style=""font-size:60px;"">+</div>","null","","fixation","","","","","","","","","","","","","",""
"learning-trial","203","831024","0.0-9.0-2.0-1.58","1436","2","2","""event"",""trial"",""time""
""fullscreenenter"",""1"",""12000""
","
","
","""event"",""trial"",""time""
""fullscreenenter"",""1"",""12000""
","
","","","","","","389.30000001192093","images/straw5.png","","","learning","images/fruit_choice2.png","images/fruit_choice1.png","images/fruit_choice3.png","[1,0,2]","2","2","2","images/fruit_choice1.png","-1","fruit","","straw","2","0"
"html-keyboard-response","204","831527","0.0-9.0-2.0-0.59","1436","2","2","""event"",""trial"",""time""
""fullscreenenter"",""1"",""12000""
","
","
","""event"",""trial"",""time""
""fullscreenenter"",""1"",""12000""
","
","","","","","","null","<div style=""font-size:60px;"">+</div>","null","","fixation","","","","","","","","","","","","","",""
"learning-trial","205","835536","0.0-9.0-2.0-1.59","1436","2","2","""event"",""trial"",""time""
""fullscreenenter"",""1"",""12000""
","
","
","""event"",""trial"",""time""
""fullscreenenter"",""1"",""12000""
","
","","","","","","350.19999998807907","images/banana1.png","","","learning","images/fruit_choice2.png","images/fruit_choice1.png","images/fruit_choice3.png","[1,0,2]","2","2","1","images/fruit_choice2.png","-1","fruit","","banana","2","0"
"html-keyboard-response","206","836039","0.0-9.0-2.0-0.60","1436","2","2","""event"",""trial"",""time""
""fullscreenenter"",""1"",""12000""
","
","
","""event"",""trial"",""time""
""fullscreenenter"",""1"",""12000""
","
","","","","","","null","<div style=""font-size:60px;"">+</div>","null","","fixation","","","","","","","","","","","","","",""
"learning-trial","207","840049","0.0-9.0-2.0-1.60","1436","2","2","""event"",""trial"",""time""
""fullscreenenter"",""1"",""12000""
","
","
","""event"",""trial"",""time""
""fullscreenenter"",""1"",""12000""
","
","","","","","","1105.3999999761581","images/straw4.png","","","learning","images/fruit_choice1.png","images/fruit_choice2.png","images/fruit_choice3.png","[0,1,2]","1","1","2","images/fruit_choice2.png","1","fruit","","straw","2","0"
"html-keyboard-response","208","840552","0.0-9.0-2.0-0.61","1436","2","2","""event"",""trial"",""time""
""fullscreenenter"",""1"",""12000""
","
","
","""event"",""trial"",""time""
""fullscreenenter"",""1"",""12000""
","
","","","","","","null","<div style=""font-size:60px;"">+</div>","null","","fixation","","","","","","","","","","","","","",""
"learning-trial","209","844563","0.0-9.0-2.0-1.61","1436","2","2","""event"",""trial"",""time""
""fullscreenenter"",""1"",""12000""
","
","
","""event"",""trial"",""time""
""fullscreenenter"",""1"",""12000""
","
","","","","","","1497.699999988079","images/orange1.png","","","learning","images/fruit_choice1.png","images/fruit_choice2.png","images/fruit_choice3.png","[0,1,2]","1","1","3","images/fruit_choice3.png","1","fruit","","orange","2","0"
"html-keyboard-response","210","845066","0.0-9.0-2.0-0.62","1436","2","2","""event"",""trial"",""time""
""fullscreenenter"",""1"",""12000""
","
","
","""event"",""trial"",""time""
""fullscreenenter"",""1"",""12000""
","
","","","","","","null","<div style=""font-size:60px;"">+</div>","null","","fixation","","","","","","","","","","","","","",""
"learning-trial","211","849074","0.0-9.0-2.0-1.62","1436","2","2","""event"",""trial"",""time""
""fullscreenenter"",""1"",""12000""
","
","
","""event"",""trial"",""time""
""fullscreenenter"",""1"",""12000""
","
","","","","","","1709","images/straw4.png","","","learning","images/fruit_choice1.png","images/fruit_choice3.png","images/fruit_choice2.png","[0,2,1]","1","2","3","images/fruit_choice2.png","1","fruit","","straw","2","0"
"html-keyboard-response","212","849577","0.0-9.0-2.0-0.63","1436","2","2","""event"",""trial"",""time""
""fullscreenenter"",""1"",""12000""
","
","
","""event"",""trial"",""time""
""fullscreenenter"",""1"",""12000""
","
","","","","","","null","<div style=""font-size:60px;"">+</div>","null","","fixation","","","","","","","","","","","","","",""
"learning-trial","213","853587","0.0-9.0-2.0-1.63","1436","2","2","""event"",""trial"",""time""
""fullscreenenter"",""1"",""12000""
","
","
","""event"",""trial"",""time""
""fullscreenenter"",""1"",""12000""
","
","","","","","","1672.199999988079","images/orange1.png","","","learning","images/fruit_choice2.png","images/fruit_choice3.png","images/fruit_choice1.png","[1,2,0]","1","0","2","images/fruit_choice3.png","-1","fruit","","orange","2","0"
"html-keyboard-response","214","854089","0.0-9.0-2.0-0.64","1436","2","2","""event"",""trial"",""time""
""fullscreenenter"",""1"",""12000""
","
","
","""event"",""trial"",""time""
""fullscreenenter"",""1"",""12000""
","
","","","","","","null","<div style=""font-size:60px;"">+</div>","null","","fixation","","","","","","","","","","","","","",""
"learning-trial","215","858104","0.0-9.0-2.0-1.64","1436","2","2","""event"",""trial"",""time""
""fullscreenenter"",""1"",""12000""
","
","
","""event"",""trial"",""time""
""fullscreenenter"",""1"",""12000""
","
","","","","","","1459.4000000357628","images/orange5.png","","","learning","images/fruit_choice3.png","images/fruit_choice2.png","images/fruit_choice1.png","[2,1,0]","2","0","1","images/fruit_choice3.png","1","fruit","","orange","2","0"
"html-keyboard-response","216","858610","0.0-9.0-2.0-0.65","1436","2","2","""event"",""trial"",""time""
""fullscreenenter"",""1"",""12000""
","
","
","""event"",""trial"",""time""
""fullscreenenter"",""1"",""12000""
","
","","","","","","null","<div style=""font-size:60px;"">+</div>","null","","fixation","","","","","","","","","","","","","",""
"learning-trial","217","862620","0.0-9.0-2.0-1.65","1436","2","2","""event"",""trial"",""time""
""fullscreenenter"",""1"",""12000""
","
","
","""event"",""trial"",""time""
""fullscreenenter"",""1"",""12000""
","
","","","","","","1425.5","images/orange2.png","","","learning","images/fruit_choice1.png","images/fruit_choice3.png","images/fruit_choice2.png","[0,2,1]","0","0","2","images/fruit_choice3.png","-1","fruit","","orange","2","0"
"html-keyboard-response","218","863123","0.0-9.0-2.0-0.66","1436","2","2","""event"",""trial"",""time""
""fullscreenenter"",""1"",""12000""
","
","
","""event"",""trial"",""time""
""fullscreenenter"",""1"",""12000""
","
","","","","","","null","<div style=""font-size:60px;"">+</div>","null","","fixation","","","","","","","","","","","","","",""
"learning-trial","219","867133","0.0-9.0-2.0-1.66","1436","2","2","""event"",""trial"",""time""
""fullscreenenter"",""1"",""12000""
","
","
","""event"",""trial"",""time""
""fullscreenenter"",""1"",""12000""
","
","","","","","","2084.5","images/orange2.png","","","learning","images/fruit_choice2.png","images/fruit_choice1.png","images/fruit_choice3.png","[1,0,2]","0","1","1","images/fruit_choice2.png","-1","fruit","","orange","2","0"
"html-keyboard-response","220","867636","0.0-9.0-2.0-0.67","1436","2","2","""event"",""trial"",""time""
""fullscreenenter"",""1"",""12000""
","
","
","""event"",""trial"",""time""
""fullscreenenter"",""1"",""12000""
","
","","","","","","null","<div style=""font-size:60px;"">+</div>","null","","fixation","","","","","","","","","","","","","",""
"learning-trial","221","871647","0.0-9.0-2.0-1.67","1436","2","2","""event"",""trial"",""time""
""fullscreenenter"",""1"",""12000""
","
","
","""event"",""trial"",""time""
""fullscreenenter"",""1"",""12000""
","
","","","","","","1370.699999988079","images/orange2.png","","","learning","images/fruit_choice3.png","images/fruit_choice2.png","images/fruit_choice1.png","[2,1,0]","0","2","2","images/fruit_choice2.png","-1","fruit","","orange","2","0"
"html-keyboard-response","222","872150","0.0-9.0-2.0-0.68","1436","2","2","""event"",""trial"",""time""
""fullscreenenter"",""1"",""12000""
","
","
","""event"",""trial"",""time""
""fullscreenenter"",""1"",""12000""
","
","","","","","","null","<div style=""font-size:60px;"">+</div>","null","","fixation","","","","","","","","","","","","","",""
"learning-trial","223","876160","0.0-9.0-2.0-1.68","1436","2","2","""event"",""trial"",""time""
""fullscreenenter"",""1"",""12000""
","
","
","""event"",""trial"",""time""
""fullscreenenter"",""1"",""12000""
","
","","","","","","1810.5","images/straw1.png","","","learning","images/fruit_choice3.png","images/fruit_choice1.png","images/fruit_choice2.png","[2,0,1]","0","1","3","images/fruit_choice2.png","1","fruit","","straw","2","0"
"html-keyboard-response","224","876663","0.0-9.0-2.0-0.69","1436","2","2","""event"",""trial"",""time""
""fullscreenenter"",""1"",""12000""
","
","
","""event"",""trial"",""time""
""fullscreenenter"",""1"",""12000""
","
","","","","","","null","<div style=""font-size:60px;"">+</div>","null","","fixation","","","","","","","","","","","","","",""
"learning-trial","225","880673","0.0-9.0-2.0-1.69","1436","2","2","""event"",""trial"",""time""
""fullscreenenter"",""1"",""12000""
","
","
","""event"",""trial"",""time""
""fullscreenenter"",""1"",""12000""
","
","","","","","","1521.5","images/orange5.png","","","learning","images/fruit_choice2.png","images/fruit_choice1.png","images/fruit_choice3.png","[1,0,2]","2","2","3","images/fruit_choice3.png","1","fruit","","orange","2","0"
"html-keyboard-response","226","881176","0.0-9.0-2.0-0.70","1436","2","2","""event"",""trial"",""time""
""fullscreenenter"",""1"",""12000""
","
","
","""event"",""trial"",""time""
""fullscreenenter"",""1"",""12000""
","
","","","","","","null","<div style=""font-size:60px;"">+</div>","null","","fixation","","","","","","","","","","","","","",""
"learning-trial","227","885186","0.0-9.0-2.0-1.70","1436","2","2","""event"",""trial"",""time""
""fullscreenenter"",""1"",""12000""
","
","
","""event"",""trial"",""time""
""fullscreenenter"",""1"",""12000""
","
","","","","","","769.8000000119209","images/orange5.png","","","learning","images/fruit_choice2.png","images/fruit_choice3.png","images/fruit_choice1.png","[1,2,0]","2","1","3","images/fruit_choice1.png","-1","fruit","","orange","2","0"
"html-keyboard-response","228","885688","0.0-9.0-2.0-0.71","1436","2","2","""event"",""trial"",""time""
""fullscreenenter"",""1"",""12000""
","
","
","""event"",""trial"",""time""
""fullscreenenter"",""1"",""12000""
","
","","","","","","null","<div style=""font-size:60px;"">+</div>","null","","fixation","","","","","","","","","","","","","",""
"learning-trial","229","889699","0.0-9.0-2.0-1.71","1436","2","2","""event"",""trial"",""time""
""fullscreenenter"",""1"",""12000""
","
","
","""event"",""trial"",""time""
""fullscreenenter"",""1"",""12000""
","
","","","","","","1351.5999999642372","images/straw1.png","","","learning","images/fruit_choice3.png","images/fruit_choice2.png","images/fruit_choice1.png","[2,1,0]","0","2","2","images/fruit_choice2.png","-1","fruit","","straw","2","0"
"html-button-response","230","893939","0.0-9.0-3.0","1436","2","2","""event"",""trial"",""time""
""fullscreenenter"",""1"",""12000""
","
","
","""event"",""trial"",""time""
""fullscreenenter"",""1"",""12000""
","
","","","","","","4235.800000011921","<p> You have completed the round! <p> In this round, you earned -18 points! </p>","0","","break","","","","","","","","","","","","","",""
"html-button-response","231","895899","0.0-10.0","1436","2","2","""event"",""trial"",""time""
""fullscreenenter"",""1"",""12000""
","
","
","""event"",""trial"",""time""
""fullscreenenter"",""1"",""12000""
","
","","","","","","1956.9000000357628","<p> Now it's time to play another round. </p>","0","","transition_screen","","","","","","","","","","","","","",""
"preload","232","900126","0.0-11.0-0.0","1436","2","2","""event"",""trial"",""time""
""fullscreenenter"",""1"",""12000""
","
","
","""event"",""trial"",""time""
""fullscreenenter"",""1"",""12000""
","
","true","false","[]","[]","[]","","","","","","","","","","","","","","","","","","",""
"learning-instructions","233","932100","0.0-11.0-1.0-0.0","1436","2","2","""event"",""trial"",""time""
""fullscreenenter"",""1"",""12000""
","
","
","""event"",""trial"",""time""
""fullscreenenter"",""1"",""12000""
","
","","","","","","24013.19999998808","<p> Your goal in this round is to return farm animals to the barns where they live. </p><p>  Different animals wandered away from different barns! </p></div>","","0","instructions","","","","","","","","","","","","","",""
"learning-instructions","234","943754","0.0-11.0-1.0-0.1","1436","2","2","""event"",""trial"",""time""
""fullscreenenter"",""1"",""12000""
","
","
","""event"",""trial"",""time""
""fullscreenenter"",""1"",""12000""
","
","","","","","","3029.5","<p> On each turn, you will see a picture of a farm animal and three different barns.  </p><p> You need to select the barn where each animal lives.  </p>","","0","instructions","","","","","","","","","","","","","",""
"learning-instructions","235","951668","0.0-11.0-1.0-0.2","1436","2","2","""event"",""trial"",""time""
""fullscreenenter"",""1"",""12000""
","
","
","""event"",""trial"",""time""
""fullscreenenter"",""1"",""12000""
","
","","","","","","723.8999999761581","<p> You can select the barn on the left by pressing 1, the barn in the middle by pressing 2, and the barn on the right by pressing 3. </p><br><div class=""choice-instructions-grid""> <div class=""choice-option""><img src=""images/animals_choice1.png"" class=""choice-option-img"" stage=""instructions"" position=""0"" ><div class=""choice-option-text""> Press ""1."" </div></div><div class=""choice-option""><img src=""images/animals_choice2.png"" class=""choice-option-img"" stage=""instructions"" position=""1"" ><div class=""choice-option-text""> Press ""2."" </div></div><div class=""choice-option""><img src=""images/animals_choice3.png"" class=""choice-option-img"" stage=""instructions"" position=""2"" ><div class=""choice-option-text""> Press ""3."" </div></div></div>","","0","instructions","","","","","","","","","","","","","",""
"learning-instructions","236","957667","0.0-11.0-1.0-0.3","1436","2","2","""event"",""trial"",""time""
""fullscreenenter"",""1"",""12000""
","
","
